{
  "resourceType": "Bundle",
  "id": "878b7bf8-c47e-45a0-a3da-b3abb31452d3",
  "meta": {
    "profile": [
      "http://hl7.eu/fhir/laboratory/StructureDefinition/Bundle-eu-lab"
    ]
  },
  "identifier": {
    "assigner": {
      "display": "HL7 Europe"
    },
    "system": "urn:oid:2.16.840.1.113883.2.51.999",
    "value": "54bf2eb4-da0d-41a0-9ece-6cb9298d5f75"
  },
  "entry": [
    {
      "fullUrl": "urn:uuid:35be66a3-9973-4e69-abb0-8f6d7d084942",
      "resource": {
        "resourceType": "Composition",
        "id": "35be66a3-9973-4e69-abb0-8f6d7d084942",
        "meta": {
          "profile": [
            "http://hl7.eu/fhir/laboratory/StructureDefinition/Composition-eu-lab"
          ]
        },
        "identifier": {
          "assigner": {
            "display": "HL7 Europe"
          },
          "system": "urn:oid:2.16.840.1.113883.2.51.999",
          "value": "c42c57dc-43ce-4d7d-94af-57fa5edb3d52"
        },
        "author": [
          {
            "reference": "urn:uuid:e6d63268-22c5-4b69-af41-591e4ab4814c"
          }
        ],
        "category": [
          {
            "coding": [
              {
                "code": "26436-6",
                "system": "http://loinc.org",
                "display": "Laboratory studies (set)"
              }
            ]
          }
        ],
        "type": {
          "coding": [
            {
              "code": "11502-2",
              "system": "http://loinc.org",
              "display": "Laboratory report"
            }
          ],
          "text": "Laboratory Report"
        },
        "section": [
          {
            "code": {
              "coding": [
                {
                  "code": "26436-6",
                  "system": "http://loinc.org",
                  "display": "Laboratory studies (set)"
                }
              ],
              "text": "Laboratory studies"
            },
            "section": [
              {
                "code": {
                  "coding": [
                    {
                      "code": "$18719-5",
                      "system": "http://loinc.org",
                      "display": "Chemistry studies (set)"
                    }
                  ],
                  "text": "Chemistry"
                },
                "entry": [
                  {
                    "reference": "urn:uuid:05bc1003-1ff6-47a7-8c17-4b5f8e49b797"
                  },
                  {
                    "reference": "urn:uuid:ac9a8a41-15ba-492f-ac1d-f2b4dc43347b"
                  },
                  {
                    "reference": "urn:uuid:cc9c9977-5208-41e6-a0c7-9dd4eeca2fe5"
                  },
                  {
                    "reference": "urn:uuid:2c628688-2594-4979-ab95-9d75b77bbaab"
                  },
                  {
                    "reference": "urn:uuid:70e6e2cd-f60f-4a2e-ab2b-832cdea32c37"
                  },
                  {
                    "reference": "urn:uuid:304ab847-95d2-41d6-ab1f-953c309da031"
                  },
                  {
                    "reference": "urn:uuid:3780dd28-2c5d-4f73-acca-ee29f7d3ed5e"
                  },
                  {
                    "reference": "urn:uuid:5c721df8-f7f3-4587-94f7-894121729591"
                  },
                  {
                    "reference": "urn:uuid:4b55a941-9ecb-4696-b9ab-e148161403cb"
                  },
                  {
                    "reference": "urn:uuid:9f46e47d-054e-4e0f-9e5b-c7a5e85ba45c"
                  },
                  {
                    "reference": "urn:uuid:74457acc-150d-4991-ad7f-c848b535638a"
                  },
                  {
                    "reference": "urn:uuid:89a78236-3967-4cf5-b61a-ba7530cac83a"
                  },
                  {
                    "reference": "urn:uuid:3397c55a-5a44-4028-a7f1-f105ca2fe863"
                  },
                  {
                    "reference": "urn:uuid:70aed657-755f-4ef0-946d-cf13f463544e"
                  },
                  {
                    "reference": "urn:uuid:d0435601-2818-4069-ab19-5a33900ebf09"
                  },
                  {
                    "reference": "urn:uuid:1f2a6e12-fca1-45cd-b604-2a7394f0b30d"
                  },
                  {
                    "reference": "urn:uuid:35b94a7d-bd94-4374-bfd1-8c2c3e0488b6"
                  },
                  {
                    "reference": "urn:uuid:82990ebd-a171-4436-9094-09bd0399d1cf"
                  }
                ],
                "text": {
                  "status": "generated",
                  "div": "<div xmlns=\"http://www.w3.org/1999/xhtml\"><h3>Chemistry</h3><table class=\"hl7__eu__lab__report\"><thead><tr><th>Test</th><th>12-APR-2019</th><th>Reference&#xA0;Range</th><th>Unit</th></tr></thead><tbody><tr><td>Glucose [Mass/volume] in Serum or Plasma</td><td><strong>69.0 L</strong></td><td>70 - 140</td><td>mg/dL</td></tr><tr><td>Urea nitrogen [Mass/volume] in Serum or Plasma</td><td>13.6</td><td>7 - 20</td><td>mg/dL</td></tr><tr><td>Creatinine [Mass/volume] in Serum or Plasma</td><td><strong>2.0 H</strong></td><td>0.9 - 1.3</td><td>mg/dL</td></tr><tr><td>Calcium [Mass/volume] in Serum or Plasma</td><td>8.5</td><td>8.5 - 10.5</td><td>mg/dL</td></tr><tr><td>Sodium [Moles/volume] in Serum or Plasma</td><td>140.6</td><td>135 - 145</td><td>mmol/L</td></tr><tr><td>Potassium [Moles/volume] in Serum or Plasma</td><td>4.6</td><td>3.5 - 5.3</td><td>mmol/L</td></tr><tr><td>Chloride [Moles/volume] in Serum or Plasma</td><td><strong>107.3 H</strong></td><td>98 - 107</td><td>mmol/L</td></tr><tr><td>Carbon dioxide, total [Moles/volume] in Serum or Plasma</td><td>25.8</td><td>22 - 33</td><td>mmol/L</td></tr><tr><td>Ketones [Presence] in Urine by Test strip</td><td>Urine ketone test = ++</td><td></td><td></td></tr><tr><td>Hemoglobin A1c/Hemoglobin.total in Blood</td><td><strong>2.8 L</strong></td><td>4.3 - 6</td><td>%</td></tr><tr><td>Glucose [Mass/volume] in Blood</td><td><strong>69.0 L</strong></td><td>70 - 140</td><td>mg/dL</td></tr><tr><td>Urea nitrogen [Mass/volume] in Blood</td><td>13.6</td><td>7 - 20</td><td>mg/dL</td></tr><tr><td>Creatinine [Mass/volume] in Blood</td><td><strong>3.1 H</strong></td><td>0.9 - 1.3</td><td>mg/dL</td></tr><tr><td>Calcium [Mass/volume] in Blood</td><td>8.5</td><td>8.5 - 10.5</td><td>mg/dL</td></tr><tr><td>Sodium [Moles/volume] in Blood</td><td>140.6</td><td>135 - 145</td><td>mmol/L</td></tr><tr><td>Potassium [Moles/volume] in Blood</td><td>4.6</td><td>3.5 - 5.1</td><td>mmol/L</td></tr><tr><td>Chloride [Moles/volume] in Blood</td><td>107.3</td><td>98 - 108</td><td>mmol/L</td></tr><tr><td>Carbon dioxide, total [Moles/volume] in Blood</td><td>25.8</td><td>22 - 29</td><td>mmol/L</td></tr></tbody></table></div>"
                },
                "title": "Chemistry"
              },
              {
                "code": {
                  "coding": [
                    {
                      "code": "$18729-4",
                      "system": "http://loinc.org",
                      "display": "Urinalysis studies (set)"
                    }
                  ],
                  "text": "Urinalysis"
                },
                "entry": [
                  {
                    "reference": "urn:uuid:ef920220-73c5-447d-869b-5b0a666388a4"
                  },
                  {
                    "reference": "urn:uuid:a668c6e9-6fef-41ca-81c1-70ab30df2ffa"
                  },
                  {
                    "reference": "urn:uuid:224ec4ad-8884-42b5-b421-50bdc9206690"
                  },
                  {
                    "reference": "urn:uuid:9d041457-4b4c-45d0-90f6-f5235542ec66"
                  },
                  {
                    "reference": "urn:uuid:d370878d-f51f-4ec7-ba4a-02e794fee8a7"
                  },
                  {
                    "reference": "urn:uuid:e3a9595e-14aa-4988-b5af-3ccb7e6adab1"
                  },
                  {
                    "reference": "urn:uuid:c3814b18-e88b-41a4-9392-f4ab56905407"
                  },
                  {
                    "reference": "urn:uuid:4dac3a0f-704e-4b5e-9c90-6ce983395251"
                  },
                  {
                    "reference": "urn:uuid:c9d2c84e-41ee-440a-80ef-119228a0d71e"
                  },
                  {
                    "reference": "urn:uuid:65430922-b3af-4dad-8048-36c8ad0a3f11"
                  },
                  {
                    "reference": "urn:uuid:60d2ae9a-1737-4375-9f8c-206d54059488"
                  },
                  {
                    "reference": "urn:uuid:091ce962-22ba-4440-8e92-98c673fe44ba"
                  }
                ],
                "text": {
                  "status": "generated",
                  "div": "<div xmlns=\"http://www.w3.org/1999/xhtml\"><h3>Urinalysis</h3><table class=\"hl7__eu__lab__report\"><thead><tr><th>Test</th><th>12-APR-2019</th><th>Reference&#xA0;Range</th><th>Unit</th></tr></thead><tbody><tr><td>Glucose [Mass/volume] in Urine by Test strip</td><td><strong>1.3 H</strong></td><td>0 - 0.8</td><td>mg/dL</td></tr><tr><td>Glucose [Presence] in Urine by Test strip</td><td>++</td><td></td><td></td></tr><tr><td>Bilirubin.total [Mass/volume] in Urine by Test strip</td><td>0.9</td><td>0 - 1.9</td><td>mg/dL</td></tr><tr><td>Bilirubin.total [Presence] in Urine by Test strip</td><td>Finding of bilirubin in urine</td><td></td><td></td></tr><tr><td>Ketones [Mass/volume] in Urine by Test strip</td><td>0.1</td><td>0 - 3</td><td>mg/dL</td></tr><tr><td>Specific gravity of Urine by Test strip</td><td><strong>1.0 L</strong></td><td>1.01 - 1.03</td><td>{nominal}</td></tr><tr><td>pH of Urine by Test strip</td><td>5.9</td><td>4.5 - 7.5</td><td>pH</td></tr><tr><td>Protein [Mass/volume] in Urine by Test strip</td><td><strong>211.2 H</strong></td><td>0 - 149</td><td>mg/dL</td></tr><tr><td>Protein [Presence] in Urine by Test strip</td><td>Urine protein test = ++</td><td></td><td></td></tr><tr><td>Nitrite [Presence] in Urine by Test strip</td><td>Urine nitrite negative</td><td></td><td></td></tr><tr><td>Hemoglobin [Presence] in Urine by Test strip</td><td>Urine blood test = negative</td><td></td><td></td></tr><tr><td>Leukocyte esterase [Presence] in Urine by Test strip</td><td>Urine leukocyte test negative</td><td></td><td></td></tr></tbody></table></div>"
                },
                "title": "Urinalysis"
              },
              {
                "code": {
                  "coding": [
                    {
                      "code": "$LP7846-1",
                      "system": "http://loinc.org",
                      "display": "Specimen information"
                    }
                  ],
                  "text": "Specimen information"
                },
                "entry": [
                  {
                    "reference": "urn:uuid:c5f8d614-c8fd-498d-b3f0-f940a2fce900"
                  },
                  {
                    "reference": "urn:uuid:3ec3687d-f2a0-41c5-b3b0-d46d0fce8cba"
                  },
                  {
                    "reference": "urn:uuid:1bd24826-3258-4778-8540-e68ce1de2f24"
                  },
                  {
                    "reference": "urn:uuid:3d728308-4bbe-4fb5-96f9-6d6c32d0c48d"
                  }
                ],
                "text": {
                  "status": "generated",
                  "div": "<div xmlns=\"http://www.w3.org/1999/xhtml\"><h3>Specimen information</h3><table class=\"hl7__eu__lab__report\"><thead><tr><th>Test</th><th>12-APR-2019</th><th>Specimen</th><th></th></tr></thead><tbody><tr><td>Appearance of Urine</td><td>Cloudy urine</td><td>Urine</td><td></td></tr><tr><td>Odor of Urine</td><td>Urine smell ammoniacal</td><td>Urine</td><td></td></tr><tr><td>Clarity of Urine</td><td>Translucent</td><td>Urine</td><td></td></tr><tr><td>Color of Urine</td><td>Brown color</td><td>Urine</td><td></td></tr></tbody></table></div>"
                },
                "title": "Specimen information"
              }
            ],
            "title": "Laboratory Report"
          },
          {
            "text": {
              "status": "generated",
              "div": "<div xmlns=\"http://www.w3.org/1999/xhtml\"><h3>Annotation</h3><table class=\"hl7__eu__lab__report\"><tr><th>Conclusion and Recommendations based on this report and previous findings known to us</th></tr><tr><td>The patient shows evidence of renal impairment (elevated creatinine), mild hypoglycemia, and proteinuria with glucosuria and ketonuria, suggesting possible renal tubular dysfunction or diabetes with poor glycemic control, though HbA1c is unexpectedly low. Urine is abnormal in appearance and specific gravity is low, indicating possible impaired concentrating ability. No evidence of urinary infection. Further clinical correlation and nephrology evaluation are recommended.</td></tr></table></div>"
            },
            "code": {
              "coding": [
                {
                  "system": "http://loinc.org",
                  "code": "48767-8",
                  "display": "Annotation comment"
                }
              ]
            },
            "title": "Annotation comment"
          }
        ],
        "status": "final",
        "subject": {
          "reference": "urn:uuid:0cbab716-2822-4b8c-a6d8-6d0a060adb8e",
          "display": "Victor Lagarde"
        },
        "date": "2019-04-12T06:48:18Z",
        "title": "Laboratory Report",
        "confidentiality": "N"
      }
    },
    {
      "fullUrl": "urn:uuid:94828269-ea84-4586-ac49-0e24d1732b14",
      "resource": {
        "resourceType": "DiagnosticReport",
        "id": "94828269-ea84-4586-ac49-0e24d1732b14",
        "meta": {
          "profile": [
            "http://hl7.eu/fhir/laboratory/StructureDefinition/DiagnosticReport-eu-lab"
          ]
        },
        "identifier": [
          {
            "assigner": {
              "display": "HL7 Europe"
            },
            "system": "urn:oid:2.16.840.1.113883.2.51.999",
            "value": "dbe9b722-5f25-4f31-8348-182f81727ef0"
          }
        ],
        "extension": [
          {
            "url": "http://hl7.org/fhir/5.0/StructureDefinition/extension-DiagnosticReport.composition",
            "valueReference": {
              "reference": "urn:uuid:c42c57dc-43ce-4d7d-94af-57fa5edb3d52"
            }
          }
        ],
        "category": [
          {
            "coding": [
              {
                "code": "26436-6",
                "system": "http://loinc.org",
                "display": "Laboratory studies (set)"
              }
            ]
          }
        ],
        "specimen": [
          {
            "reference": "urn:uuid:63dcc995-4ceb-4c1e-b164-8f24122b5777"
          },
          {
            "reference": "urn:uuid:99430c17-7bd9-45f2-bb7b-7fd47fe83270"
          },
          {
            "reference": "urn:uuid:eef1ea02-f1cf-45bc-9c67-c5a6e82c9078"
          }
        ],
        "result": [
          {
            "reference": "urn:uuid:05bc1003-1ff6-47a7-8c17-4b5f8e49b797"
          },
          {
            "reference": "urn:uuid:ac9a8a41-15ba-492f-ac1d-f2b4dc43347b"
          },
          {
            "reference": "urn:uuid:cc9c9977-5208-41e6-a0c7-9dd4eeca2fe5"
          },
          {
            "reference": "urn:uuid:2c628688-2594-4979-ab95-9d75b77bbaab"
          },
          {
            "reference": "urn:uuid:70e6e2cd-f60f-4a2e-ab2b-832cdea32c37"
          },
          {
            "reference": "urn:uuid:304ab847-95d2-41d6-ab1f-953c309da031"
          },
          {
            "reference": "urn:uuid:3780dd28-2c5d-4f73-acca-ee29f7d3ed5e"
          },
          {
            "reference": "urn:uuid:5c721df8-f7f3-4587-94f7-894121729591"
          },
          {
            "reference": "urn:uuid:c5f8d614-c8fd-498d-b3f0-f940a2fce900"
          },
          {
            "reference": "urn:uuid:3ec3687d-f2a0-41c5-b3b0-d46d0fce8cba"
          },
          {
            "reference": "urn:uuid:1bd24826-3258-4778-8540-e68ce1de2f24"
          },
          {
            "reference": "urn:uuid:3d728308-4bbe-4fb5-96f9-6d6c32d0c48d"
          },
          {
            "reference": "urn:uuid:ef920220-73c5-447d-869b-5b0a666388a4"
          },
          {
            "reference": "urn:uuid:a668c6e9-6fef-41ca-81c1-70ab30df2ffa"
          },
          {
            "reference": "urn:uuid:224ec4ad-8884-42b5-b421-50bdc9206690"
          },
          {
            "reference": "urn:uuid:9d041457-4b4c-45d0-90f6-f5235542ec66"
          },
          {
            "reference": "urn:uuid:d370878d-f51f-4ec7-ba4a-02e794fee8a7"
          },
          {
            "reference": "urn:uuid:4b55a941-9ecb-4696-b9ab-e148161403cb"
          },
          {
            "reference": "urn:uuid:e3a9595e-14aa-4988-b5af-3ccb7e6adab1"
          },
          {
            "reference": "urn:uuid:c3814b18-e88b-41a4-9392-f4ab56905407"
          },
          {
            "reference": "urn:uuid:4dac3a0f-704e-4b5e-9c90-6ce983395251"
          },
          {
            "reference": "urn:uuid:c9d2c84e-41ee-440a-80ef-119228a0d71e"
          },
          {
            "reference": "urn:uuid:65430922-b3af-4dad-8048-36c8ad0a3f11"
          },
          {
            "reference": "urn:uuid:60d2ae9a-1737-4375-9f8c-206d54059488"
          },
          {
            "reference": "urn:uuid:091ce962-22ba-4440-8e92-98c673fe44ba"
          },
          {
            "reference": "urn:uuid:9f46e47d-054e-4e0f-9e5b-c7a5e85ba45c"
          },
          {
            "reference": "urn:uuid:74457acc-150d-4991-ad7f-c848b535638a"
          },
          {
            "reference": "urn:uuid:89a78236-3967-4cf5-b61a-ba7530cac83a"
          },
          {
            "reference": "urn:uuid:3397c55a-5a44-4028-a7f1-f105ca2fe863"
          },
          {
            "reference": "urn:uuid:70aed657-755f-4ef0-946d-cf13f463544e"
          },
          {
            "reference": "urn:uuid:d0435601-2818-4069-ab19-5a33900ebf09"
          },
          {
            "reference": "urn:uuid:1f2a6e12-fca1-45cd-b604-2a7394f0b30d"
          },
          {
            "reference": "urn:uuid:35b94a7d-bd94-4374-bfd1-8c2c3e0488b6"
          },
          {
            "reference": "urn:uuid:82990ebd-a171-4436-9094-09bd0399d1cf"
          }
        ],
        "status": "registered",
        "code": {
          "coding": [
            {
              "code": "11502-2",
              "system": "http://loinc.org",
              "display": "Laboratory report"
            }
          ]
        },
        "subject": {
          "reference": "urn:uuid:0cbab716-2822-4b8c-a6d8-6d0a060adb8e",
          "display": "Victor Lagarde"
        }
      }
    },
    {
      "fullUrl": "urn:uuid:0cbab716-2822-4b8c-a6d8-6d0a060adb8e",
      "resource": {
        "resourceType": "Patient",
        "id": "0cbab716-2822-4b8c-a6d8-6d0a060adb8e",
        "meta": {
          "security": [
            {
              "system": "http://terminology.hl7.org/CodeSystem/v3-ActReason",
              "code": "HTEST"
            },
            {
              "system": "http://terminology.hl7.org/CodeSystem/v3-ActReason",
              "code": "TRAIN"
            }
          ],
          "tag": [
            {
              "system": "https://synderai.net/fhir/CodeSystem/tags",
              "code": "synthetic",
              "display": "SYNDERAI Synthetic data"
            }
          ],
          "profile": [
            "http://hl7.eu/fhir/base/StructureDefinition/patient-eu-core"
          ]
        },
        "identifier": [
          {
            "type": {
              "coding": [
                {
                  "code": "PT",
                  "system": "http://terminology.hl7.org/CodeSystem/v2-0203"
                }
              ]
            },
            "system": "http://ec.europa.eu/identifier/eci",
            "value": "9925-001801-9"
          },
          {
            "type": {
              "coding": [
                {
                  "code": "MR",
                  "system": "http://terminology.hl7.org/CodeSystem/v2-0203"
                }
              ]
            },
            "system": "http://local.setting.eu/identifier",
            "value": "22c2dfd0-ac57-8833-2532-848f180896a4"
          }
        ],
        "name": [
          {
            "family": "Lagarde"
          },
          {
            "given": [
              "Victor"
            ]
          },
          {
            "text": "Victor Lagarde"
          }
        ],
        "address": [
          {
            "line": [
              "avenue Robert"
            ],
            "use": "home",
            "type": "physical",
            "postalCode": "80300",
            "city": "Albert",
            "country": "France"
          }
        ],
        "telecom": [
          {
            "system": "phone",
            "value": "0177941801"
          }
        ],
        "extension": [
          {
            "url": "http://hl7.org/fhir/StructureDefinition/patient-nationality",
            "valueCodeableConcept": {
              "coding": [
                {
                  "code": "FR",
                  "system": "http://hl7.org/fhir/ValueSet/country"
                }
              ]
            }
          }
        ],
        "text": {
          "status": "generated",
          "div": "<div xmlns=\"http://www.w3.org/1999/xhtml\"><table class=\"hl7__ips\"><tr><td>Victor Lagarde</td><td>male</td><td>31-Aug-1939</td></tr></table></div>"
        },
        "gender": "male",
        "birthDate": "1939-08-31"
      }
    },
    {
      "fullUrl": "urn:uuid:6915fd83-1c96-4acd-a63c-cf2344a4c7b7",
      "resource": {
        "resourceType": "ServiceRequest",
        "id": "6915fd83-1c96-4acd-a63c-cf2344a4c7b7",
        "meta": {
          "profile": [
            "http://hl7.eu/fhir/laboratory/StructureDefinition/ServiceRequest-eu-lab"
          ]
        },
        "identifier": [
          {
            "system": "http://example.org",
            "value": "9e037331-1dc6-47b8-9fd6-c580ba271cf5"
          }
        ],
        "specimen": [
          {
            "reference": "urn:uuid:63dcc995-4ceb-4c1e-b164-8f24122b5777"
          },
          {
            "reference": "urn:uuid:99430c17-7bd9-45f2-bb7b-7fd47fe83270"
          },
          {
            "reference": "urn:uuid:eef1ea02-f1cf-45bc-9c67-c5a6e82c9078"
          }
        ],
        "reasonCode": [
          {
            "coding": [
              {
                "code": "433144002",
                "system": "http://snomed.info/sct",
                "display": "Chronic kidney disease stage 3"
              }
            ]
          },
          {
            "coding": [
              {
                "code": "157141000119108",
                "system": "http://snomed.info/sct",
                "display": "Proteinuria due to type 2 diabetes mellitus"
              }
            ]
          },
          {
            "coding": [
              {
                "code": "431856006",
                "system": "http://snomed.info/sct",
                "display": "Chronic kidney disease stage 2"
              }
            ]
          },
          {
            "coding": [
              {
                "code": "90781000119102",
                "system": "http://snomed.info/sct",
                "display": "Microalbuminuria due to type 2 diabetes mellitus"
              }
            ]
          },
          {
            "coding": [
              {
                "code": "127013003",
                "system": "http://snomed.info/sct",
                "display": "Disorder of kidney due to diabetes mellitus"
              }
            ]
          },
          {
            "coding": [
              {
                "code": "431855005",
                "system": "http://snomed.info/sct",
                "display": "Chronic kidney disease stage 1"
              }
            ]
          },
          {
            "coding": [
              {
                "code": "55822004",
                "system": "http://snomed.info/sct",
                "display": "Hyperlipidemia"
              }
            ]
          },
          {
            "coding": [
              {
                "code": "59621000",
                "system": "http://snomed.info/sct",
                "display": "Essential hypertension"
              }
            ]
          },
          {
            "coding": [
              {
                "code": "237602007",
                "system": "http://snomed.info/sct",
                "display": "Metabolic syndrome X"
              }
            ]
          },
          {
            "coding": [
              {
                "code": "414545008",
                "system": "http://snomed.info/sct",
                "display": "Ischemic heart disease"
              }
            ]
          },
          {
            "coding": [
              {
                "code": "40055000",
                "system": "http://snomed.info/sct",
                "display": "Chronic sinusitis"
              }
            ]
          },
          {
            "coding": [
              {
                "code": "15777000",
                "system": "http://snomed.info/sct",
                "display": "Prediabetes"
              }
            ]
          },
          {
            "coding": [
              {
                "code": "271737000",
                "system": "http://snomed.info/sct",
                "display": "Anemia"
              }
            ]
          }
        ],
        "status": "active",
        "intent": "order",
        "code": {
          "coding": [
            {
              "code": "108252007",
              "system": "http://snomed.info/sct",
              "display": "Laboratory procedure"
            }
          ]
        },
        "subject": {
          "reference": "urn:uuid:0cbab716-2822-4b8c-a6d8-6d0a060adb8e",
          "display": "Victor Lagarde"
        },
        "requester": {
          "reference": "urn:uuid:98b900a4-855c-468e-9e16-0b42d3ae00f6"
        }
      }
    },
    {
      "fullUrl": "urn:uuid:98b900a4-855c-468e-9e16-0b42d3ae00f6",
      "resource": {
        "resourceType": "PractitionerRole",
        "id": "98b900a4-855c-468e-9e16-0b42d3ae00f6",
        "meta": {
          "profile": [
            "http://hl7.eu/fhir/base/StructureDefinition/practitionerRole-eu"
          ]
        },
        "text": {
          "status": "generated",
          "div": "<div xmlns=\"http://www.w3.org/1999/xhtml\">Provider Role Id: 98b900a4-855c-468e-9e16-0b42d3ae00f6</div>"
        },
        "organization": {
          "reference": "urn:uuid:4cba50e5-713e-446e-b402-fff956faa1f2"
        }
      }
    },
    {
      "fullUrl": "urn:uuid:4cba50e5-713e-446e-b402-fff956faa1f2",
      "resource": {
        "resourceType": "Organization",
        "id": "4cba50e5-713e-446e-b402-fff956faa1f2",
        "meta": {
          "profile": [
            "http://hl7.eu/fhir/base/StructureDefinition/organization-eu"
          ]
        },
        "identifier": [
          {
            "assigner": {
              "display": "HL7 Europe"
            },
            "system": "urn:oid:2.16.840.1.113883.2.51.999",
            "value": "391cd761-1827-486b-a1bb-3db427711e4c"
          }
        ],
        "address": [
          {
            "city": "Auxerre",
            "postalCode": "89000",
            "country": "France"
          }
        ],
        "text": {
          "status": "generated",
          "div": "<div xmlns=\"http://www.w3.org/1999/xhtml\">Provider Organization: Thiriot Didier (Cardiologie)</div>"
        },
        "name": "Thiriot Didier (Cardiologie)"
      }
    },
    {
      "fullUrl": "urn:uuid:63dcc995-4ceb-4c1e-b164-8f24122b5777",
      "resource": {
        "resourceType": "Specimen",
        "id": "63dcc995-4ceb-4c1e-b164-8f24122b5777",
        "meta": {
          "profile": [
            "http://hl7.eu/fhir/laboratory/StructureDefinition/Specimen-eu-lab"
          ]
        },
        "collection": {
          "collectedDateTime": "2019-04-12"
        },
        "text": {
          "status": "generated",
          "div": "<div xmlns=\"http://www.w3.org/1999/xhtml\"><table class=\"hl7__eu__lab__report\"><tr><th>Specimen</th><th>Collection Date</th></tr><tr><td>Acellular blood (serum or plasma) specimen</td><td><span class=\"nb\">12-Apr-2019</span></td></tr></table></div>"
        },
        "type": {
          "coding": [
            {
              "code": "122592007",
              "system": "http://snomed.info/sct",
              "display": "Acellular blood (serum or plasma) specimen"
            }
          ]
        }
      }
    },
    {
      "fullUrl": "urn:uuid:99430c17-7bd9-45f2-bb7b-7fd47fe83270",
      "resource": {
        "resourceType": "Specimen",
        "id": "99430c17-7bd9-45f2-bb7b-7fd47fe83270",
        "meta": {
          "profile": [
            "http://hl7.eu/fhir/laboratory/StructureDefinition/Specimen-eu-lab"
          ]
        },
        "collection": {
          "collectedDateTime": "2019-04-12"
        },
        "text": {
          "status": "generated",
          "div": "<div xmlns=\"http://www.w3.org/1999/xhtml\"><table class=\"hl7__eu__lab__report\"><tr><th>Specimen</th><th>Collection Date</th></tr><tr><td>Urine specimen</td><td><span class=\"nb\">12-Apr-2019</span></td></tr></table></div>"
        },
        "type": {
          "coding": [
            {
              "code": "122575003",
              "system": "http://snomed.info/sct",
              "display": "Urine specimen"
            }
          ]
        }
      }
    },
    {
      "fullUrl": "urn:uuid:eef1ea02-f1cf-45bc-9c67-c5a6e82c9078",
      "resource": {
        "resourceType": "Specimen",
        "id": "eef1ea02-f1cf-45bc-9c67-c5a6e82c9078",
        "meta": {
          "profile": [
            "http://hl7.eu/fhir/laboratory/StructureDefinition/Specimen-eu-lab"
          ]
        },
        "collection": {
          "collectedDateTime": "2019-04-12"
        },
        "text": {
          "status": "generated",
          "div": "<div xmlns=\"http://www.w3.org/1999/xhtml\"><table class=\"hl7__eu__lab__report\"><tr><th>Specimen</th><th>Collection Date</th></tr><tr><td>Whole blood specimen (specimen)</td><td><span class=\"nb\">12-Apr-2019</span></td></tr></table></div>"
        },
        "type": {
          "coding": [
            {
              "code": "258580003",
              "system": "http://snomed.info/sct",
              "display": "Whole blood specimen (specimen)"
            }
          ]
        }
      }
    },
    {
      "fullUrl": "urn:uuid:05bc1003-1ff6-47a7-8c17-4b5f8e49b797",
      "resource": {
        "resourceType": "Observation",
        "id": "05bc1003-1ff6-47a7-8c17-4b5f8e49b797",
        "meta": {
          "profile": [
            "http://hl7.eu/fhir/laboratory/StructureDefinition/Observation-resultslab-eu-lab"
          ]
        },
        "performer": [
          {
            "display": "The Central European Lab"
          }
        ],
        "category": [
          {
            "coding": [
              {
                "system": "http://terminology.hl7.org/CodeSystem/observation-category",
                "code": "laboratory"
              }
            ]
          }
        ],
        "code": {
          "coding": [
            {
              "code": "2345-7",
              "system": "http://loinc.org",
              "display": "Glucose [Mass/volume] in Serum or Plasma"
            }
          ],
          "text": "Glucose [Mass/volume] in Serum or Plasma"
        },
        "valueQuantity": {
          "system": "http://unitsofmeasure.org",
          "value": 69,
          "unit": "mg/dL",
          "code": "mg/dL"
        },
        "referenceRange": [
          {
            "low": {
              "value": 70,
              "code": "mg/dL",
              "system": "http://unitsofmeasure.org"
            }
          },
          {
            "high": {
              "value": 140,
              "code": "mg/dL",
              "system": "http://unitsofmeasure.org"
            }
          }
        ],
        "interpretation": [
          {
            "coding": [
              {
                "code": "L",
                "system": "http://terminology.hl7.org/CodeSystem/v3-ObservationInterpretation",
                "display": "Low"
              }
            ]
          }
        ],
        "text": {
          "status": "generated",
          "div": "<div xmlns=\"http://www.w3.org/1999/xhtml\"><table class=\"hl7__eu__lab__report\"><tr><th>Test</th><th>12-Apr-2019</th><th>Reference&#xA0;Range</th><th>Unit</th></tr><tr><td>Glucose [Mass/volume] in Serum or Plasma</td><td>69.0</td><td>70 - 140</td><td>L</td><td>mg/dL</td></tr></table></div>"
        },
        "status": "final",
        "subject": {
          "reference": "urn:uuid:0cbab716-2822-4b8c-a6d8-6d0a060adb8e",
          "display": "Victor Lagarde"
        },
        "effectiveDateTime": "2019-04-12T04:48:18Z",
        "specimen": {
          "reference": "urn:uuid:63dcc995-4ceb-4c1e-b164-8f24122b5777"
        }
      }
    },
    {
      "fullUrl": "urn:uuid:ac9a8a41-15ba-492f-ac1d-f2b4dc43347b",
      "resource": {
        "resourceType": "Observation",
        "id": "ac9a8a41-15ba-492f-ac1d-f2b4dc43347b",
        "meta": {
          "profile": [
            "http://hl7.eu/fhir/laboratory/StructureDefinition/Observation-resultslab-eu-lab"
          ]
        },
        "performer": [
          {
            "display": "The Central European Lab"
          }
        ],
        "category": [
          {
            "coding": [
              {
                "system": "http://terminology.hl7.org/CodeSystem/observation-category",
                "code": "laboratory"
              }
            ]
          }
        ],
        "code": {
          "coding": [
            {
              "code": "3094-0",
              "system": "http://loinc.org",
              "display": "Urea nitrogen [Mass/volume] in Serum or Plasma"
            }
          ],
          "text": "Urea nitrogen [Mass/volume] in Serum or Plasma"
        },
        "valueQuantity": {
          "system": "http://unitsofmeasure.org",
          "value": 13.6,
          "unit": "mg/dL",
          "code": "mg/dL"
        },
        "referenceRange": [
          {
            "low": {
              "value": 7,
              "code": "mg/dL",
              "system": "http://unitsofmeasure.org"
            }
          },
          {
            "high": {
              "value": 20,
              "code": "mg/dL",
              "system": "http://unitsofmeasure.org"
            }
          }
        ],
        "text": {
          "status": "generated",
          "div": "<div xmlns=\"http://www.w3.org/1999/xhtml\"><table class=\"hl7__eu__lab__report\"><tr><th>Test</th><th>12-Apr-2019</th><th>Reference&#xA0;Range</th><th>Unit</th></tr><tr><td>Urea nitrogen [Mass/volume] in Serum or Plasma</td><td>13.6</td><td>7 - 20</td><td></td><td>mg/dL</td></tr></table></div>"
        },
        "status": "final",
        "subject": {
          "reference": "urn:uuid:0cbab716-2822-4b8c-a6d8-6d0a060adb8e",
          "display": "Victor Lagarde"
        },
        "effectiveDateTime": "2019-04-12T04:48:18Z",
        "specimen": {
          "reference": "urn:uuid:63dcc995-4ceb-4c1e-b164-8f24122b5777"
        }
      }
    },
    {
      "fullUrl": "urn:uuid:cc9c9977-5208-41e6-a0c7-9dd4eeca2fe5",
      "resource": {
        "resourceType": "Observation",
        "id": "cc9c9977-5208-41e6-a0c7-9dd4eeca2fe5",
        "meta": {
          "profile": [
            "http://hl7.eu/fhir/laboratory/StructureDefinition/Observation-resultslab-eu-lab"
          ]
        },
        "performer": [
          {
            "display": "The Central European Lab"
          }
        ],
        "category": [
          {
            "coding": [
              {
                "system": "http://terminology.hl7.org/CodeSystem/observation-category",
                "code": "laboratory"
              }
            ]
          }
        ],
        "code": {
          "coding": [
            {
              "code": "2160-0",
              "system": "http://loinc.org",
              "display": "Creatinine [Mass/volume] in Serum or Plasma"
            }
          ],
          "text": "Creatinine [Mass/volume] in Serum or Plasma"
        },
        "valueQuantity": {
          "system": "http://unitsofmeasure.org",
          "value": 2,
          "unit": "mg/dL",
          "code": "mg/dL"
        },
        "referenceRange": [
          {
            "low": {
              "value": 0.9,
              "code": "mg/dL",
              "system": "http://unitsofmeasure.org"
            }
          },
          {
            "high": {
              "value": 1.3,
              "code": "mg/dL",
              "system": "http://unitsofmeasure.org"
            }
          }
        ],
        "interpretation": [
          {
            "coding": [
              {
                "code": "H",
                "system": "http://terminology.hl7.org/CodeSystem/v3-ObservationInterpretation",
                "display": "High"
              }
            ]
          }
        ],
        "text": {
          "status": "generated",
          "div": "<div xmlns=\"http://www.w3.org/1999/xhtml\"><table class=\"hl7__eu__lab__report\"><tr><th>Test</th><th>12-Apr-2019</th><th>Reference&#xA0;Range</th><th>Unit</th></tr><tr><td>Creatinine [Mass/volume] in Serum or Plasma</td><td>2.0</td><td>0.9 - 1.3</td><td>H</td><td>mg/dL</td></tr></table></div>"
        },
        "status": "final",
        "subject": {
          "reference": "urn:uuid:0cbab716-2822-4b8c-a6d8-6d0a060adb8e",
          "display": "Victor Lagarde"
        },
        "effectiveDateTime": "2019-04-12T04:48:18Z",
        "specimen": {
          "reference": "urn:uuid:63dcc995-4ceb-4c1e-b164-8f24122b5777"
        }
      }
    },
    {
      "fullUrl": "urn:uuid:2c628688-2594-4979-ab95-9d75b77bbaab",
      "resource": {
        "resourceType": "Observation",
        "id": "2c628688-2594-4979-ab95-9d75b77bbaab",
        "meta": {
          "profile": [
            "http://hl7.eu/fhir/laboratory/StructureDefinition/Observation-resultslab-eu-lab"
          ]
        },
        "performer": [
          {
            "display": "The Central European Lab"
          }
        ],
        "category": [
          {
            "coding": [
              {
                "system": "http://terminology.hl7.org/CodeSystem/observation-category",
                "code": "laboratory"
              }
            ]
          }
        ],
        "code": {
          "coding": [
            {
              "code": "17861-6",
              "system": "http://loinc.org",
              "display": "Calcium [Mass/volume] in Serum or Plasma"
            }
          ],
          "text": "Calcium [Mass/volume] in Serum or Plasma"
        },
        "valueQuantity": {
          "system": "http://unitsofmeasure.org",
          "value": 8.5,
          "unit": "mg/dL",
          "code": "mg/dL"
        },
        "referenceRange": [
          {
            "low": {
              "value": 8.5,
              "code": "mg/dL",
              "system": "http://unitsofmeasure.org"
            }
          },
          {
            "high": {
              "value": 10.5,
              "code": "mg/dL",
              "system": "http://unitsofmeasure.org"
            }
          }
        ],
        "text": {
          "status": "generated",
          "div": "<div xmlns=\"http://www.w3.org/1999/xhtml\"><table class=\"hl7__eu__lab__report\"><tr><th>Test</th><th>12-Apr-2019</th><th>Reference&#xA0;Range</th><th>Unit</th></tr><tr><td>Calcium [Mass/volume] in Serum or Plasma</td><td>8.5</td><td>8.5 - 10.5</td><td></td><td>mg/dL</td></tr></table></div>"
        },
        "status": "final",
        "subject": {
          "reference": "urn:uuid:0cbab716-2822-4b8c-a6d8-6d0a060adb8e",
          "display": "Victor Lagarde"
        },
        "effectiveDateTime": "2019-04-12T04:48:18Z",
        "specimen": {
          "reference": "urn:uuid:63dcc995-4ceb-4c1e-b164-8f24122b5777"
        }
      }
    },
    {
      "fullUrl": "urn:uuid:70e6e2cd-f60f-4a2e-ab2b-832cdea32c37",
      "resource": {
        "resourceType": "Observation",
        "id": "70e6e2cd-f60f-4a2e-ab2b-832cdea32c37",
        "meta": {
          "profile": [
            "http://hl7.eu/fhir/laboratory/StructureDefinition/Observation-resultslab-eu-lab"
          ]
        },
        "performer": [
          {
            "display": "The Central European Lab"
          }
        ],
        "category": [
          {
            "coding": [
              {
                "system": "http://terminology.hl7.org/CodeSystem/observation-category",
                "code": "laboratory"
              }
            ]
          }
        ],
        "code": {
          "coding": [
            {
              "code": "2951-2",
              "system": "http://loinc.org",
              "display": "Sodium [Moles/volume] in Serum or Plasma"
            }
          ],
          "text": "Sodium [Moles/volume] in Serum or Plasma"
        },
        "valueQuantity": {
          "system": "http://unitsofmeasure.org",
          "value": 140.6,
          "unit": "mmol/L",
          "code": "mmol/L"
        },
        "referenceRange": [
          {
            "low": {
              "value": 135,
              "code": "mmol/L",
              "system": "http://unitsofmeasure.org"
            }
          },
          {
            "high": {
              "value": 145,
              "code": "mmol/L",
              "system": "http://unitsofmeasure.org"
            }
          }
        ],
        "text": {
          "status": "generated",
          "div": "<div xmlns=\"http://www.w3.org/1999/xhtml\"><table class=\"hl7__eu__lab__report\"><tr><th>Test</th><th>12-Apr-2019</th><th>Reference&#xA0;Range</th><th>Unit</th></tr><tr><td>Sodium [Moles/volume] in Serum or Plasma</td><td>140.6</td><td>135 - 145</td><td></td><td>mmol/L</td></tr></table></div>"
        },
        "status": "final",
        "subject": {
          "reference": "urn:uuid:0cbab716-2822-4b8c-a6d8-6d0a060adb8e",
          "display": "Victor Lagarde"
        },
        "effectiveDateTime": "2019-04-12T04:48:18Z",
        "specimen": {
          "reference": "urn:uuid:63dcc995-4ceb-4c1e-b164-8f24122b5777"
        }
      }
    },
    {
      "fullUrl": "urn:uuid:304ab847-95d2-41d6-ab1f-953c309da031",
      "resource": {
        "resourceType": "Observation",
        "id": "304ab847-95d2-41d6-ab1f-953c309da031",
        "meta": {
          "profile": [
            "http://hl7.eu/fhir/laboratory/StructureDefinition/Observation-resultslab-eu-lab"
          ]
        },
        "performer": [
          {
            "display": "The Central European Lab"
          }
        ],
        "category": [
          {
            "coding": [
              {
                "system": "http://terminology.hl7.org/CodeSystem/observation-category",
                "code": "laboratory"
              }
            ]
          }
        ],
        "code": {
          "coding": [
            {
              "code": "2823-3",
              "system": "http://loinc.org",
              "display": "Potassium [Moles/volume] in Serum or Plasma"
            }
          ],
          "text": "Potassium [Moles/volume] in Serum or Plasma"
        },
        "valueQuantity": {
          "system": "http://unitsofmeasure.org",
          "value": 4.6,
          "unit": "mmol/L",
          "code": "mmol/L"
        },
        "referenceRange": [
          {
            "low": {
              "value": 3.5,
              "code": "mmol/L",
              "system": "http://unitsofmeasure.org"
            }
          },
          {
            "high": {
              "value": 5.3,
              "code": "mmol/L",
              "system": "http://unitsofmeasure.org"
            }
          }
        ],
        "text": {
          "status": "generated",
          "div": "<div xmlns=\"http://www.w3.org/1999/xhtml\"><table class=\"hl7__eu__lab__report\"><tr><th>Test</th><th>12-Apr-2019</th><th>Reference&#xA0;Range</th><th>Unit</th></tr><tr><td>Potassium [Moles/volume] in Serum or Plasma</td><td>4.6</td><td>3.5 - 5.3</td><td></td><td>mmol/L</td></tr></table></div>"
        },
        "status": "final",
        "subject": {
          "reference": "urn:uuid:0cbab716-2822-4b8c-a6d8-6d0a060adb8e",
          "display": "Victor Lagarde"
        },
        "effectiveDateTime": "2019-04-12T04:48:18Z",
        "specimen": {
          "reference": "urn:uuid:63dcc995-4ceb-4c1e-b164-8f24122b5777"
        }
      }
    },
    {
      "fullUrl": "urn:uuid:3780dd28-2c5d-4f73-acca-ee29f7d3ed5e",
      "resource": {
        "resourceType": "Observation",
        "id": "3780dd28-2c5d-4f73-acca-ee29f7d3ed5e",
        "meta": {
          "profile": [
            "http://hl7.eu/fhir/laboratory/StructureDefinition/Observation-resultslab-eu-lab"
          ]
        },
        "performer": [
          {
            "display": "The Central European Lab"
          }
        ],
        "category": [
          {
            "coding": [
              {
                "system": "http://terminology.hl7.org/CodeSystem/observation-category",
                "code": "laboratory"
              }
            ]
          }
        ],
        "code": {
          "coding": [
            {
              "code": "2075-0",
              "system": "http://loinc.org",
              "display": "Chloride [Moles/volume] in Serum or Plasma"
            }
          ],
          "text": "Chloride [Moles/volume] in Serum or Plasma"
        },
        "valueQuantity": {
          "system": "http://unitsofmeasure.org",
          "value": 107.3,
          "unit": "mmol/L",
          "code": "mmol/L"
        },
        "referenceRange": [
          {
            "low": {
              "value": 98,
              "code": "mmol/L",
              "system": "http://unitsofmeasure.org"
            }
          },
          {
            "high": {
              "value": 107,
              "code": "mmol/L",
              "system": "http://unitsofmeasure.org"
            }
          }
        ],
        "interpretation": [
          {
            "coding": [
              {
                "code": "H",
                "system": "http://terminology.hl7.org/CodeSystem/v3-ObservationInterpretation",
                "display": "High"
              }
            ]
          }
        ],
        "text": {
          "status": "generated",
          "div": "<div xmlns=\"http://www.w3.org/1999/xhtml\"><table class=\"hl7__eu__lab__report\"><tr><th>Test</th><th>12-Apr-2019</th><th>Reference&#xA0;Range</th><th>Unit</th></tr><tr><td>Chloride [Moles/volume] in Serum or Plasma</td><td>107.3</td><td>98 - 107</td><td>H</td><td>mmol/L</td></tr></table></div>"
        },
        "status": "final",
        "subject": {
          "reference": "urn:uuid:0cbab716-2822-4b8c-a6d8-6d0a060adb8e",
          "display": "Victor Lagarde"
        },
        "effectiveDateTime": "2019-04-12T04:48:18Z",
        "specimen": {
          "reference": "urn:uuid:63dcc995-4ceb-4c1e-b164-8f24122b5777"
        }
      }
    },
    {
      "fullUrl": "urn:uuid:5c721df8-f7f3-4587-94f7-894121729591",
      "resource": {
        "resourceType": "Observation",
        "id": "5c721df8-f7f3-4587-94f7-894121729591",
        "meta": {
          "profile": [
            "http://hl7.eu/fhir/laboratory/StructureDefinition/Observation-resultslab-eu-lab"
          ]
        },
        "performer": [
          {
            "display": "The Central European Lab"
          }
        ],
        "category": [
          {
            "coding": [
              {
                "system": "http://terminology.hl7.org/CodeSystem/observation-category",
                "code": "laboratory"
              }
            ]
          }
        ],
        "code": {
          "coding": [
            {
              "code": "2028-9",
              "system": "http://loinc.org",
              "display": "Carbon dioxide, total [Moles/volume] in Serum or Plasma"
            }
          ],
          "text": "Carbon dioxide, total [Moles/volume] in Serum or Plasma"
        },
        "valueQuantity": {
          "system": "http://unitsofmeasure.org",
          "value": 25.8,
          "unit": "mmol/L",
          "code": "mmol/L"
        },
        "referenceRange": [
          {
            "low": {
              "value": 22,
              "code": "mmol/L",
              "system": "http://unitsofmeasure.org"
            }
          },
          {
            "high": {
              "value": 33,
              "code": "mmol/L",
              "system": "http://unitsofmeasure.org"
            }
          }
        ],
        "text": {
          "status": "generated",
          "div": "<div xmlns=\"http://www.w3.org/1999/xhtml\"><table class=\"hl7__eu__lab__report\"><tr><th>Test</th><th>12-Apr-2019</th><th>Reference&#xA0;Range</th><th>Unit</th></tr><tr><td>Carbon dioxide, total [Moles/volume] in Serum or Plasma</td><td>25.8</td><td>22 - 33</td><td></td><td>mmol/L</td></tr></table></div>"
        },
        "status": "final",
        "subject": {
          "reference": "urn:uuid:0cbab716-2822-4b8c-a6d8-6d0a060adb8e",
          "display": "Victor Lagarde"
        },
        "effectiveDateTime": "2019-04-12T04:48:18Z",
        "specimen": {
          "reference": "urn:uuid:63dcc995-4ceb-4c1e-b164-8f24122b5777"
        }
      }
    },
    {
      "fullUrl": "urn:uuid:c5f8d614-c8fd-498d-b3f0-f940a2fce900",
      "resource": {
        "resourceType": "Observation",
        "id": "c5f8d614-c8fd-498d-b3f0-f940a2fce900",
        "meta": {
          "profile": [
            "http://hl7.eu/fhir/laboratory/StructureDefinition/Observation-resultslab-eu-lab"
          ]
        },
        "performer": [
          {
            "display": "The Central European Lab"
          }
        ],
        "category": [
          {
            "coding": [
              {
                "system": "http://terminology.hl7.org/CodeSystem/observation-category",
                "code": "laboratory"
              }
            ]
          }
        ],
        "code": {
          "coding": [
            {
              "code": "5767-9",
              "system": "http://loinc.org",
              "display": "Appearance of Urine"
            }
          ],
          "text": "Appearance of Urine"
        },
        "text": {
          "status": "generated",
          "div": "<div xmlns=\"http://www.w3.org/1999/xhtml\"><table class=\"hl7__eu__lab__report\"><tr><th>Test</th><th>12-Apr-2019</th><th>Reference&#xA0;Range</th><th>Unit</th></tr><tr><td>Appearance of Urine</td></tr></table></div>"
        },
        "status": "final",
        "subject": {
          "reference": "urn:uuid:0cbab716-2822-4b8c-a6d8-6d0a060adb8e",
          "display": "Victor Lagarde"
        },
        "effectiveDateTime": "2019-04-12T04:48:18Z",
        "specimen": {
          "reference": "urn:uuid:99430c17-7bd9-45f2-bb7b-7fd47fe83270"
        }
      }
    },
    {
      "fullUrl": "urn:uuid:3ec3687d-f2a0-41c5-b3b0-d46d0fce8cba",
      "resource": {
        "resourceType": "Observation",
        "id": "3ec3687d-f2a0-41c5-b3b0-d46d0fce8cba",
        "meta": {
          "profile": [
            "http://hl7.eu/fhir/laboratory/StructureDefinition/Observation-resultslab-eu-lab"
          ]
        },
        "performer": [
          {
            "display": "The Central European Lab"
          }
        ],
        "category": [
          {
            "coding": [
              {
                "system": "http://terminology.hl7.org/CodeSystem/observation-category",
                "code": "laboratory"
              }
            ]
          }
        ],
        "code": {
          "coding": [
            {
              "code": "34533-0",
              "system": "http://loinc.org",
              "display": "Odor of Urine"
            }
          ],
          "text": "Odor of Urine"
        },
        "text": {
          "status": "generated",
          "div": "<div xmlns=\"http://www.w3.org/1999/xhtml\"><table class=\"hl7__eu__lab__report\"><tr><th>Test</th><th>12-Apr-2019</th><th>Reference&#xA0;Range</th><th>Unit</th></tr><tr><td>Odor of Urine</td></tr></table></div>"
        },
        "status": "final",
        "subject": {
          "reference": "urn:uuid:0cbab716-2822-4b8c-a6d8-6d0a060adb8e",
          "display": "Victor Lagarde"
        },
        "effectiveDateTime": "2019-04-12T04:48:18Z",
        "specimen": {
          "reference": "urn:uuid:99430c17-7bd9-45f2-bb7b-7fd47fe83270"
        }
      }
    },
    {
      "fullUrl": "urn:uuid:1bd24826-3258-4778-8540-e68ce1de2f24",
      "resource": {
        "resourceType": "Observation",
        "id": "1bd24826-3258-4778-8540-e68ce1de2f24",
        "meta": {
          "profile": [
            "http://hl7.eu/fhir/laboratory/StructureDefinition/Observation-resultslab-eu-lab"
          ]
        },
        "performer": [
          {
            "display": "The Central European Lab"
          }
        ],
        "category": [
          {
            "coding": [
              {
                "system": "http://terminology.hl7.org/CodeSystem/observation-category",
                "code": "laboratory"
              }
            ]
          }
        ],
        "code": {
          "coding": [
            {
              "code": "32167-9",
              "system": "http://loinc.org",
              "display": "Clarity of Urine"
            }
          ],
          "text": "Clarity of Urine"
        },
        "text": {
          "status": "generated",
          "div": "<div xmlns=\"http://www.w3.org/1999/xhtml\"><table class=\"hl7__eu__lab__report\"><tr><th>Test</th><th>12-Apr-2019</th><th>Reference&#xA0;Range</th><th>Unit</th></tr><tr><td>Clarity of Urine</td></tr></table></div>"
        },
        "status": "final",
        "subject": {
          "reference": "urn:uuid:0cbab716-2822-4b8c-a6d8-6d0a060adb8e",
          "display": "Victor Lagarde"
        },
        "effectiveDateTime": "2019-04-12T04:48:18Z",
        "specimen": {
          "reference": "urn:uuid:99430c17-7bd9-45f2-bb7b-7fd47fe83270"
        }
      }
    },
    {
      "fullUrl": "urn:uuid:3d728308-4bbe-4fb5-96f9-6d6c32d0c48d",
      "resource": {
        "resourceType": "Observation",
        "id": "3d728308-4bbe-4fb5-96f9-6d6c32d0c48d",
        "meta": {
          "profile": [
            "http://hl7.eu/fhir/laboratory/StructureDefinition/Observation-resultslab-eu-lab"
          ]
        },
        "performer": [
          {
            "display": "The Central European Lab"
          }
        ],
        "category": [
          {
            "coding": [
              {
                "system": "http://terminology.hl7.org/CodeSystem/observation-category",
                "code": "laboratory"
              }
            ]
          }
        ],
        "code": {
          "coding": [
            {
              "code": "5778-6",
              "system": "http://loinc.org",
              "display": "Color of Urine"
            }
          ],
          "text": "Color of Urine"
        },
        "text": {
          "status": "generated",
          "div": "<div xmlns=\"http://www.w3.org/1999/xhtml\"><table class=\"hl7__eu__lab__report\"><tr><th>Test</th><th>12-Apr-2019</th><th>Reference&#xA0;Range</th><th>Unit</th></tr><tr><td>Color of Urine</td></tr></table></div>"
        },
        "status": "final",
        "subject": {
          "reference": "urn:uuid:0cbab716-2822-4b8c-a6d8-6d0a060adb8e",
          "display": "Victor Lagarde"
        },
        "effectiveDateTime": "2019-04-12T04:48:18Z",
        "specimen": {
          "reference": "urn:uuid:99430c17-7bd9-45f2-bb7b-7fd47fe83270"
        }
      }
    },
    {
      "fullUrl": "urn:uuid:ef920220-73c5-447d-869b-5b0a666388a4",
      "resource": {
        "resourceType": "Observation",
        "id": "ef920220-73c5-447d-869b-5b0a666388a4",
        "meta": {
          "profile": [
            "http://hl7.eu/fhir/laboratory/StructureDefinition/Observation-resultslab-eu-lab"
          ]
        },
        "performer": [
          {
            "display": "The Central European Lab"
          }
        ],
        "category": [
          {
            "coding": [
              {
                "system": "http://terminology.hl7.org/CodeSystem/observation-category",
                "code": "laboratory"
              }
            ]
          }
        ],
        "code": {
          "coding": [
            {
              "code": "5792-7",
              "system": "http://loinc.org",
              "display": "Glucose [Mass/volume] in Urine by Test strip"
            }
          ],
          "text": "Glucose [Mass/volume] in Urine by Test strip"
        },
        "valueQuantity": {
          "system": "http://unitsofmeasure.org",
          "value": 1.3,
          "unit": "mg/dL",
          "code": "mg/dL"
        },
        "referenceRange": [
          {
            "low": {
              "value": 0,
              "code": "mg/dL",
              "system": "http://unitsofmeasure.org"
            }
          },
          {
            "high": {
              "value": 0.8,
              "code": "mg/dL",
              "system": "http://unitsofmeasure.org"
            }
          }
        ],
        "interpretation": [
          {
            "coding": [
              {
                "code": "H",
                "system": "http://terminology.hl7.org/CodeSystem/v3-ObservationInterpretation",
                "display": "High"
              }
            ]
          }
        ],
        "text": {
          "status": "generated",
          "div": "<div xmlns=\"http://www.w3.org/1999/xhtml\"><table class=\"hl7__eu__lab__report\"><tr><th>Test</th><th>12-Apr-2019</th><th>Reference&#xA0;Range</th><th>Unit</th></tr><tr><td>Glucose [Mass/volume] in Urine by Test strip</td><td>1.3</td><td>0 - 0.8</td><td>H</td><td>mg/dL</td></tr></table></div>"
        },
        "status": "final",
        "subject": {
          "reference": "urn:uuid:0cbab716-2822-4b8c-a6d8-6d0a060adb8e",
          "display": "Victor Lagarde"
        },
        "effectiveDateTime": "2019-04-12T04:48:18Z",
        "specimen": {
          "reference": "urn:uuid:99430c17-7bd9-45f2-bb7b-7fd47fe83270"
        }
      }
    },
    {
      "fullUrl": "urn:uuid:a668c6e9-6fef-41ca-81c1-70ab30df2ffa",
      "resource": {
        "resourceType": "Observation",
        "id": "a668c6e9-6fef-41ca-81c1-70ab30df2ffa",
        "meta": {
          "profile": [
            "http://hl7.eu/fhir/laboratory/StructureDefinition/Observation-resultslab-eu-lab"
          ]
        },
        "performer": [
          {
            "display": "The Central European Lab"
          }
        ],
        "category": [
          {
            "coding": [
              {
                "system": "http://terminology.hl7.org/CodeSystem/observation-category",
                "code": "laboratory"
              }
            ]
          }
        ],
        "code": {
          "coding": [
            {
              "code": "25428-4",
              "system": "http://loinc.org",
              "display": "Glucose [Presence] in Urine by Test strip"
            }
          ],
          "text": "Glucose [Presence] in Urine by Test strip"
        },
        "text": {
          "status": "generated",
          "div": "<div xmlns=\"http://www.w3.org/1999/xhtml\"><table class=\"hl7__eu__lab__report\"><tr><th>Test</th><th>12-Apr-2019</th><th>Reference&#xA0;Range</th><th>Unit</th></tr><tr><td>Glucose [Presence] in Urine by Test strip</td></tr></table></div>"
        },
        "status": "final",
        "subject": {
          "reference": "urn:uuid:0cbab716-2822-4b8c-a6d8-6d0a060adb8e",
          "display": "Victor Lagarde"
        },
        "effectiveDateTime": "2019-04-12T04:48:18Z",
        "specimen": {
          "reference": "urn:uuid:99430c17-7bd9-45f2-bb7b-7fd47fe83270"
        }
      }
    },
    {
      "fullUrl": "urn:uuid:224ec4ad-8884-42b5-b421-50bdc9206690",
      "resource": {
        "resourceType": "Observation",
        "id": "224ec4ad-8884-42b5-b421-50bdc9206690",
        "meta": {
          "profile": [
            "http://hl7.eu/fhir/laboratory/StructureDefinition/Observation-resultslab-eu-lab"
          ]
        },
        "performer": [
          {
            "display": "The Central European Lab"
          }
        ],
        "category": [
          {
            "coding": [
              {
                "system": "http://terminology.hl7.org/CodeSystem/observation-category",
                "code": "laboratory"
              }
            ]
          }
        ],
        "code": {
          "coding": [
            {
              "code": "20505-4",
              "system": "http://loinc.org",
              "display": "Bilirubin.total [Mass/volume] in Urine by Test strip"
            }
          ],
          "text": "Bilirubin.total [Mass/volume] in Urine by Test strip"
        },
        "valueQuantity": {
          "system": "http://unitsofmeasure.org",
          "value": 0.9,
          "unit": "mg/dL",
          "code": "mg/dL"
        },
        "referenceRange": [
          {
            "low": {
              "value": 0,
              "code": "mg/dL",
              "system": "http://unitsofmeasure.org"
            }
          },
          {
            "high": {
              "value": 1.9,
              "code": "mg/dL",
              "system": "http://unitsofmeasure.org"
            }
          }
        ],
        "text": {
          "status": "generated",
          "div": "<div xmlns=\"http://www.w3.org/1999/xhtml\"><table class=\"hl7__eu__lab__report\"><tr><th>Test</th><th>12-Apr-2019</th><th>Reference&#xA0;Range</th><th>Unit</th></tr><tr><td>Bilirubin.total [Mass/volume] in Urine by Test strip</td><td>0.9</td><td>0 - 1.9</td><td></td><td>mg/dL</td></tr></table></div>"
        },
        "status": "final",
        "subject": {
          "reference": "urn:uuid:0cbab716-2822-4b8c-a6d8-6d0a060adb8e",
          "display": "Victor Lagarde"
        },
        "effectiveDateTime": "2019-04-12T04:48:18Z",
        "specimen": {
          "reference": "urn:uuid:99430c17-7bd9-45f2-bb7b-7fd47fe83270"
        }
      }
    },
    {
      "fullUrl": "urn:uuid:9d041457-4b4c-45d0-90f6-f5235542ec66",
      "resource": {
        "resourceType": "Observation",
        "id": "9d041457-4b4c-45d0-90f6-f5235542ec66",
        "meta": {
          "profile": [
            "http://hl7.eu/fhir/laboratory/StructureDefinition/Observation-resultslab-eu-lab"
          ]
        },
        "performer": [
          {
            "display": "The Central European Lab"
          }
        ],
        "category": [
          {
            "coding": [
              {
                "system": "http://terminology.hl7.org/CodeSystem/observation-category",
                "code": "laboratory"
              }
            ]
          }
        ],
        "code": {
          "coding": [
            {
              "code": "5770-3",
              "system": "http://loinc.org",
              "display": "Bilirubin.total [Presence] in Urine by Test strip"
            }
          ],
          "text": "Bilirubin.total [Presence] in Urine by Test strip"
        },
        "text": {
          "status": "generated",
          "div": "<div xmlns=\"http://www.w3.org/1999/xhtml\"><table class=\"hl7__eu__lab__report\"><tr><th>Test</th><th>12-Apr-2019</th><th>Reference&#xA0;Range</th><th>Unit</th></tr><tr><td>Bilirubin.total [Presence] in Urine by Test strip</td></tr></table></div>"
        },
        "status": "final",
        "subject": {
          "reference": "urn:uuid:0cbab716-2822-4b8c-a6d8-6d0a060adb8e",
          "display": "Victor Lagarde"
        },
        "effectiveDateTime": "2019-04-12T04:48:18Z",
        "specimen": {
          "reference": "urn:uuid:99430c17-7bd9-45f2-bb7b-7fd47fe83270"
        }
      }
    },
    {
      "fullUrl": "urn:uuid:d370878d-f51f-4ec7-ba4a-02e794fee8a7",
      "resource": {
        "resourceType": "Observation",
        "id": "d370878d-f51f-4ec7-ba4a-02e794fee8a7",
        "meta": {
          "profile": [
            "http://hl7.eu/fhir/laboratory/StructureDefinition/Observation-resultslab-eu-lab"
          ]
        },
        "performer": [
          {
            "display": "The Central European Lab"
          }
        ],
        "category": [
          {
            "coding": [
              {
                "system": "http://terminology.hl7.org/CodeSystem/observation-category",
                "code": "laboratory"
              }
            ]
          }
        ],
        "code": {
          "coding": [
            {
              "code": "5797-6",
              "system": "http://loinc.org",
              "display": "Ketones [Mass/volume] in Urine by Test strip"
            }
          ],
          "text": "Ketones [Mass/volume] in Urine by Test strip"
        },
        "valueQuantity": {
          "system": "http://unitsofmeasure.org",
          "value": 0.1,
          "unit": "mg/dL",
          "code": "mg/dL"
        },
        "referenceRange": [
          {
            "low": {
              "value": 0,
              "code": "mg/dL",
              "system": "http://unitsofmeasure.org"
            }
          },
          {
            "high": {
              "value": 3,
              "code": "mg/dL",
              "system": "http://unitsofmeasure.org"
            }
          }
        ],
        "text": {
          "status": "generated",
          "div": "<div xmlns=\"http://www.w3.org/1999/xhtml\"><table class=\"hl7__eu__lab__report\"><tr><th>Test</th><th>12-Apr-2019</th><th>Reference&#xA0;Range</th><th>Unit</th></tr><tr><td>Ketones [Mass/volume] in Urine by Test strip</td><td>0.1</td><td>0 - 3</td><td></td><td>mg/dL</td></tr></table></div>"
        },
        "status": "final",
        "subject": {
          "reference": "urn:uuid:0cbab716-2822-4b8c-a6d8-6d0a060adb8e",
          "display": "Victor Lagarde"
        },
        "effectiveDateTime": "2019-04-12T04:48:18Z",
        "specimen": {
          "reference": "urn:uuid:99430c17-7bd9-45f2-bb7b-7fd47fe83270"
        }
      }
    },
    {
      "fullUrl": "urn:uuid:4b55a941-9ecb-4696-b9ab-e148161403cb",
      "resource": {
        "resourceType": "Observation",
        "id": "4b55a941-9ecb-4696-b9ab-e148161403cb",
        "meta": {
          "profile": [
            "http://hl7.eu/fhir/laboratory/StructureDefinition/Observation-resultslab-eu-lab"
          ]
        },
        "performer": [
          {
            "display": "The Central European Lab"
          }
        ],
        "category": [
          {
            "coding": [
              {
                "system": "http://terminology.hl7.org/CodeSystem/observation-category",
                "code": "laboratory"
              }
            ]
          }
        ],
        "code": {
          "coding": [
            {
              "code": "2514-8",
              "system": "http://loinc.org",
              "display": "Ketones [Presence] in Urine by Test strip"
            }
          ],
          "text": "Ketones [Presence] in Urine by Test strip"
        },
        "text": {
          "status": "generated",
          "div": "<div xmlns=\"http://www.w3.org/1999/xhtml\"><table class=\"hl7__eu__lab__report\"><tr><th>Test</th><th>12-Apr-2019</th><th>Reference&#xA0;Range</th><th>Unit</th></tr><tr><td>Ketones [Presence] in Urine by Test strip</td></tr></table></div>"
        },
        "status": "final",
        "subject": {
          "reference": "urn:uuid:0cbab716-2822-4b8c-a6d8-6d0a060adb8e",
          "display": "Victor Lagarde"
        },
        "effectiveDateTime": "2019-04-12T04:48:18Z",
        "specimen": {
          "reference": "urn:uuid:99430c17-7bd9-45f2-bb7b-7fd47fe83270"
        }
      }
    },
    {
      "fullUrl": "urn:uuid:e3a9595e-14aa-4988-b5af-3ccb7e6adab1",
      "resource": {
        "resourceType": "Observation",
        "id": "e3a9595e-14aa-4988-b5af-3ccb7e6adab1",
        "meta": {
          "profile": [
            "http://hl7.eu/fhir/laboratory/StructureDefinition/Observation-resultslab-eu-lab"
          ]
        },
        "performer": [
          {
            "display": "The Central European Lab"
          }
        ],
        "category": [
          {
            "coding": [
              {
                "system": "http://terminology.hl7.org/CodeSystem/observation-category",
                "code": "laboratory"
              }
            ]
          }
        ],
        "code": {
          "coding": [
            {
              "code": "5811-5",
              "system": "http://loinc.org",
              "display": "Specific gravity of Urine by Test strip"
            }
          ],
          "text": "Specific gravity of Urine by Test strip"
        },
        "valueQuantity": {
          "system": "http://unitsofmeasure.org",
          "value": 1,
          "unit": "{nominal}",
          "code": "{nominal}"
        },
        "referenceRange": [
          {
            "low": {
              "value": 1.01,
              "code": "g/mL",
              "system": "http://unitsofmeasure.org"
            }
          },
          {
            "high": {
              "value": 1.03,
              "code": "g/mL",
              "system": "http://unitsofmeasure.org"
            }
          }
        ],
        "interpretation": [
          {
            "coding": [
              {
                "code": "L",
                "system": "http://terminology.hl7.org/CodeSystem/v3-ObservationInterpretation",
                "display": "Low"
              }
            ]
          }
        ],
        "text": {
          "status": "generated",
          "div": "<div xmlns=\"http://www.w3.org/1999/xhtml\"><table class=\"hl7__eu__lab__report\"><tr><th>Test</th><th>12-Apr-2019</th><th>Reference&#xA0;Range</th><th>Unit</th></tr><tr><td>Specific gravity of Urine by Test strip</td><td>1.0</td><td>1.01 - 1.03</td><td>L</td><td>{nominal}</td></tr></table></div>"
        },
        "status": "final",
        "subject": {
          "reference": "urn:uuid:0cbab716-2822-4b8c-a6d8-6d0a060adb8e",
          "display": "Victor Lagarde"
        },
        "effectiveDateTime": "2019-04-12T04:48:18Z",
        "specimen": {
          "reference": "urn:uuid:99430c17-7bd9-45f2-bb7b-7fd47fe83270"
        }
      }
    },
    {
      "fullUrl": "urn:uuid:c3814b18-e88b-41a4-9392-f4ab56905407",
      "resource": {
        "resourceType": "Observation",
        "id": "c3814b18-e88b-41a4-9392-f4ab56905407",
        "meta": {
          "profile": [
            "http://hl7.eu/fhir/laboratory/StructureDefinition/Observation-resultslab-eu-lab"
          ]
        },
        "performer": [
          {
            "display": "The Central European Lab"
          }
        ],
        "category": [
          {
            "coding": [
              {
                "system": "http://terminology.hl7.org/CodeSystem/observation-category",
                "code": "laboratory"
              }
            ]
          }
        ],
        "code": {
          "coding": [
            {
              "code": "5803-2",
              "system": "http://loinc.org",
              "display": "pH of Urine by Test strip"
            }
          ],
          "text": "pH of Urine by Test strip"
        },
        "valueQuantity": {
          "system": "http://unitsofmeasure.org",
          "value": 5.9,
          "unit": "pH",
          "code": "pH"
        },
        "referenceRange": [
          {
            "low": {
              "value": 4.5,
              "code": "pH",
              "system": "http://unitsofmeasure.org"
            }
          },
          {
            "high": {
              "value": 7.5,
              "code": "pH",
              "system": "http://unitsofmeasure.org"
            }
          }
        ],
        "text": {
          "status": "generated",
          "div": "<div xmlns=\"http://www.w3.org/1999/xhtml\"><table class=\"hl7__eu__lab__report\"><tr><th>Test</th><th>12-Apr-2019</th><th>Reference&#xA0;Range</th><th>Unit</th></tr><tr><td>pH of Urine by Test strip</td><td>5.9</td><td>4.5 - 7.5</td><td></td><td>pH</td></tr></table></div>"
        },
        "status": "final",
        "subject": {
          "reference": "urn:uuid:0cbab716-2822-4b8c-a6d8-6d0a060adb8e",
          "display": "Victor Lagarde"
        },
        "effectiveDateTime": "2019-04-12T04:48:18Z",
        "specimen": {
          "reference": "urn:uuid:99430c17-7bd9-45f2-bb7b-7fd47fe83270"
        }
      }
    },
    {
      "fullUrl": "urn:uuid:4dac3a0f-704e-4b5e-9c90-6ce983395251",
      "resource": {
        "resourceType": "Observation",
        "id": "4dac3a0f-704e-4b5e-9c90-6ce983395251",
        "meta": {
          "profile": [
            "http://hl7.eu/fhir/laboratory/StructureDefinition/Observation-resultslab-eu-lab"
          ]
        },
        "performer": [
          {
            "display": "The Central European Lab"
          }
        ],
        "category": [
          {
            "coding": [
              {
                "system": "http://terminology.hl7.org/CodeSystem/observation-category",
                "code": "laboratory"
              }
            ]
          }
        ],
        "code": {
          "coding": [
            {
              "code": "5804-0",
              "system": "http://loinc.org",
              "display": "Protein [Mass/volume] in Urine by Test strip"
            }
          ],
          "text": "Protein [Mass/volume] in Urine by Test strip"
        },
        "valueQuantity": {
          "system": "http://unitsofmeasure.org",
          "value": 211.2,
          "unit": "mg/dL",
          "code": "mg/dL"
        },
        "referenceRange": [
          {
            "low": {
              "value": 0,
              "code": "mg/dL",
              "system": "http://unitsofmeasure.org"
            }
          },
          {
            "high": {
              "value": 149,
              "code": "mg/dL",
              "system": "http://unitsofmeasure.org"
            }
          }
        ],
        "interpretation": [
          {
            "coding": [
              {
                "code": "H",
                "system": "http://terminology.hl7.org/CodeSystem/v3-ObservationInterpretation",
                "display": "High"
              }
            ]
          }
        ],
        "text": {
          "status": "generated",
          "div": "<div xmlns=\"http://www.w3.org/1999/xhtml\"><table class=\"hl7__eu__lab__report\"><tr><th>Test</th><th>12-Apr-2019</th><th>Reference&#xA0;Range</th><th>Unit</th></tr><tr><td>Protein [Mass/volume] in Urine by Test strip</td><td>211.2</td><td>0 - 149</td><td>H</td><td>mg/dL</td></tr></table></div>"
        },
        "status": "final",
        "subject": {
          "reference": "urn:uuid:0cbab716-2822-4b8c-a6d8-6d0a060adb8e",
          "display": "Victor Lagarde"
        },
        "effectiveDateTime": "2019-04-12T04:48:18Z",
        "specimen": {
          "reference": "urn:uuid:99430c17-7bd9-45f2-bb7b-7fd47fe83270"
        }
      }
    },
    {
      "fullUrl": "urn:uuid:c9d2c84e-41ee-440a-80ef-119228a0d71e",
      "resource": {
        "resourceType": "Observation",
        "id": "c9d2c84e-41ee-440a-80ef-119228a0d71e",
        "meta": {
          "profile": [
            "http://hl7.eu/fhir/laboratory/StructureDefinition/Observation-resultslab-eu-lab"
          ]
        },
        "performer": [
          {
            "display": "The Central European Lab"
          }
        ],
        "category": [
          {
            "coding": [
              {
                "system": "http://terminology.hl7.org/CodeSystem/observation-category",
                "code": "laboratory"
              }
            ]
          }
        ],
        "code": {
          "coding": [
            {
              "code": "20454-5",
              "system": "http://loinc.org",
              "display": "Protein [Presence] in Urine by Test strip"
            }
          ],
          "text": "Protein [Presence] in Urine by Test strip"
        },
        "text": {
          "status": "generated",
          "div": "<div xmlns=\"http://www.w3.org/1999/xhtml\"><table class=\"hl7__eu__lab__report\"><tr><th>Test</th><th>12-Apr-2019</th><th>Reference&#xA0;Range</th><th>Unit</th></tr><tr><td>Protein [Presence] in Urine by Test strip</td></tr></table></div>"
        },
        "status": "final",
        "subject": {
          "reference": "urn:uuid:0cbab716-2822-4b8c-a6d8-6d0a060adb8e",
          "display": "Victor Lagarde"
        },
        "effectiveDateTime": "2019-04-12T04:48:18Z",
        "specimen": {
          "reference": "urn:uuid:99430c17-7bd9-45f2-bb7b-7fd47fe83270"
        }
      }
    },
    {
      "fullUrl": "urn:uuid:65430922-b3af-4dad-8048-36c8ad0a3f11",
      "resource": {
        "resourceType": "Observation",
        "id": "65430922-b3af-4dad-8048-36c8ad0a3f11",
        "meta": {
          "profile": [
            "http://hl7.eu/fhir/laboratory/StructureDefinition/Observation-resultslab-eu-lab"
          ]
        },
        "performer": [
          {
            "display": "The Central European Lab"
          }
        ],
        "category": [
          {
            "coding": [
              {
                "system": "http://terminology.hl7.org/CodeSystem/observation-category",
                "code": "laboratory"
              }
            ]
          }
        ],
        "code": {
          "coding": [
            {
              "code": "5802-4",
              "system": "http://loinc.org",
              "display": "Nitrite [Presence] in Urine by Test strip"
            }
          ],
          "text": "Nitrite [Presence] in Urine by Test strip"
        },
        "text": {
          "status": "generated",
          "div": "<div xmlns=\"http://www.w3.org/1999/xhtml\"><table class=\"hl7__eu__lab__report\"><tr><th>Test</th><th>12-Apr-2019</th><th>Reference&#xA0;Range</th><th>Unit</th></tr><tr><td>Nitrite [Presence] in Urine by Test strip</td></tr></table></div>"
        },
        "status": "final",
        "subject": {
          "reference": "urn:uuid:0cbab716-2822-4b8c-a6d8-6d0a060adb8e",
          "display": "Victor Lagarde"
        },
        "effectiveDateTime": "2019-04-12T04:48:18Z",
        "specimen": {
          "reference": "urn:uuid:99430c17-7bd9-45f2-bb7b-7fd47fe83270"
        }
      }
    },
    {
      "fullUrl": "urn:uuid:60d2ae9a-1737-4375-9f8c-206d54059488",
      "resource": {
        "resourceType": "Observation",
        "id": "60d2ae9a-1737-4375-9f8c-206d54059488",
        "meta": {
          "profile": [
            "http://hl7.eu/fhir/laboratory/StructureDefinition/Observation-resultslab-eu-lab"
          ]
        },
        "performer": [
          {
            "display": "The Central European Lab"
          }
        ],
        "category": [
          {
            "coding": [
              {
                "system": "http://terminology.hl7.org/CodeSystem/observation-category",
                "code": "laboratory"
              }
            ]
          }
        ],
        "code": {
          "coding": [
            {
              "code": "5794-3",
              "system": "http://loinc.org",
              "display": "Hemoglobin [Presence] in Urine by Test strip"
            }
          ],
          "text": "Hemoglobin [Presence] in Urine by Test strip"
        },
        "text": {
          "status": "generated",
          "div": "<div xmlns=\"http://www.w3.org/1999/xhtml\"><table class=\"hl7__eu__lab__report\"><tr><th>Test</th><th>12-Apr-2019</th><th>Reference&#xA0;Range</th><th>Unit</th></tr><tr><td>Hemoglobin [Presence] in Urine by Test strip</td></tr></table></div>"
        },
        "status": "final",
        "subject": {
          "reference": "urn:uuid:0cbab716-2822-4b8c-a6d8-6d0a060adb8e",
          "display": "Victor Lagarde"
        },
        "effectiveDateTime": "2019-04-12T04:48:18Z",
        "specimen": {
          "reference": "urn:uuid:99430c17-7bd9-45f2-bb7b-7fd47fe83270"
        }
      }
    },
    {
      "fullUrl": "urn:uuid:091ce962-22ba-4440-8e92-98c673fe44ba",
      "resource": {
        "resourceType": "Observation",
        "id": "091ce962-22ba-4440-8e92-98c673fe44ba",
        "meta": {
          "profile": [
            "http://hl7.eu/fhir/laboratory/StructureDefinition/Observation-resultslab-eu-lab"
          ]
        },
        "performer": [
          {
            "display": "The Central European Lab"
          }
        ],
        "category": [
          {
            "coding": [
              {
                "system": "http://terminology.hl7.org/CodeSystem/observation-category",
                "code": "laboratory"
              }
            ]
          }
        ],
        "code": {
          "coding": [
            {
              "code": "5799-2",
              "system": "http://loinc.org",
              "display": "Leukocyte esterase [Presence] in Urine by Test strip"
            }
          ],
          "text": "Leukocyte esterase [Presence] in Urine by Test strip"
        },
        "text": {
          "status": "generated",
          "div": "<div xmlns=\"http://www.w3.org/1999/xhtml\"><table class=\"hl7__eu__lab__report\"><tr><th>Test</th><th>12-Apr-2019</th><th>Reference&#xA0;Range</th><th>Unit</th></tr><tr><td>Leukocyte esterase [Presence] in Urine by Test strip</td></tr></table></div>"
        },
        "status": "final",
        "subject": {
          "reference": "urn:uuid:0cbab716-2822-4b8c-a6d8-6d0a060adb8e",
          "display": "Victor Lagarde"
        },
        "effectiveDateTime": "2019-04-12T04:48:18Z",
        "specimen": {
          "reference": "urn:uuid:99430c17-7bd9-45f2-bb7b-7fd47fe83270"
        }
      }
    },
    {
      "fullUrl": "urn:uuid:9f46e47d-054e-4e0f-9e5b-c7a5e85ba45c",
      "resource": {
        "resourceType": "Observation",
        "id": "9f46e47d-054e-4e0f-9e5b-c7a5e85ba45c",
        "meta": {
          "profile": [
            "http://hl7.eu/fhir/laboratory/StructureDefinition/Observation-resultslab-eu-lab"
          ]
        },
        "performer": [
          {
            "display": "The Central European Lab"
          }
        ],
        "category": [
          {
            "coding": [
              {
                "system": "http://terminology.hl7.org/CodeSystem/observation-category",
                "code": "laboratory"
              }
            ]
          }
        ],
        "code": {
          "coding": [
            {
              "code": "4548-4",
              "system": "http://loinc.org",
              "display": "Hemoglobin A1c/Hemoglobin.total in Blood"
            }
          ],
          "text": "Hemoglobin A1c/Hemoglobin.total in Blood"
        },
        "valueQuantity": {
          "system": "http://unitsofmeasure.org",
          "value": 2.8,
          "unit": "%",
          "code": "%"
        },
        "referenceRange": [
          {
            "low": {
              "value": 4.3,
              "code": "%",
              "system": "http://unitsofmeasure.org"
            }
          },
          {
            "high": {
              "value": 6,
              "code": "%",
              "system": "http://unitsofmeasure.org"
            }
          }
        ],
        "interpretation": [
          {
            "coding": [
              {
                "code": "L",
                "system": "http://terminology.hl7.org/CodeSystem/v3-ObservationInterpretation",
                "display": "Low"
              }
            ]
          }
        ],
        "text": {
          "status": "generated",
          "div": "<div xmlns=\"http://www.w3.org/1999/xhtml\"><table class=\"hl7__eu__lab__report\"><tr><th>Test</th><th>12-Apr-2019</th><th>Reference&#xA0;Range</th><th>Unit</th></tr><tr><td>Hemoglobin A1c/Hemoglobin.total in Blood</td><td>2.8</td><td>4.3 - 6</td><td>L</td><td>%</td></tr></table></div>"
        },
        "status": "final",
        "subject": {
          "reference": "urn:uuid:0cbab716-2822-4b8c-a6d8-6d0a060adb8e",
          "display": "Victor Lagarde"
        },
        "effectiveDateTime": "2019-04-12T04:48:18Z",
        "specimen": {
          "reference": "urn:uuid:eef1ea02-f1cf-45bc-9c67-c5a6e82c9078"
        }
      }
    },
    {
      "fullUrl": "urn:uuid:74457acc-150d-4991-ad7f-c848b535638a",
      "resource": {
        "resourceType": "Observation",
        "id": "74457acc-150d-4991-ad7f-c848b535638a",
        "meta": {
          "profile": [
            "http://hl7.eu/fhir/laboratory/StructureDefinition/Observation-resultslab-eu-lab"
          ]
        },
        "performer": [
          {
            "display": "The Central European Lab"
          }
        ],
        "category": [
          {
            "coding": [
              {
                "system": "http://terminology.hl7.org/CodeSystem/observation-category",
                "code": "laboratory"
              }
            ]
          }
        ],
        "code": {
          "coding": [
            {
              "code": "2339-0",
              "system": "http://loinc.org",
              "display": "Glucose [Mass/volume] in Blood"
            }
          ],
          "text": "Glucose [Mass/volume] in Blood"
        },
        "valueQuantity": {
          "system": "http://unitsofmeasure.org",
          "value": 69,
          "unit": "mg/dL",
          "code": "mg/dL"
        },
        "referenceRange": [
          {
            "low": {
              "value": 70,
              "code": "mg/dL",
              "system": "http://unitsofmeasure.org"
            }
          },
          {
            "high": {
              "value": 140,
              "code": "mg/dL",
              "system": "http://unitsofmeasure.org"
            }
          }
        ],
        "interpretation": [
          {
            "coding": [
              {
                "code": "L",
                "system": "http://terminology.hl7.org/CodeSystem/v3-ObservationInterpretation",
                "display": "Low"
              }
            ]
          }
        ],
        "text": {
          "status": "generated",
          "div": "<div xmlns=\"http://www.w3.org/1999/xhtml\"><table class=\"hl7__eu__lab__report\"><tr><th>Test</th><th>12-Apr-2019</th><th>Reference&#xA0;Range</th><th>Unit</th></tr><tr><td>Glucose [Mass/volume] in Blood</td><td>69.0</td><td>70 - 140</td><td>L</td><td>mg/dL</td></tr></table></div>"
        },
        "status": "final",
        "subject": {
          "reference": "urn:uuid:0cbab716-2822-4b8c-a6d8-6d0a060adb8e",
          "display": "Victor Lagarde"
        },
        "effectiveDateTime": "2019-04-12T04:48:18Z",
        "specimen": {
          "reference": "urn:uuid:eef1ea02-f1cf-45bc-9c67-c5a6e82c9078"
        }
      }
    },
    {
      "fullUrl": "urn:uuid:89a78236-3967-4cf5-b61a-ba7530cac83a",
      "resource": {
        "resourceType": "Observation",
        "id": "89a78236-3967-4cf5-b61a-ba7530cac83a",
        "meta": {
          "profile": [
            "http://hl7.eu/fhir/laboratory/StructureDefinition/Observation-resultslab-eu-lab"
          ]
        },
        "performer": [
          {
            "display": "The Central European Lab"
          }
        ],
        "category": [
          {
            "coding": [
              {
                "system": "http://terminology.hl7.org/CodeSystem/observation-category",
                "code": "laboratory"
              }
            ]
          }
        ],
        "code": {
          "coding": [
            {
              "code": "6299-2",
              "system": "http://loinc.org",
              "display": "Urea nitrogen [Mass/volume] in Blood"
            }
          ],
          "text": "Urea nitrogen [Mass/volume] in Blood"
        },
        "valueQuantity": {
          "system": "http://unitsofmeasure.org",
          "value": 13.6,
          "unit": "mg/dL",
          "code": "mg/dL"
        },
        "referenceRange": [
          {
            "low": {
              "value": 7,
              "code": "mg/dL",
              "system": "http://unitsofmeasure.org"
            }
          },
          {
            "high": {
              "value": 20,
              "code": "mg/dL",
              "system": "http://unitsofmeasure.org"
            }
          }
        ],
        "text": {
          "status": "generated",
          "div": "<div xmlns=\"http://www.w3.org/1999/xhtml\"><table class=\"hl7__eu__lab__report\"><tr><th>Test</th><th>12-Apr-2019</th><th>Reference&#xA0;Range</th><th>Unit</th></tr><tr><td>Urea nitrogen [Mass/volume] in Blood</td><td>13.6</td><td>7 - 20</td><td></td><td>mg/dL</td></tr></table></div>"
        },
        "status": "final",
        "subject": {
          "reference": "urn:uuid:0cbab716-2822-4b8c-a6d8-6d0a060adb8e",
          "display": "Victor Lagarde"
        },
        "effectiveDateTime": "2019-04-12T04:48:18Z",
        "specimen": {
          "reference": "urn:uuid:eef1ea02-f1cf-45bc-9c67-c5a6e82c9078"
        }
      }
    },
    {
      "fullUrl": "urn:uuid:3397c55a-5a44-4028-a7f1-f105ca2fe863",
      "resource": {
        "resourceType": "Observation",
        "id": "3397c55a-5a44-4028-a7f1-f105ca2fe863",
        "meta": {
          "profile": [
            "http://hl7.eu/fhir/laboratory/StructureDefinition/Observation-resultslab-eu-lab"
          ]
        },
        "performer": [
          {
            "display": "The Central European Lab"
          }
        ],
        "category": [
          {
            "coding": [
              {
                "system": "http://terminology.hl7.org/CodeSystem/observation-category",
                "code": "laboratory"
              }
            ]
          }
        ],
        "code": {
          "coding": [
            {
              "code": "38483-4",
              "system": "http://loinc.org",
              "display": "Creatinine [Mass/volume] in Blood"
            }
          ],
          "text": "Creatinine [Mass/volume] in Blood"
        },
        "valueQuantity": {
          "system": "http://unitsofmeasure.org",
          "value": 3.1,
          "unit": "mg/dL",
          "code": "mg/dL"
        },
        "referenceRange": [
          {
            "low": {
              "value": 0.9,
              "code": "mg/dL",
              "system": "http://unitsofmeasure.org"
            }
          },
          {
            "high": {
              "value": 1.3,
              "code": "mg/dL",
              "system": "http://unitsofmeasure.org"
            }
          }
        ],
        "interpretation": [
          {
            "coding": [
              {
                "code": "H",
                "system": "http://terminology.hl7.org/CodeSystem/v3-ObservationInterpretation",
                "display": "High"
              }
            ]
          }
        ],
        "text": {
          "status": "generated",
          "div": "<div xmlns=\"http://www.w3.org/1999/xhtml\"><table class=\"hl7__eu__lab__report\"><tr><th>Test</th><th>12-Apr-2019</th><th>Reference&#xA0;Range</th><th>Unit</th></tr><tr><td>Creatinine [Mass/volume] in Blood</td><td>3.1</td><td>0.9 - 1.3</td><td>H</td><td>mg/dL</td></tr></table></div>"
        },
        "status": "final",
        "subject": {
          "reference": "urn:uuid:0cbab716-2822-4b8c-a6d8-6d0a060adb8e",
          "display": "Victor Lagarde"
        },
        "effectiveDateTime": "2019-04-12T04:48:18Z",
        "specimen": {
          "reference": "urn:uuid:eef1ea02-f1cf-45bc-9c67-c5a6e82c9078"
        }
      }
    },
    {
      "fullUrl": "urn:uuid:70aed657-755f-4ef0-946d-cf13f463544e",
      "resource": {
        "resourceType": "Observation",
        "id": "70aed657-755f-4ef0-946d-cf13f463544e",
        "meta": {
          "profile": [
            "http://hl7.eu/fhir/laboratory/StructureDefinition/Observation-resultslab-eu-lab"
          ]
        },
        "performer": [
          {
            "display": "The Central European Lab"
          }
        ],
        "category": [
          {
            "coding": [
              {
                "system": "http://terminology.hl7.org/CodeSystem/observation-category",
                "code": "laboratory"
              }
            ]
          }
        ],
        "code": {
          "coding": [
            {
              "code": "49765-1",
              "system": "http://loinc.org",
              "display": "Calcium [Mass/volume] in Blood"
            }
          ],
          "text": "Calcium [Mass/volume] in Blood"
        },
        "valueQuantity": {
          "system": "http://unitsofmeasure.org",
          "value": 8.5,
          "unit": "mg/dL",
          "code": "mg/dL"
        },
        "referenceRange": [
          {
            "low": {
              "value": 8.5,
              "code": "mg/dL",
              "system": "http://unitsofmeasure.org"
            }
          },
          {
            "high": {
              "value": 10.5,
              "code": "mg/dL",
              "system": "http://unitsofmeasure.org"
            }
          }
        ],
        "text": {
          "status": "generated",
          "div": "<div xmlns=\"http://www.w3.org/1999/xhtml\"><table class=\"hl7__eu__lab__report\"><tr><th>Test</th><th>12-Apr-2019</th><th>Reference&#xA0;Range</th><th>Unit</th></tr><tr><td>Calcium [Mass/volume] in Blood</td><td>8.5</td><td>8.5 - 10.5</td><td></td><td>mg/dL</td></tr></table></div>"
        },
        "status": "final",
        "subject": {
          "reference": "urn:uuid:0cbab716-2822-4b8c-a6d8-6d0a060adb8e",
          "display": "Victor Lagarde"
        },
        "effectiveDateTime": "2019-04-12T04:48:18Z",
        "specimen": {
          "reference": "urn:uuid:eef1ea02-f1cf-45bc-9c67-c5a6e82c9078"
        }
      }
    },
    {
      "fullUrl": "urn:uuid:d0435601-2818-4069-ab19-5a33900ebf09",
      "resource": {
        "resourceType": "Observation",
        "id": "d0435601-2818-4069-ab19-5a33900ebf09",
        "meta": {
          "profile": [
            "http://hl7.eu/fhir/laboratory/StructureDefinition/Observation-resultslab-eu-lab"
          ]
        },
        "performer": [
          {
            "display": "The Central European Lab"
          }
        ],
        "category": [
          {
            "coding": [
              {
                "system": "http://terminology.hl7.org/CodeSystem/observation-category",
                "code": "laboratory"
              }
            ]
          }
        ],
        "code": {
          "coding": [
            {
              "code": "2947-0",
              "system": "http://loinc.org",
              "display": "Sodium [Moles/volume] in Blood"
            }
          ],
          "text": "Sodium [Moles/volume] in Blood"
        },
        "valueQuantity": {
          "system": "http://unitsofmeasure.org",
          "value": 140.6,
          "unit": "mmol/L",
          "code": "mmol/L"
        },
        "referenceRange": [
          {
            "low": {
              "value": 135,
              "code": "mmol/L",
              "system": "http://unitsofmeasure.org"
            }
          },
          {
            "high": {
              "value": 145,
              "code": "mmol/L",
              "system": "http://unitsofmeasure.org"
            }
          }
        ],
        "text": {
          "status": "generated",
          "div": "<div xmlns=\"http://www.w3.org/1999/xhtml\"><table class=\"hl7__eu__lab__report\"><tr><th>Test</th><th>12-Apr-2019</th><th>Reference&#xA0;Range</th><th>Unit</th></tr><tr><td>Sodium [Moles/volume] in Blood</td><td>140.6</td><td>135 - 145</td><td></td><td>mmol/L</td></tr></table></div>"
        },
        "status": "final",
        "subject": {
          "reference": "urn:uuid:0cbab716-2822-4b8c-a6d8-6d0a060adb8e",
          "display": "Victor Lagarde"
        },
        "effectiveDateTime": "2019-04-12T04:48:18Z",
        "specimen": {
          "reference": "urn:uuid:eef1ea02-f1cf-45bc-9c67-c5a6e82c9078"
        }
      }
    },
    {
      "fullUrl": "urn:uuid:1f2a6e12-fca1-45cd-b604-2a7394f0b30d",
      "resource": {
        "resourceType": "Observation",
        "id": "1f2a6e12-fca1-45cd-b604-2a7394f0b30d",
        "meta": {
          "profile": [
            "http://hl7.eu/fhir/laboratory/StructureDefinition/Observation-resultslab-eu-lab"
          ]
        },
        "performer": [
          {
            "display": "The Central European Lab"
          }
        ],
        "category": [
          {
            "coding": [
              {
                "system": "http://terminology.hl7.org/CodeSystem/observation-category",
                "code": "laboratory"
              }
            ]
          }
        ],
        "code": {
          "coding": [
            {
              "code": "6298-4",
              "system": "http://loinc.org",
              "display": "Potassium [Moles/volume] in Blood"
            }
          ],
          "text": "Potassium [Moles/volume] in Blood"
        },
        "valueQuantity": {
          "system": "http://unitsofmeasure.org",
          "value": 4.6,
          "unit": "mmol/L",
          "code": "mmol/L"
        },
        "referenceRange": [
          {
            "low": {
              "value": 3.5,
              "code": "mmol/L",
              "system": "http://unitsofmeasure.org"
            }
          },
          {
            "high": {
              "value": 5.1,
              "code": "mmol/L",
              "system": "http://unitsofmeasure.org"
            }
          }
        ],
        "text": {
          "status": "generated",
          "div": "<div xmlns=\"http://www.w3.org/1999/xhtml\"><table class=\"hl7__eu__lab__report\"><tr><th>Test</th><th>12-Apr-2019</th><th>Reference&#xA0;Range</th><th>Unit</th></tr><tr><td>Potassium [Moles/volume] in Blood</td><td>4.6</td><td>3.5 - 5.1</td><td></td><td>mmol/L</td></tr></table></div>"
        },
        "status": "final",
        "subject": {
          "reference": "urn:uuid:0cbab716-2822-4b8c-a6d8-6d0a060adb8e",
          "display": "Victor Lagarde"
        },
        "effectiveDateTime": "2019-04-12T04:48:18Z",
        "specimen": {
          "reference": "urn:uuid:eef1ea02-f1cf-45bc-9c67-c5a6e82c9078"
        }
      }
    },
    {
      "fullUrl": "urn:uuid:35b94a7d-bd94-4374-bfd1-8c2c3e0488b6",
      "resource": {
        "resourceType": "Observation",
        "id": "35b94a7d-bd94-4374-bfd1-8c2c3e0488b6",
        "meta": {
          "profile": [
            "http://hl7.eu/fhir/laboratory/StructureDefinition/Observation-resultslab-eu-lab"
          ]
        },
        "performer": [
          {
            "display": "The Central European Lab"
          }
        ],
        "category": [
          {
            "coding": [
              {
                "system": "http://terminology.hl7.org/CodeSystem/observation-category",
                "code": "laboratory"
              }
            ]
          }
        ],
        "code": {
          "coding": [
            {
              "code": "2069-3",
              "system": "http://loinc.org",
              "display": "Chloride [Moles/volume] in Blood"
            }
          ],
          "text": "Chloride [Moles/volume] in Blood"
        },
        "valueQuantity": {
          "system": "http://unitsofmeasure.org",
          "value": 107.3,
          "unit": "mmol/L",
          "code": "mmol/L"
        },
        "referenceRange": [
          {
            "low": {
              "value": 98,
              "code": "mmol/L",
              "system": "http://unitsofmeasure.org"
            }
          },
          {
            "high": {
              "value": 108,
              "code": "mmol/L",
              "system": "http://unitsofmeasure.org"
            }
          }
        ],
        "text": {
          "status": "generated",
          "div": "<div xmlns=\"http://www.w3.org/1999/xhtml\"><table class=\"hl7__eu__lab__report\"><tr><th>Test</th><th>12-Apr-2019</th><th>Reference&#xA0;Range</th><th>Unit</th></tr><tr><td>Chloride [Moles/volume] in Blood</td><td>107.3</td><td>98 - 108</td><td></td><td>mmol/L</td></tr></table></div>"
        },
        "status": "final",
        "subject": {
          "reference": "urn:uuid:0cbab716-2822-4b8c-a6d8-6d0a060adb8e",
          "display": "Victor Lagarde"
        },
        "effectiveDateTime": "2019-04-12T04:48:18Z",
        "specimen": {
          "reference": "urn:uuid:eef1ea02-f1cf-45bc-9c67-c5a6e82c9078"
        }
      }
    },
    {
      "fullUrl": "urn:uuid:82990ebd-a171-4436-9094-09bd0399d1cf",
      "resource": {
        "resourceType": "Observation",
        "id": "82990ebd-a171-4436-9094-09bd0399d1cf",
        "meta": {
          "profile": [
            "http://hl7.eu/fhir/laboratory/StructureDefinition/Observation-resultslab-eu-lab"
          ]
        },
        "performer": [
          {
            "display": "The Central European Lab"
          }
        ],
        "category": [
          {
            "coding": [
              {
                "system": "http://terminology.hl7.org/CodeSystem/observation-category",
                "code": "laboratory"
              }
            ]
          }
        ],
        "code": {
          "coding": [
            {
              "code": "20565-8",
              "system": "http://loinc.org",
              "display": "Carbon dioxide, total [Moles/volume] in Blood"
            }
          ],
          "text": "Carbon dioxide, total [Moles/volume] in Blood"
        },
        "valueQuantity": {
          "system": "http://unitsofmeasure.org",
          "value": 25.8,
          "unit": "mmol/L",
          "code": "mmol/L"
        },
        "referenceRange": [
          {
            "low": {
              "value": 22,
              "code": "mmol/L",
              "system": "http://unitsofmeasure.org"
            }
          },
          {
            "high": {
              "value": 29,
              "code": "mmol/L",
              "system": "http://unitsofmeasure.org"
            }
          }
        ],
        "text": {
          "status": "generated",
          "div": "<div xmlns=\"http://www.w3.org/1999/xhtml\"><table class=\"hl7__eu__lab__report\"><tr><th>Test</th><th>12-Apr-2019</th><th>Reference&#xA0;Range</th><th>Unit</th></tr><tr><td>Carbon dioxide, total [Moles/volume] in Blood</td><td>25.8</td><td>22 - 29</td><td></td><td>mmol/L</td></tr></table></div>"
        },
        "status": "final",
        "subject": {
          "reference": "urn:uuid:0cbab716-2822-4b8c-a6d8-6d0a060adb8e",
          "display": "Victor Lagarde"
        },
        "effectiveDateTime": "2019-04-12T04:48:18Z",
        "specimen": {
          "reference": "urn:uuid:eef1ea02-f1cf-45bc-9c67-c5a6e82c9078"
        }
      }
    },
    {
      "fullUrl": "urn:uuid:9ceae4a3-0a1d-418f-ae74-a245561bf82b",
      "resource": {
        "resourceType": "Device",
        "id": "9ceae4a3-0a1d-418f-ae74-a245561bf82b",
        "deviceName": [
          {
            "name": "SYNDERAI Synthetic Generator",
            "type": "manufacturer-name"
          }
        ],
        "version": [
          {
            "value": "5.0"
          }
        ],
        "text": {
          "status": "generated",
          "div": "<div xmlns=\"http://www.w3.org/1999/xhtml\">SYNDERAI Synthetic Generator v5.0</div>"
        },
        "status": "active\"",
        "distinctIdentifier": "synderai-generator-50",
        "manufacturer": "SYNDERAI Project"
      }
    },
    {
      "fullUrl": "urn:uuid:e3038255-32b5-45de-b62e-d2e470760edd",
      "resource": {
        "resourceType": "Provenance",
        "id": "e3038255-32b5-45de-b62e-d2e470760edd",
        "target": [
          {
            "reference": "Patient/0cbab716-2822-4b8c-a6d8-6d0a060adb8e"
          },
          {
            "reference": "Bundle/878b7bf8-c47e-45a0-a3da-b3abb31452d3"
          },
          {
            "reference": "Composition/35be66a3-9973-4e69-abb0-8f6d7d084942"
          },
          {
            "reference": "PractitionerRole/e6d63268-22c5-4b69-af41-591e4ab4814c"
          },
          {
            "reference": "Practitioner/b1f1442a-be3c-4307-93ba-2d391cdfa4fa"
          },
          {
            "reference": "PractitionerRole/98b900a4-855c-468e-9e16-0b42d3ae00f6"
          },
          {
            "reference": "Organization/4cba50e5-713e-446e-b402-fff956faa1f2"
          }
        ],
        "activity": {
          "text": "Synthetic Example Data Generation"
        },
        "policy": [
          "https://synderai.net/synderai-synthetic-data-policy"
        ],
        "agent": [
          {
            "type": {
              "text": "author"
            },
            "who": {
              "reference": "Device/9ceae4a3-0a1d-418f-ae74-a245561bf82b"
            }
          }
        ],
        "reason": [
          {
            "text": "Interoperability Testing and Training (non-clinical use)"
          }
        ],
        "text": {
          "status": "generated",
          "div": "<div xmlns=\"http://www.w3.org/1999/xhtml\">Provenance for SYNDERAI Synthetic Example Data Resource</div>"
        },
        "recorded": "2019-04-12T06:48:18Z"
      }
    },
    {
      "fullUrl": "urn:uuid:e6d63268-22c5-4b69-af41-591e4ab4814c",
      "resource": {
        "resourceType": "PractitionerRole",
        "id": "e6d63268-22c5-4b69-af41-591e4ab4814c",
        "meta": {
          "profile": [
            "http://hl7.eu/fhir/base/StructureDefinition/practitionerRole-eu"
          ]
        },
        "text": {
          "status": "generated",
          "div": "<div xmlns=\"http://www.w3.org/1999/xhtml\">Laboratory Role Id: e6d63268-22c5-4b69-af41-591e4ab4814c</div>"
        },
        "practitioner": {
          "reference": "urn:uuid:b1f1442a-be3c-4307-93ba-2d391cdfa4fa"
        }
      }
    },
    {
      "fullUrl": "urn:uuid:b1f1442a-be3c-4307-93ba-2d391cdfa4fa",
      "resource": {
        "resourceType": "Practitioner",
        "id": "b1f1442a-be3c-4307-93ba-2d391cdfa4fa",
        "meta": {
          "profile": [
            "http://hl7.eu/fhir/base/StructureDefinition/practitioner-eu"
          ]
        },
        "identifier": [
          {
            "assigner": {
              "display": "HL7 Europe"
            },
            "system": "urn:oid:2.16.840.1.113883.2.51.999",
            "value": "bb5230b9-2e0e-4f9b-ac2d-b8b8afc2161a"
          }
        ],
        "name": [
          {
            "prefix": [
              "dr"
            ],
            "given": [
              "Ex"
            ],
            "family": "Ample"
          }
        ],
        "address": [
          {
            "line": [
              "Laboratoire Central Europenne",
              "Boulevard du Jardin Botanique 32"
            ],
            "postalCode": "1000",
            "city": "Brussels",
            "country": "Belgium"
          }
        ],
        "text": {
          "status": "generated",
          "div": "<div xmlns=\"http://www.w3.org/1999/xhtml\">Laboratory: Laboratoire Central Europenne, 1000 Brussels, Belgium</div>"
        }
      }
    }
  ],
  "type": "document",
  "timestamp": "2019-04-12T06:48:18Z"
}
