<Bundle xmlns="http://hl7.org/fhir">
   <id value="61b5fa3c-331a-493f-87b5-0e7b9e7511a5"/>
   <meta>
      <profile value="http://hl7.eu/fhir/laboratory/StructureDefinition/Bundle-eu-lab"/>
   </meta>
   <identifier>
      <system value="urn:oid:2.16.840.1.113883.2.51.999"/>
      <value value="a1b3eb88-a6ae-43ee-9346-128d0e4c6c4a"/>
      <assigner>
         <display value="HL7 Europe"/>
      </assigner>
   </identifier>
   <type value="document"/>
   <timestamp value="2017-12-11T16:48:21Z"/>
   <entry>
      <fullUrl value="urn:uuid:a3e46e6c-4086-4de4-b84c-3a4f6162c301"/>
      <resource>
         <Composition>
            <id value="a3e46e6c-4086-4de4-b84c-3a4f6162c301"/>
            <meta>
               <profile value="http://hl7.eu/fhir/laboratory/StructureDefinition/Composition-eu-lab"/>
            </meta>
            <identifier>
               <system value="urn:oid:2.16.840.1.113883.2.51.999"/>
               <value value="50629d8a-4cf6-49f4-823b-0b32e29bd906"/>
               <assigner>
                  <display value="HL7 Europe"/>
               </assigner>
            </identifier>
            <status value="final"/>
            <type>
               <coding>
                  <system value="http://loinc.org"/>
                  <code value="11502-2"/>
                  <display value="Laboratory report"/>
               </coding>
               <text value="Laboratory Report"/>
            </type>
            <category>
               <coding>
                  <system value="http://loinc.org"/>
                  <code value="26436-6"/>
                  <display value="Laboratory studies (set)"/>
               </coding>
            </category>
            <subject>
               <reference value="urn:uuid:dd3180b5-0bfa-483e-9be9-7c5eeca839c0"/>
               <display value="Timothy Smith"/>
            </subject>
            <date value="2017-12-11T16:48:21Z"/>
            <author>
               <reference value="urn:uuid:cec3bcd2-602c-4d32-bc2c-b03c521bf261"/>
            </author>
            <title value="Laboratory Report"/>
            <confidentiality value="N"/>
            <section>
               <title value="Laboratory Report"/>
               <code>
                  <coding>
                     <system value="http://loinc.org"/>
                     <code value="26436-6"/>
                     <display value="Laboratory studies (set)"/>
                  </coding>
                  <text value="Laboratory studies"/>
               </code>
               <section>
                  <title value="Chemistry"/>
                  <code>
                     <coding>
                        <system value="http://loinc.org"/>
                        <code value="$18719-5"/>
                        <display value="Chemistry studies (set)"/>
                     </coding>
                     <text value="Chemistry"/>
                  </code>
                  <text>
                     <status value="generated"/>
                     <div xmlns="http://www.w3.org/1999/xhtml">
                        <h3>Chemistry</h3>
                        <table class="hl7__eu__lab__report">
                           <thead>
                              <tr>
                                 <th>Test</th>
                                 <th>11-DEC-2017</th>
                                 <th>Reference Range</th>
                                 <th>Unit</th>
                              </tr>
                           </thead>
                           <tbody>
                              <tr>
                                 <td>Hemoglobin A1c/Hemoglobin.total in Blood</td>
                                 <td>5.5</td>
                                 <td>4.5 - 6.4</td>
                                 <td>%</td>
                              </tr>
                              <tr>
                                 <td>Glucose [Mass/volume] in Blood</td>
                                 <td>139.2</td>
                                 <td>70 - 140</td>
                                 <td>mg/dL</td>
                              </tr>
                              <tr>
                                 <td>Urea nitrogen [Mass/volume] in Blood</td>
                                 <td>19.8</td>
                                 <td>7 - 25</td>
                                 <td>mg/dL</td>
                              </tr>
                              <tr>
                                 <td>Creatinine [Mass/volume] in Blood</td>
                                 <td>0.9</td>
                                 <td>0.6 - 1.3</td>
                                 <td>mg/dL</td>
                              </tr>
                              <tr>
                                 <td>Calcium [Mass/volume] in Blood</td>
                                 <td>8.8</td>
                                 <td>8.5 - 10.5</td>
                                 <td>mg/dL</td>
                              </tr>
                              <tr>
                                 <td>Sodium [Moles/volume] in Blood</td>
                                 <td>138.4</td>
                                 <td>135 - 145</td>
                                 <td>mmol/L</td>
                              </tr>
                              <tr>
                                 <td>Potassium [Moles/volume] in Blood</td>
                                 <td>
                                    <strong>5.2 H</strong>
                                 </td>
                                 <td>3.5 - 5.1</td>
                                 <td>mmol/L</td>
                              </tr>
                              <tr>
                                 <td>Chloride [Moles/volume] in Blood</td>
                                 <td>105.2</td>
                                 <td>98 - 107</td>
                                 <td>mmol/L</td>
                              </tr>
                              <tr>
                                 <td>Carbon dioxide, total [Moles/volume] in Blood</td>
                                 <td>24.3</td>
                                 <td>22 - 29</td>
                                 <td>mmol/L</td>
                              </tr>
                              <tr>
                                 <td>Cholesterol [Mass/volume] in Serum or Plasma</td>
                                 <td>
                                    <strong>258.6 H</strong>
                                 </td>
                                 <td>0 - 200</td>
                                 <td>mg/dL</td>
                              </tr>
                              <tr>
                                 <td>Triglyceride [Mass/volume] in Serum or Plasma</td>
                                 <td>
                                    <strong>434.8 H</strong>
                                 </td>
                                 <td>0 - 199</td>
                                 <td>mg/dL</td>
                              </tr>
                              <tr>
                                 <td>Cholesterol in LDL [Mass/volume] in Serum or Plasma by Direct assay</td>
                                 <td>
                                    <strong>151.3 H</strong>
                                 </td>
                                 <td>0 - 130</td>
                                 <td>mg/dL</td>
                              </tr>
                              <tr>
                                 <td>Cholesterol in HDL [Mass/volume] in Serum or Plasma</td>
                                 <td>
                                    <strong>20.4 L</strong>
                                 </td>
                                 <td>40 - 100</td>
                                 <td>mg/dL</td>
                              </tr>
                              <tr>
                                 <td>Microalbumin/Creatinine [Mass Ratio] in Urine</td>
                                 <td>8.7</td>
                                 <td>0 - 30</td>
                                 <td>mg/g</td>
                              </tr>
                           </tbody>
                        </table>
                     </div>
                  </text>
                  <entry>
                     <reference value="urn:uuid:9bf687b7-3f3c-4e21-ba8d-ced46eccaec1"/>
                  </entry>
                  <entry>
                     <reference value="urn:uuid:7cc432ed-5698-4c2a-857e-0d1c9efed265"/>
                  </entry>
                  <entry>
                     <reference value="urn:uuid:1e74876b-e629-40b5-b63a-aac7e7ab8175"/>
                  </entry>
                  <entry>
                     <reference value="urn:uuid:eee7ef2e-df29-41ba-81fc-e357fbf4063a"/>
                  </entry>
                  <entry>
                     <reference value="urn:uuid:06092108-5d7a-4515-a00b-0729545fb305"/>
                  </entry>
                  <entry>
                     <reference value="urn:uuid:1590c296-1ca2-48a0-9d13-68d74cbf8faa"/>
                  </entry>
                  <entry>
                     <reference value="urn:uuid:b8cf8d1b-1045-48ee-9a72-a4a002c3b076"/>
                  </entry>
                  <entry>
                     <reference value="urn:uuid:1bf3bedc-713a-4aff-8410-15bf50a99974"/>
                  </entry>
                  <entry>
                     <reference value="urn:uuid:59e3ffea-4090-4480-a79d-ebaa9e1c9a51"/>
                  </entry>
                  <entry>
                     <reference value="urn:uuid:52f496aa-d3a5-43e8-af68-4588e743a312"/>
                  </entry>
                  <entry>
                     <reference value="urn:uuid:69fca86c-f808-48d7-b869-d65bcf686d72"/>
                  </entry>
                  <entry>
                     <reference value="urn:uuid:712688a6-2541-4f46-b6ad-5b8e1e8e0733"/>
                  </entry>
                  <entry>
                     <reference value="urn:uuid:a6262243-941b-46d3-9896-c7bab947cca2"/>
                  </entry>
                  <entry>
                     <reference value="urn:uuid:7f7850d0-a573-43d6-9122-d9a03f5885af"/>
                  </entry>
               </section>
            </section>
            <section>
               <title value="Annotation comment"/>
               <code>
                  <coding>
                     <system value="http://loinc.org"/>
                     <code value="48767-8"/>
                     <display value="Annotation comment"/>
                  </coding>
               </code>
               <text>
                  <status value="generated"/>
                  <div xmlns="http://www.w3.org/1999/xhtml">
                     <h3>Annotation</h3>
                     <table class="hl7__eu__lab__report">
                        <tr>
                           <th>Conclusion and Recommendations based on this report and previous findings known to us</th>
                        </tr>
                        <tr>
                           <td>The patient shows dyslipidemia with elevated total cholesterol, LDL, and triglycerides, and low HDL, increasing cardiovascular risk. Potassium is mildly elevated; monitor for possible renal or medication-related causes. Glucose and HbA1c are within normal limits, and renal function (urea, creatinine, microalbumin/creatinine) is preserved. No acute metabolic derangements detected. Recommend addressing lipid abnormalities and monitoring potassium.</td>
                        </tr>
                     </table>
                  </div>
               </text>
            </section>
         </Composition>
      </resource>
   </entry>
   <entry>
      <fullUrl value="urn:uuid:f2fc9462-fd76-4329-8b26-2a8d2dce00b7"/>
      <resource>
         <DiagnosticReport>
            <id value="f2fc9462-fd76-4329-8b26-2a8d2dce00b7"/>
            <meta>
               <profile value="http://hl7.eu/fhir/laboratory/StructureDefinition/DiagnosticReport-eu-lab"/>
            </meta>
            <extension url="http://hl7.org/fhir/5.0/StructureDefinition/extension-DiagnosticReport.composition">
               <valueReference>
                  <reference value="urn:uuid:50629d8a-4cf6-49f4-823b-0b32e29bd906"/>
               </valueReference>
            </extension>
            <identifier>
               <system value="urn:oid:2.16.840.1.113883.2.51.999"/>
               <value value="b4634472-2153-473f-98d8-39c13108efba"/>
               <assigner>
                  <display value="HL7 Europe"/>
               </assigner>
            </identifier>
            <status value="registered"/>
            <category>
               <coding>
                  <system value="http://loinc.org"/>
                  <code value="26436-6"/>
                  <display value="Laboratory studies (set)"/>
               </coding>
            </category>
            <code>
               <coding>
                  <system value="http://loinc.org"/>
                  <code value="11502-2"/>
                  <display value="Laboratory report"/>
               </coding>
            </code>
            <subject>
               <reference value="urn:uuid:dd3180b5-0bfa-483e-9be9-7c5eeca839c0"/>
               <display value="Timothy Smith"/>
            </subject>
            <specimen>
               <reference value="urn:uuid:fdd45d75-4799-4c0d-a307-a7db1f6fb41e"/>
            </specimen>
            <specimen>
               <reference value="urn:uuid:2ca844a6-9f80-45eb-99e6-89fe96319d71"/>
            </specimen>
            <specimen>
               <reference value="urn:uuid:8702a525-7b8c-4df9-971f-533de38f07d4"/>
            </specimen>
            <result>
               <reference value="urn:uuid:9bf687b7-3f3c-4e21-ba8d-ced46eccaec1"/>
            </result>
            <result>
               <reference value="urn:uuid:7cc432ed-5698-4c2a-857e-0d1c9efed265"/>
            </result>
            <result>
               <reference value="urn:uuid:1e74876b-e629-40b5-b63a-aac7e7ab8175"/>
            </result>
            <result>
               <reference value="urn:uuid:eee7ef2e-df29-41ba-81fc-e357fbf4063a"/>
            </result>
            <result>
               <reference value="urn:uuid:06092108-5d7a-4515-a00b-0729545fb305"/>
            </result>
            <result>
               <reference value="urn:uuid:1590c296-1ca2-48a0-9d13-68d74cbf8faa"/>
            </result>
            <result>
               <reference value="urn:uuid:b8cf8d1b-1045-48ee-9a72-a4a002c3b076"/>
            </result>
            <result>
               <reference value="urn:uuid:1bf3bedc-713a-4aff-8410-15bf50a99974"/>
            </result>
            <result>
               <reference value="urn:uuid:59e3ffea-4090-4480-a79d-ebaa9e1c9a51"/>
            </result>
            <result>
               <reference value="urn:uuid:52f496aa-d3a5-43e8-af68-4588e743a312"/>
            </result>
            <result>
               <reference value="urn:uuid:69fca86c-f808-48d7-b869-d65bcf686d72"/>
            </result>
            <result>
               <reference value="urn:uuid:712688a6-2541-4f46-b6ad-5b8e1e8e0733"/>
            </result>
            <result>
               <reference value="urn:uuid:a6262243-941b-46d3-9896-c7bab947cca2"/>
            </result>
            <result>
               <reference value="urn:uuid:7f7850d0-a573-43d6-9122-d9a03f5885af"/>
            </result>
         </DiagnosticReport>
      </resource>
   </entry>
   <entry>
      <fullUrl value="urn:uuid:dd3180b5-0bfa-483e-9be9-7c5eeca839c0"/>
      <resource>
         <Patient>
            <id value="dd3180b5-0bfa-483e-9be9-7c5eeca839c0"/>
            <meta>
               <profile value="http://hl7.eu/fhir/base/StructureDefinition/patient-eu-core"/>
               <security>
                  <system value="http://terminology.hl7.org/CodeSystem/v3-ActReason"/>
                  <code value="HTEST"/>
               </security>
               <security>
                  <system value="http://terminology.hl7.org/CodeSystem/v3-ActReason"/>
                  <code value="TRAIN"/>
               </security>
               <tag>
                  <system value="https://synderai.net/fhir/CodeSystem/tags"/>
                  <code value="synthetic"/>
                  <display value="SYNDERAI Synthetic data"/>
               </tag>
            </meta>
            <text>
               <status value="generated"/>
               <div xmlns="http://www.w3.org/1999/xhtml">
                  <table class="hl7__ips">
                     <tr>
                        <td>Timothy Smith</td>
                        <td>male</td>
                        <td>10-Sep-1941</td>
                     </tr>
                  </table>
               </div>
            </text>
            <extension url="http://hl7.org/fhir/StructureDefinition/patient-nationality">
               <valueCodeableConcept>
                  <coding>
                     <system value="http://hl7.org/fhir/ValueSet/country"/>
                     <code value="GB"/>
                  </coding>
               </valueCodeableConcept>
            </extension>
            <identifier>
               <type>
                  <coding>
                     <system value="http://terminology.hl7.org/CodeSystem/v2-0203"/>
                     <code value="PT"/>
                  </coding>
               </type>
               <system value="http://ec.europa.eu/identifier/eci"/>
               <value value="8029-862360-6"/>
            </identifier>
            <identifier>
               <type>
                  <coding>
                     <system value="http://terminology.hl7.org/CodeSystem/v2-0203"/>
                     <code value="MR"/>
                  </coding>
               </type>
               <system value="http://local.setting.eu/identifier"/>
               <value value="1fe71aa8-fb8e-4622-d398-65f6235c4fef"/>
            </identifier>
            <name>
               <family value="Smith"/>
            </name>
            <name>
               <given value="Timothy"/>
            </name>
            <name>
               <text value="Timothy Smith"/>
            </name>
            <telecom>
               <system value="phone"/>
               <value value="+44(0)28 9018592"/>
            </telecom>
            <gender value="male"/>
            <birthDate value="1941-09-10"/>
            <address>
               <use value="home"/>
               <type value="physical"/>
               <line value="9 Jeffrey orchard"/>
               <city value="North Joshuaville"/>
               <postalCode value="NW1"/>
               <country value="United Kingdom"/>
            </address>
         </Patient>
      </resource>
   </entry>
   <entry>
      <fullUrl value="urn:uuid:57a88b1d-dfac-4a63-8d61-d9fefc5e013c"/>
      <resource>
         <ServiceRequest>
            <id value="57a88b1d-dfac-4a63-8d61-d9fefc5e013c"/>
            <meta>
               <profile value="http://hl7.eu/fhir/laboratory/StructureDefinition/ServiceRequest-eu-lab"/>
            </meta>
            <identifier>
               <system value="http://example.org"/>
               <value value="47f97b5e-057c-4b95-a08e-bdd2eebf3351"/>
            </identifier>
            <status value="active"/>
            <intent value="order"/>
            <code>
               <coding>
                  <system value="http://snomed.info/sct"/>
                  <code value="108252007"/>
                  <display value="Laboratory procedure"/>
               </coding>
            </code>
            <subject>
               <reference value="urn:uuid:dd3180b5-0bfa-483e-9be9-7c5eeca839c0"/>
               <display value="Timothy Smith"/>
            </subject>
            <requester>
               <reference value="urn:uuid:b297c24e-ee87-404a-92af-9b09f7ce4dfc"/>
            </requester>
            <reasonCode>
               <coding>
                  <system value="http://snomed.info/sct"/>
                  <code value="88805009"/>
                  <display value="Chronic congestive heart failure"/>
               </coding>
            </reasonCode>
            <reasonCode>
               <coding>
                  <system value="http://snomed.info/sct"/>
                  <code value="60573004"/>
                  <display value="Aortic valve stenosis"/>
               </coding>
            </reasonCode>
            <reasonCode>
               <coding>
                  <system value="http://snomed.info/sct"/>
                  <code value="414545008"/>
                  <display value="Ischemic heart disease"/>
               </coding>
            </reasonCode>
            <reasonCode>
               <coding>
                  <system value="http://snomed.info/sct"/>
                  <code value="64859006"/>
                  <display value="Osteoporosis"/>
               </coding>
            </reasonCode>
            <reasonCode>
               <coding>
                  <system value="http://snomed.info/sct"/>
                  <code value="6525002"/>
                  <display value="Dependent drug abuse"/>
               </coding>
            </reasonCode>
            <reasonCode>
               <coding>
                  <system value="http://snomed.info/sct"/>
                  <code value="55822004"/>
                  <display value="Hyperlipidemia"/>
               </coding>
            </reasonCode>
            <reasonCode>
               <coding>
                  <system value="http://snomed.info/sct"/>
                  <code value="78275009"/>
                  <display value="Obstructive sleep apnea syndrome"/>
               </coding>
            </reasonCode>
            <reasonCode>
               <coding>
                  <system value="http://snomed.info/sct"/>
                  <code value="39898005"/>
                  <display value="Sleep disorder"/>
               </coding>
            </reasonCode>
            <reasonCode>
               <coding>
                  <system value="http://snomed.info/sct"/>
                  <code value="401314000"/>
                  <display value="Acute non-ST segment elevation myocardial infarction"/>
               </coding>
            </reasonCode>
            <reasonCode>
               <coding>
                  <system value="http://snomed.info/sct"/>
                  <code value="124171000119105"/>
                  <display value="Chronic intractable migraine without aura"/>
               </coding>
            </reasonCode>
            <reasonCode>
               <coding>
                  <system value="http://snomed.info/sct"/>
                  <code value="196416002"/>
                  <display value="Impacted molars"/>
               </coding>
            </reasonCode>
            <reasonCode>
               <coding>
                  <system value="http://snomed.info/sct"/>
                  <code value="59621000"/>
                  <display value="Essential hypertension"/>
               </coding>
            </reasonCode>
            <reasonCode>
               <coding>
                  <system value="http://snomed.info/sct"/>
                  <code value="80394007"/>
                  <display value="Hyperglycemia"/>
               </coding>
            </reasonCode>
            <reasonCode>
               <coding>
                  <system value="http://snomed.info/sct"/>
                  <code value="237602007"/>
                  <display value="Metabolic syndrome X"/>
               </coding>
            </reasonCode>
            <reasonCode>
               <coding>
                  <system value="http://snomed.info/sct"/>
                  <code value="302870006"/>
                  <display value="Hypertriglyceridemia"/>
               </coding>
            </reasonCode>
            <reasonCode>
               <coding>
                  <system value="http://snomed.info/sct"/>
                  <code value="44054006"/>
                  <display value="Type 2 diabetes mellitus"/>
               </coding>
            </reasonCode>
            <reasonCode>
               <coding>
                  <system value="http://snomed.info/sct"/>
                  <code value="271737000"/>
                  <display value="Anemia"/>
               </coding>
            </reasonCode>
            <reasonCode>
               <coding>
                  <system value="http://snomed.info/sct"/>
                  <code value="15777000"/>
                  <display value="Prediabetes"/>
               </coding>
            </reasonCode>
            <specimen>
               <reference value="urn:uuid:fdd45d75-4799-4c0d-a307-a7db1f6fb41e"/>
            </specimen>
            <specimen>
               <reference value="urn:uuid:2ca844a6-9f80-45eb-99e6-89fe96319d71"/>
            </specimen>
            <specimen>
               <reference value="urn:uuid:8702a525-7b8c-4df9-971f-533de38f07d4"/>
            </specimen>
         </ServiceRequest>
      </resource>
   </entry>
   <entry>
      <fullUrl value="urn:uuid:b297c24e-ee87-404a-92af-9b09f7ce4dfc"/>
      <resource>
         <PractitionerRole>
            <id value="b297c24e-ee87-404a-92af-9b09f7ce4dfc"/>
            <meta>
               <profile value="http://hl7.eu/fhir/base/StructureDefinition/practitionerRole-eu"/>
            </meta>
            <text>
               <status value="generated"/>
               <div xmlns="http://www.w3.org/1999/xhtml">Provider Role Id: b297c24e-ee87-404a-92af-9b09f7ce4dfc</div>
            </text>
            <organization>
               <reference value="urn:uuid:57914a7e-6ceb-44dc-ad68-5293271db1fe"/>
            </organization>
         </PractitionerRole>
      </resource>
   </entry>
   <entry>
      <fullUrl value="urn:uuid:57914a7e-6ceb-44dc-ad68-5293271db1fe"/>
      <resource>
         <Organization>
            <id value="57914a7e-6ceb-44dc-ad68-5293271db1fe"/>
            <meta>
               <profile value="http://hl7.eu/fhir/base/StructureDefinition/organization-eu"/>
            </meta>
            <text>
               <status value="generated"/>
               <div xmlns="http://www.w3.org/1999/xhtml">Provider Organization: Evelina Children's Hospital</div>
            </text>
            <identifier>
               <system value="urn:oid:2.16.840.1.113883.2.51.999"/>
               <value value="e080ff56-9e2e-4444-ba9e-831f64dc9699"/>
               <assigner>
                  <display value="HL7 Europe"/>
               </assigner>
            </identifier>
            <name value="Evelina Children&amp;#039;s Hospital"/>
            <address>
               <city value="London"/>
               <postalCode value="SE1 7"/>
               <country value="United Kingdom"/>
            </address>
         </Organization>
      </resource>
   </entry>
   <entry>
      <fullUrl value="urn:uuid:fdd45d75-4799-4c0d-a307-a7db1f6fb41e"/>
      <resource>
         <Specimen>
            <id value="fdd45d75-4799-4c0d-a307-a7db1f6fb41e"/>
            <meta>
               <profile value="http://hl7.eu/fhir/laboratory/StructureDefinition/Specimen-eu-lab"/>
            </meta>
            <text>
               <status value="generated"/>
               <div xmlns="http://www.w3.org/1999/xhtml">
                  <table class="hl7__eu__lab__report">
                     <tr>
                        <th>Specimen</th>
                        <th>Collection Date</th>
                     </tr>
                     <tr>
                        <td>Whole blood specimen (specimen)</td>
                        <td>
                           <span class="nb">11-Dec-2017</span>
                        </td>
                     </tr>
                  </table>
               </div>
            </text>
            <type>
               <coding>
                  <system value="http://snomed.info/sct"/>
                  <code value="258580003"/>
                  <display value="Whole blood specimen (specimen)"/>
               </coding>
            </type>
            <collection>
               <collectedDateTime value="2017-12-11"/>
            </collection>
         </Specimen>
      </resource>
   </entry>
   <entry>
      <fullUrl value="urn:uuid:2ca844a6-9f80-45eb-99e6-89fe96319d71"/>
      <resource>
         <Specimen>
            <id value="2ca844a6-9f80-45eb-99e6-89fe96319d71"/>
            <meta>
               <profile value="http://hl7.eu/fhir/laboratory/StructureDefinition/Specimen-eu-lab"/>
            </meta>
            <text>
               <status value="generated"/>
               <div xmlns="http://www.w3.org/1999/xhtml">
                  <table class="hl7__eu__lab__report">
                     <tr>
                        <th>Specimen</th>
                        <th>Collection Date</th>
                     </tr>
                     <tr>
                        <td>Acellular blood (serum or plasma) specimen</td>
                        <td>
                           <span class="nb">11-Dec-2017</span>
                        </td>
                     </tr>
                  </table>
               </div>
            </text>
            <type>
               <coding>
                  <system value="http://snomed.info/sct"/>
                  <code value="122592007"/>
                  <display value="Acellular blood (serum or plasma) specimen"/>
               </coding>
            </type>
            <collection>
               <collectedDateTime value="2017-12-11"/>
            </collection>
         </Specimen>
      </resource>
   </entry>
   <entry>
      <fullUrl value="urn:uuid:8702a525-7b8c-4df9-971f-533de38f07d4"/>
      <resource>
         <Specimen>
            <id value="8702a525-7b8c-4df9-971f-533de38f07d4"/>
            <meta>
               <profile value="http://hl7.eu/fhir/laboratory/StructureDefinition/Specimen-eu-lab"/>
            </meta>
            <text>
               <status value="generated"/>
               <div xmlns="http://www.w3.org/1999/xhtml">
                  <table class="hl7__eu__lab__report">
                     <tr>
                        <th>Specimen</th>
                        <th>Collection Date</th>
                     </tr>
                     <tr>
                        <td>Urine specimen</td>
                        <td>
                           <span class="nb">11-Dec-2017</span>
                        </td>
                     </tr>
                  </table>
               </div>
            </text>
            <type>
               <coding>
                  <system value="http://snomed.info/sct"/>
                  <code value="122575003"/>
                  <display value="Urine specimen"/>
               </coding>
            </type>
            <collection>
               <collectedDateTime value="2017-12-11"/>
            </collection>
         </Specimen>
      </resource>
   </entry>
   <entry>
      <fullUrl value="urn:uuid:9bf687b7-3f3c-4e21-ba8d-ced46eccaec1"/>
      <resource>
         <Observation>
            <id value="9bf687b7-3f3c-4e21-ba8d-ced46eccaec1"/>
            <meta>
               <profile value="http://hl7.eu/fhir/laboratory/StructureDefinition/Observation-resultslab-eu-lab"/>
            </meta>
            <text>
               <status value="generated"/>
               <div xmlns="http://www.w3.org/1999/xhtml">
                  <table class="hl7__eu__lab__report">
                     <tr>
                        <th>Test</th>
                        <th>11-Dec-2017</th>
                        <th>Reference Range</th>
                        <th>Unit</th>
                     </tr>
                     <tr>
                        <td>Hemoglobin A1c/Hemoglobin.total in Blood</td>
                        <td>5.5</td>
                        <td>4.5 - 6.4</td>
                        <td/>
                        <td>%</td>
                     </tr>
                  </table>
               </div>
            </text>
            <status value="final"/>
            <category>
               <coding>
                  <system value="http://terminology.hl7.org/CodeSystem/observation-category"/>
                  <code value="laboratory"/>
               </coding>
            </category>
            <code>
               <coding>
                  <system value="http://loinc.org"/>
                  <code value="4548-4"/>
                  <display value="Hemoglobin A1c/Hemoglobin.total in Blood"/>
               </coding>
               <text value="Hemoglobin A1c/Hemoglobin.total in Blood"/>
            </code>
            <subject>
               <reference value="urn:uuid:dd3180b5-0bfa-483e-9be9-7c5eeca839c0"/>
               <display value="Timothy Smith"/>
            </subject>
            <effectiveDateTime value="2017-12-11T15:48:21Z"/>
            <performer>
               <display value="The Central European Lab"/>
            </performer>
            <valueQuantity>
               <value value="5.5"/>
               <unit value="%"/>
               <system value="http://unitsofmeasure.org"/>
               <code value="%"/>
            </valueQuantity>
            <specimen>
               <reference value="urn:uuid:fdd45d75-4799-4c0d-a307-a7db1f6fb41e"/>
            </specimen>
            <referenceRange>
               <low>
                  <value value="4.5"/>
                  <system value="http://unitsofmeasure.org"/>
                  <code value="%"/>
               </low>
            </referenceRange>
            <referenceRange>
               <high>
                  <value value="6.4"/>
                  <system value="http://unitsofmeasure.org"/>
                  <code value="%"/>
               </high>
            </referenceRange>
         </Observation>
      </resource>
   </entry>
   <entry>
      <fullUrl value="urn:uuid:7cc432ed-5698-4c2a-857e-0d1c9efed265"/>
      <resource>
         <Observation>
            <id value="7cc432ed-5698-4c2a-857e-0d1c9efed265"/>
            <meta>
               <profile value="http://hl7.eu/fhir/laboratory/StructureDefinition/Observation-resultslab-eu-lab"/>
            </meta>
            <text>
               <status value="generated"/>
               <div xmlns="http://www.w3.org/1999/xhtml">
                  <table class="hl7__eu__lab__report">
                     <tr>
                        <th>Test</th>
                        <th>11-Dec-2017</th>
                        <th>Reference Range</th>
                        <th>Unit</th>
                     </tr>
                     <tr>
                        <td>Glucose [Mass/volume] in Blood</td>
                        <td>139.2</td>
                        <td>70 - 140</td>
                        <td/>
                        <td>mg/dL</td>
                     </tr>
                  </table>
               </div>
            </text>
            <status value="final"/>
            <category>
               <coding>
                  <system value="http://terminology.hl7.org/CodeSystem/observation-category"/>
                  <code value="laboratory"/>
               </coding>
            </category>
            <code>
               <coding>
                  <system value="http://loinc.org"/>
                  <code value="2339-0"/>
                  <display value="Glucose [Mass/volume] in Blood"/>
               </coding>
               <text value="Glucose [Mass/volume] in Blood"/>
            </code>
            <subject>
               <reference value="urn:uuid:dd3180b5-0bfa-483e-9be9-7c5eeca839c0"/>
               <display value="Timothy Smith"/>
            </subject>
            <effectiveDateTime value="2017-12-11T15:48:21Z"/>
            <performer>
               <display value="The Central European Lab"/>
            </performer>
            <valueQuantity>
               <value value="139.2"/>
               <unit value="mg/dL"/>
               <system value="http://unitsofmeasure.org"/>
               <code value="mg/dL"/>
            </valueQuantity>
            <specimen>
               <reference value="urn:uuid:fdd45d75-4799-4c0d-a307-a7db1f6fb41e"/>
            </specimen>
            <referenceRange>
               <low>
                  <value value="70"/>
                  <system value="http://unitsofmeasure.org"/>
                  <code value="mg/dL"/>
               </low>
            </referenceRange>
            <referenceRange>
               <high>
                  <value value="140"/>
                  <system value="http://unitsofmeasure.org"/>
                  <code value="mg/dL"/>
               </high>
            </referenceRange>
         </Observation>
      </resource>
   </entry>
   <entry>
      <fullUrl value="urn:uuid:1e74876b-e629-40b5-b63a-aac7e7ab8175"/>
      <resource>
         <Observation>
            <id value="1e74876b-e629-40b5-b63a-aac7e7ab8175"/>
            <meta>
               <profile value="http://hl7.eu/fhir/laboratory/StructureDefinition/Observation-resultslab-eu-lab"/>
            </meta>
            <text>
               <status value="generated"/>
               <div xmlns="http://www.w3.org/1999/xhtml">
                  <table class="hl7__eu__lab__report">
                     <tr>
                        <th>Test</th>
                        <th>11-Dec-2017</th>
                        <th>Reference Range</th>
                        <th>Unit</th>
                     </tr>
                     <tr>
                        <td>Urea nitrogen [Mass/volume] in Blood</td>
                        <td>19.8</td>
                        <td>7 - 25</td>
                        <td/>
                        <td>mg/dL</td>
                     </tr>
                  </table>
               </div>
            </text>
            <status value="final"/>
            <category>
               <coding>
                  <system value="http://terminology.hl7.org/CodeSystem/observation-category"/>
                  <code value="laboratory"/>
               </coding>
            </category>
            <code>
               <coding>
                  <system value="http://loinc.org"/>
                  <code value="6299-2"/>
                  <display value="Urea nitrogen [Mass/volume] in Blood"/>
               </coding>
               <text value="Urea nitrogen [Mass/volume] in Blood"/>
            </code>
            <subject>
               <reference value="urn:uuid:dd3180b5-0bfa-483e-9be9-7c5eeca839c0"/>
               <display value="Timothy Smith"/>
            </subject>
            <effectiveDateTime value="2017-12-11T15:48:21Z"/>
            <performer>
               <display value="The Central European Lab"/>
            </performer>
            <valueQuantity>
               <value value="19.8"/>
               <unit value="mg/dL"/>
               <system value="http://unitsofmeasure.org"/>
               <code value="mg/dL"/>
            </valueQuantity>
            <specimen>
               <reference value="urn:uuid:fdd45d75-4799-4c0d-a307-a7db1f6fb41e"/>
            </specimen>
            <referenceRange>
               <low>
                  <value value="7"/>
                  <system value="http://unitsofmeasure.org"/>
                  <code value="mg/dL"/>
               </low>
            </referenceRange>
            <referenceRange>
               <high>
                  <value value="25"/>
                  <system value="http://unitsofmeasure.org"/>
                  <code value="mg/dL"/>
               </high>
            </referenceRange>
         </Observation>
      </resource>
   </entry>
   <entry>
      <fullUrl value="urn:uuid:eee7ef2e-df29-41ba-81fc-e357fbf4063a"/>
      <resource>
         <Observation>
            <id value="eee7ef2e-df29-41ba-81fc-e357fbf4063a"/>
            <meta>
               <profile value="http://hl7.eu/fhir/laboratory/StructureDefinition/Observation-resultslab-eu-lab"/>
            </meta>
            <text>
               <status value="generated"/>
               <div xmlns="http://www.w3.org/1999/xhtml">
                  <table class="hl7__eu__lab__report">
                     <tr>
                        <th>Test</th>
                        <th>11-Dec-2017</th>
                        <th>Reference Range</th>
                        <th>Unit</th>
                     </tr>
                     <tr>
                        <td>Creatinine [Mass/volume] in Blood</td>
                        <td>0.9</td>
                        <td>0.6 - 1.3</td>
                        <td/>
                        <td>mg/dL</td>
                     </tr>
                  </table>
               </div>
            </text>
            <status value="final"/>
            <category>
               <coding>
                  <system value="http://terminology.hl7.org/CodeSystem/observation-category"/>
                  <code value="laboratory"/>
               </coding>
            </category>
            <code>
               <coding>
                  <system value="http://loinc.org"/>
                  <code value="38483-4"/>
                  <display value="Creatinine [Mass/volume] in Blood"/>
               </coding>
               <text value="Creatinine [Mass/volume] in Blood"/>
            </code>
            <subject>
               <reference value="urn:uuid:dd3180b5-0bfa-483e-9be9-7c5eeca839c0"/>
               <display value="Timothy Smith"/>
            </subject>
            <effectiveDateTime value="2017-12-11T15:48:21Z"/>
            <performer>
               <display value="The Central European Lab"/>
            </performer>
            <valueQuantity>
               <value value="0.9"/>
               <unit value="mg/dL"/>
               <system value="http://unitsofmeasure.org"/>
               <code value="mg/dL"/>
            </valueQuantity>
            <specimen>
               <reference value="urn:uuid:fdd45d75-4799-4c0d-a307-a7db1f6fb41e"/>
            </specimen>
            <referenceRange>
               <low>
                  <value value="0.6"/>
                  <system value="http://unitsofmeasure.org"/>
                  <code value="mg/dL"/>
               </low>
            </referenceRange>
            <referenceRange>
               <high>
                  <value value="1.3"/>
                  <system value="http://unitsofmeasure.org"/>
                  <code value="mg/dL"/>
               </high>
            </referenceRange>
         </Observation>
      </resource>
   </entry>
   <entry>
      <fullUrl value="urn:uuid:06092108-5d7a-4515-a00b-0729545fb305"/>
      <resource>
         <Observation>
            <id value="06092108-5d7a-4515-a00b-0729545fb305"/>
            <meta>
               <profile value="http://hl7.eu/fhir/laboratory/StructureDefinition/Observation-resultslab-eu-lab"/>
            </meta>
            <text>
               <status value="generated"/>
               <div xmlns="http://www.w3.org/1999/xhtml">
                  <table class="hl7__eu__lab__report">
                     <tr>
                        <th>Test</th>
                        <th>11-Dec-2017</th>
                        <th>Reference Range</th>
                        <th>Unit</th>
                     </tr>
                     <tr>
                        <td>Calcium [Mass/volume] in Blood</td>
                        <td>8.8</td>
                        <td>8.5 - 10.5</td>
                        <td/>
                        <td>mg/dL</td>
                     </tr>
                  </table>
               </div>
            </text>
            <status value="final"/>
            <category>
               <coding>
                  <system value="http://terminology.hl7.org/CodeSystem/observation-category"/>
                  <code value="laboratory"/>
               </coding>
            </category>
            <code>
               <coding>
                  <system value="http://loinc.org"/>
                  <code value="49765-1"/>
                  <display value="Calcium [Mass/volume] in Blood"/>
               </coding>
               <text value="Calcium [Mass/volume] in Blood"/>
            </code>
            <subject>
               <reference value="urn:uuid:dd3180b5-0bfa-483e-9be9-7c5eeca839c0"/>
               <display value="Timothy Smith"/>
            </subject>
            <effectiveDateTime value="2017-12-11T15:48:21Z"/>
            <performer>
               <display value="The Central European Lab"/>
            </performer>
            <valueQuantity>
               <value value="8.8"/>
               <unit value="mg/dL"/>
               <system value="http://unitsofmeasure.org"/>
               <code value="mg/dL"/>
            </valueQuantity>
            <specimen>
               <reference value="urn:uuid:fdd45d75-4799-4c0d-a307-a7db1f6fb41e"/>
            </specimen>
            <referenceRange>
               <low>
                  <value value="8.5"/>
                  <system value="http://unitsofmeasure.org"/>
                  <code value="mg/dL"/>
               </low>
            </referenceRange>
            <referenceRange>
               <high>
                  <value value="10.5"/>
                  <system value="http://unitsofmeasure.org"/>
                  <code value="mg/dL"/>
               </high>
            </referenceRange>
         </Observation>
      </resource>
   </entry>
   <entry>
      <fullUrl value="urn:uuid:1590c296-1ca2-48a0-9d13-68d74cbf8faa"/>
      <resource>
         <Observation>
            <id value="1590c296-1ca2-48a0-9d13-68d74cbf8faa"/>
            <meta>
               <profile value="http://hl7.eu/fhir/laboratory/StructureDefinition/Observation-resultslab-eu-lab"/>
            </meta>
            <text>
               <status value="generated"/>
               <div xmlns="http://www.w3.org/1999/xhtml">
                  <table class="hl7__eu__lab__report">
                     <tr>
                        <th>Test</th>
                        <th>11-Dec-2017</th>
                        <th>Reference Range</th>
                        <th>Unit</th>
                     </tr>
                     <tr>
                        <td>Sodium [Moles/volume] in Blood</td>
                        <td>138.4</td>
                        <td>135 - 145</td>
                        <td/>
                        <td>mmol/L</td>
                     </tr>
                  </table>
               </div>
            </text>
            <status value="final"/>
            <category>
               <coding>
                  <system value="http://terminology.hl7.org/CodeSystem/observation-category"/>
                  <code value="laboratory"/>
               </coding>
            </category>
            <code>
               <coding>
                  <system value="http://loinc.org"/>
                  <code value="2947-0"/>
                  <display value="Sodium [Moles/volume] in Blood"/>
               </coding>
               <text value="Sodium [Moles/volume] in Blood"/>
            </code>
            <subject>
               <reference value="urn:uuid:dd3180b5-0bfa-483e-9be9-7c5eeca839c0"/>
               <display value="Timothy Smith"/>
            </subject>
            <effectiveDateTime value="2017-12-11T15:48:21Z"/>
            <performer>
               <display value="The Central European Lab"/>
            </performer>
            <valueQuantity>
               <value value="138.4"/>
               <unit value="mmol/L"/>
               <system value="http://unitsofmeasure.org"/>
               <code value="mmol/L"/>
            </valueQuantity>
            <specimen>
               <reference value="urn:uuid:fdd45d75-4799-4c0d-a307-a7db1f6fb41e"/>
            </specimen>
            <referenceRange>
               <low>
                  <value value="135"/>
                  <system value="http://unitsofmeasure.org"/>
                  <code value="mmol/L"/>
               </low>
            </referenceRange>
            <referenceRange>
               <high>
                  <value value="145"/>
                  <system value="http://unitsofmeasure.org"/>
                  <code value="mmol/L"/>
               </high>
            </referenceRange>
         </Observation>
      </resource>
   </entry>
   <entry>
      <fullUrl value="urn:uuid:b8cf8d1b-1045-48ee-9a72-a4a002c3b076"/>
      <resource>
         <Observation>
            <id value="b8cf8d1b-1045-48ee-9a72-a4a002c3b076"/>
            <meta>
               <profile value="http://hl7.eu/fhir/laboratory/StructureDefinition/Observation-resultslab-eu-lab"/>
            </meta>
            <text>
               <status value="generated"/>
               <div xmlns="http://www.w3.org/1999/xhtml">
                  <table class="hl7__eu__lab__report">
                     <tr>
                        <th>Test</th>
                        <th>11-Dec-2017</th>
                        <th>Reference Range</th>
                        <th>Unit</th>
                     </tr>
                     <tr>
                        <td>Potassium [Moles/volume] in Blood</td>
                        <td>5.2</td>
                        <td>3.5 - 5.1</td>
                        <td>H</td>
                        <td>mmol/L</td>
                     </tr>
                  </table>
               </div>
            </text>
            <status value="final"/>
            <category>
               <coding>
                  <system value="http://terminology.hl7.org/CodeSystem/observation-category"/>
                  <code value="laboratory"/>
               </coding>
            </category>
            <code>
               <coding>
                  <system value="http://loinc.org"/>
                  <code value="6298-4"/>
                  <display value="Potassium [Moles/volume] in Blood"/>
               </coding>
               <text value="Potassium [Moles/volume] in Blood"/>
            </code>
            <subject>
               <reference value="urn:uuid:dd3180b5-0bfa-483e-9be9-7c5eeca839c0"/>
               <display value="Timothy Smith"/>
            </subject>
            <effectiveDateTime value="2017-12-11T15:48:21Z"/>
            <performer>
               <display value="The Central European Lab"/>
            </performer>
            <valueQuantity>
               <value value="5.2"/>
               <unit value="mmol/L"/>
               <system value="http://unitsofmeasure.org"/>
               <code value="mmol/L"/>
            </valueQuantity>
            <interpretation>
               <coding>
                  <system value="http://terminology.hl7.org/CodeSystem/v3-ObservationInterpretation"/>
                  <code value="H"/>
                  <display value="High"/>
               </coding>
            </interpretation>
            <specimen>
               <reference value="urn:uuid:fdd45d75-4799-4c0d-a307-a7db1f6fb41e"/>
            </specimen>
            <referenceRange>
               <low>
                  <value value="3.5"/>
                  <system value="http://unitsofmeasure.org"/>
                  <code value="mmol/L"/>
               </low>
            </referenceRange>
            <referenceRange>
               <high>
                  <value value="5.1"/>
                  <system value="http://unitsofmeasure.org"/>
                  <code value="mmol/L"/>
               </high>
            </referenceRange>
         </Observation>
      </resource>
   </entry>
   <entry>
      <fullUrl value="urn:uuid:1bf3bedc-713a-4aff-8410-15bf50a99974"/>
      <resource>
         <Observation>
            <id value="1bf3bedc-713a-4aff-8410-15bf50a99974"/>
            <meta>
               <profile value="http://hl7.eu/fhir/laboratory/StructureDefinition/Observation-resultslab-eu-lab"/>
            </meta>
            <text>
               <status value="generated"/>
               <div xmlns="http://www.w3.org/1999/xhtml">
                  <table class="hl7__eu__lab__report">
                     <tr>
                        <th>Test</th>
                        <th>11-Dec-2017</th>
                        <th>Reference Range</th>
                        <th>Unit</th>
                     </tr>
                     <tr>
                        <td>Chloride [Moles/volume] in Blood</td>
                        <td>105.2</td>
                        <td>98 - 107</td>
                        <td/>
                        <td>mmol/L</td>
                     </tr>
                  </table>
               </div>
            </text>
            <status value="final"/>
            <category>
               <coding>
                  <system value="http://terminology.hl7.org/CodeSystem/observation-category"/>
                  <code value="laboratory"/>
               </coding>
            </category>
            <code>
               <coding>
                  <system value="http://loinc.org"/>
                  <code value="2069-3"/>
                  <display value="Chloride [Moles/volume] in Blood"/>
               </coding>
               <text value="Chloride [Moles/volume] in Blood"/>
            </code>
            <subject>
               <reference value="urn:uuid:dd3180b5-0bfa-483e-9be9-7c5eeca839c0"/>
               <display value="Timothy Smith"/>
            </subject>
            <effectiveDateTime value="2017-12-11T15:48:21Z"/>
            <performer>
               <display value="The Central European Lab"/>
            </performer>
            <valueQuantity>
               <value value="105.2"/>
               <unit value="mmol/L"/>
               <system value="http://unitsofmeasure.org"/>
               <code value="mmol/L"/>
            </valueQuantity>
            <specimen>
               <reference value="urn:uuid:fdd45d75-4799-4c0d-a307-a7db1f6fb41e"/>
            </specimen>
            <referenceRange>
               <low>
                  <value value="98"/>
                  <system value="http://unitsofmeasure.org"/>
                  <code value="mmol/L"/>
               </low>
            </referenceRange>
            <referenceRange>
               <high>
                  <value value="107"/>
                  <system value="http://unitsofmeasure.org"/>
                  <code value="mmol/L"/>
               </high>
            </referenceRange>
         </Observation>
      </resource>
   </entry>
   <entry>
      <fullUrl value="urn:uuid:59e3ffea-4090-4480-a79d-ebaa9e1c9a51"/>
      <resource>
         <Observation>
            <id value="59e3ffea-4090-4480-a79d-ebaa9e1c9a51"/>
            <meta>
               <profile value="http://hl7.eu/fhir/laboratory/StructureDefinition/Observation-resultslab-eu-lab"/>
            </meta>
            <text>
               <status value="generated"/>
               <div xmlns="http://www.w3.org/1999/xhtml">
                  <table class="hl7__eu__lab__report">
                     <tr>
                        <th>Test</th>
                        <th>11-Dec-2017</th>
                        <th>Reference Range</th>
                        <th>Unit</th>
                     </tr>
                     <tr>
                        <td>Carbon dioxide, total [Moles/volume] in Blood</td>
                        <td>24.3</td>
                        <td>22 - 29</td>
                        <td/>
                        <td>mmol/L</td>
                     </tr>
                  </table>
               </div>
            </text>
            <status value="final"/>
            <category>
               <coding>
                  <system value="http://terminology.hl7.org/CodeSystem/observation-category"/>
                  <code value="laboratory"/>
               </coding>
            </category>
            <code>
               <coding>
                  <system value="http://loinc.org"/>
                  <code value="20565-8"/>
                  <display value="Carbon dioxide, total [Moles/volume] in Blood"/>
               </coding>
               <text value="Carbon dioxide, total [Moles/volume] in Blood"/>
            </code>
            <subject>
               <reference value="urn:uuid:dd3180b5-0bfa-483e-9be9-7c5eeca839c0"/>
               <display value="Timothy Smith"/>
            </subject>
            <effectiveDateTime value="2017-12-11T15:48:21Z"/>
            <performer>
               <display value="The Central European Lab"/>
            </performer>
            <valueQuantity>
               <value value="24.3"/>
               <unit value="mmol/L"/>
               <system value="http://unitsofmeasure.org"/>
               <code value="mmol/L"/>
            </valueQuantity>
            <specimen>
               <reference value="urn:uuid:fdd45d75-4799-4c0d-a307-a7db1f6fb41e"/>
            </specimen>
            <referenceRange>
               <low>
                  <value value="22"/>
                  <system value="http://unitsofmeasure.org"/>
                  <code value="mmol/L"/>
               </low>
            </referenceRange>
            <referenceRange>
               <high>
                  <value value="29"/>
                  <system value="http://unitsofmeasure.org"/>
                  <code value="mmol/L"/>
               </high>
            </referenceRange>
         </Observation>
      </resource>
   </entry>
   <entry>
      <fullUrl value="urn:uuid:52f496aa-d3a5-43e8-af68-4588e743a312"/>
      <resource>
         <Observation>
            <id value="52f496aa-d3a5-43e8-af68-4588e743a312"/>
            <meta>
               <profile value="http://hl7.eu/fhir/laboratory/StructureDefinition/Observation-resultslab-eu-lab"/>
            </meta>
            <text>
               <status value="generated"/>
               <div xmlns="http://www.w3.org/1999/xhtml">
                  <table class="hl7__eu__lab__report">
                     <tr>
                        <th>Test</th>
                        <th>11-Dec-2017</th>
                        <th>Reference Range</th>
                        <th>Unit</th>
                     </tr>
                     <tr>
                        <td>Cholesterol [Mass/volume] in Serum or Plasma</td>
                        <td>258.6</td>
                        <td>0 - 200</td>
                        <td>H</td>
                        <td>mg/dL</td>
                     </tr>
                  </table>
               </div>
            </text>
            <status value="final"/>
            <category>
               <coding>
                  <system value="http://terminology.hl7.org/CodeSystem/observation-category"/>
                  <code value="laboratory"/>
               </coding>
            </category>
            <code>
               <coding>
                  <system value="http://loinc.org"/>
                  <code value="2093-3"/>
                  <display value="Cholesterol [Mass/volume] in Serum or Plasma"/>
               </coding>
               <text value="Cholesterol [Mass/volume] in Serum or Plasma"/>
            </code>
            <subject>
               <reference value="urn:uuid:dd3180b5-0bfa-483e-9be9-7c5eeca839c0"/>
               <display value="Timothy Smith"/>
            </subject>
            <effectiveDateTime value="2017-12-11T15:48:21Z"/>
            <performer>
               <display value="The Central European Lab"/>
            </performer>
            <valueQuantity>
               <value value="258.6"/>
               <unit value="mg/dL"/>
               <system value="http://unitsofmeasure.org"/>
               <code value="mg/dL"/>
            </valueQuantity>
            <interpretation>
               <coding>
                  <system value="http://terminology.hl7.org/CodeSystem/v3-ObservationInterpretation"/>
                  <code value="H"/>
                  <display value="High"/>
               </coding>
            </interpretation>
            <specimen>
               <reference value="urn:uuid:2ca844a6-9f80-45eb-99e6-89fe96319d71"/>
            </specimen>
            <referenceRange>
               <low>
                  <value value="0"/>
                  <system value="http://unitsofmeasure.org"/>
                  <code value="mg/dL"/>
               </low>
            </referenceRange>
            <referenceRange>
               <high>
                  <value value="200"/>
                  <system value="http://unitsofmeasure.org"/>
                  <code value="mg/dL"/>
               </high>
            </referenceRange>
         </Observation>
      </resource>
   </entry>
   <entry>
      <fullUrl value="urn:uuid:69fca86c-f808-48d7-b869-d65bcf686d72"/>
      <resource>
         <Observation>
            <id value="69fca86c-f808-48d7-b869-d65bcf686d72"/>
            <meta>
               <profile value="http://hl7.eu/fhir/laboratory/StructureDefinition/Observation-resultslab-eu-lab"/>
            </meta>
            <text>
               <status value="generated"/>
               <div xmlns="http://www.w3.org/1999/xhtml">
                  <table class="hl7__eu__lab__report">
                     <tr>
                        <th>Test</th>
                        <th>11-Dec-2017</th>
                        <th>Reference Range</th>
                        <th>Unit</th>
                     </tr>
                     <tr>
                        <td>Triglyceride [Mass/volume] in Serum or Plasma</td>
                        <td>434.8</td>
                        <td>0 - 199</td>
                        <td>H</td>
                        <td>mg/dL</td>
                     </tr>
                  </table>
               </div>
            </text>
            <status value="final"/>
            <category>
               <coding>
                  <system value="http://terminology.hl7.org/CodeSystem/observation-category"/>
                  <code value="laboratory"/>
               </coding>
            </category>
            <code>
               <coding>
                  <system value="http://loinc.org"/>
                  <code value="2571-8"/>
                  <display value="Triglyceride [Mass/volume] in Serum or Plasma"/>
               </coding>
               <text value="Triglyceride [Mass/volume] in Serum or Plasma"/>
            </code>
            <subject>
               <reference value="urn:uuid:dd3180b5-0bfa-483e-9be9-7c5eeca839c0"/>
               <display value="Timothy Smith"/>
            </subject>
            <effectiveDateTime value="2017-12-11T15:48:21Z"/>
            <performer>
               <display value="The Central European Lab"/>
            </performer>
            <valueQuantity>
               <value value="434.8"/>
               <unit value="mg/dL"/>
               <system value="http://unitsofmeasure.org"/>
               <code value="mg/dL"/>
            </valueQuantity>
            <interpretation>
               <coding>
                  <system value="http://terminology.hl7.org/CodeSystem/v3-ObservationInterpretation"/>
                  <code value="H"/>
                  <display value="High"/>
               </coding>
            </interpretation>
            <specimen>
               <reference value="urn:uuid:2ca844a6-9f80-45eb-99e6-89fe96319d71"/>
            </specimen>
            <referenceRange>
               <low>
                  <value value="0"/>
                  <system value="http://unitsofmeasure.org"/>
                  <code value="mg/dL"/>
               </low>
            </referenceRange>
            <referenceRange>
               <high>
                  <value value="199"/>
                  <system value="http://unitsofmeasure.org"/>
                  <code value="mg/dL"/>
               </high>
            </referenceRange>
         </Observation>
      </resource>
   </entry>
   <entry>
      <fullUrl value="urn:uuid:712688a6-2541-4f46-b6ad-5b8e1e8e0733"/>
      <resource>
         <Observation>
            <id value="712688a6-2541-4f46-b6ad-5b8e1e8e0733"/>
            <meta>
               <profile value="http://hl7.eu/fhir/laboratory/StructureDefinition/Observation-resultslab-eu-lab"/>
            </meta>
            <text>
               <status value="generated"/>
               <div xmlns="http://www.w3.org/1999/xhtml">
                  <table class="hl7__eu__lab__report">
                     <tr>
                        <th>Test</th>
                        <th>11-Dec-2017</th>
                        <th>Reference Range</th>
                        <th>Unit</th>
                     </tr>
                     <tr>
                        <td>Cholesterol in LDL [Mass/volume] in Serum or Plasma by Direct assay</td>
                        <td>151.3</td>
                        <td>0 - 130</td>
                        <td>H</td>
                        <td>mg/dL</td>
                     </tr>
                  </table>
               </div>
            </text>
            <status value="final"/>
            <category>
               <coding>
                  <system value="http://terminology.hl7.org/CodeSystem/observation-category"/>
                  <code value="laboratory"/>
               </coding>
            </category>
            <code>
               <coding>
                  <system value="http://loinc.org"/>
                  <code value="18262-6"/>
                  <display value="Cholesterol in LDL [Mass/volume] in Serum or Plasma by Direct assay"/>
               </coding>
               <text value="Cholesterol in LDL [Mass/volume] in Serum or Plasma by Direct assay"/>
            </code>
            <subject>
               <reference value="urn:uuid:dd3180b5-0bfa-483e-9be9-7c5eeca839c0"/>
               <display value="Timothy Smith"/>
            </subject>
            <effectiveDateTime value="2017-12-11T15:48:21Z"/>
            <performer>
               <display value="The Central European Lab"/>
            </performer>
            <valueQuantity>
               <value value="151.3"/>
               <unit value="mg/dL"/>
               <system value="http://unitsofmeasure.org"/>
               <code value="mg/dL"/>
            </valueQuantity>
            <interpretation>
               <coding>
                  <system value="http://terminology.hl7.org/CodeSystem/v3-ObservationInterpretation"/>
                  <code value="H"/>
                  <display value="High"/>
               </coding>
            </interpretation>
            <specimen>
               <reference value="urn:uuid:2ca844a6-9f80-45eb-99e6-89fe96319d71"/>
            </specimen>
            <referenceRange>
               <low>
                  <value value="0"/>
                  <system value="http://unitsofmeasure.org"/>
                  <code value="mg/dL"/>
               </low>
            </referenceRange>
            <referenceRange>
               <high>
                  <value value="130"/>
                  <system value="http://unitsofmeasure.org"/>
                  <code value="mg/dL"/>
               </high>
            </referenceRange>
         </Observation>
      </resource>
   </entry>
   <entry>
      <fullUrl value="urn:uuid:a6262243-941b-46d3-9896-c7bab947cca2"/>
      <resource>
         <Observation>
            <id value="a6262243-941b-46d3-9896-c7bab947cca2"/>
            <meta>
               <profile value="http://hl7.eu/fhir/laboratory/StructureDefinition/Observation-resultslab-eu-lab"/>
            </meta>
            <text>
               <status value="generated"/>
               <div xmlns="http://www.w3.org/1999/xhtml">
                  <table class="hl7__eu__lab__report">
                     <tr>
                        <th>Test</th>
                        <th>11-Dec-2017</th>
                        <th>Reference Range</th>
                        <th>Unit</th>
                     </tr>
                     <tr>
                        <td>Cholesterol in HDL [Mass/volume] in Serum or Plasma</td>
                        <td>20.4</td>
                        <td>40 - 100</td>
                        <td>L</td>
                        <td>mg/dL</td>
                     </tr>
                  </table>
               </div>
            </text>
            <status value="final"/>
            <category>
               <coding>
                  <system value="http://terminology.hl7.org/CodeSystem/observation-category"/>
                  <code value="laboratory"/>
               </coding>
            </category>
            <code>
               <coding>
                  <system value="http://loinc.org"/>
                  <code value="2085-9"/>
                  <display value="Cholesterol in HDL [Mass/volume] in Serum or Plasma"/>
               </coding>
               <text value="Cholesterol in HDL [Mass/volume] in Serum or Plasma"/>
            </code>
            <subject>
               <reference value="urn:uuid:dd3180b5-0bfa-483e-9be9-7c5eeca839c0"/>
               <display value="Timothy Smith"/>
            </subject>
            <effectiveDateTime value="2017-12-11T15:48:21Z"/>
            <performer>
               <display value="The Central European Lab"/>
            </performer>
            <valueQuantity>
               <value value="20.4"/>
               <unit value="mg/dL"/>
               <system value="http://unitsofmeasure.org"/>
               <code value="mg/dL"/>
            </valueQuantity>
            <interpretation>
               <coding>
                  <system value="http://terminology.hl7.org/CodeSystem/v3-ObservationInterpretation"/>
                  <code value="L"/>
                  <display value="Low"/>
               </coding>
            </interpretation>
            <specimen>
               <reference value="urn:uuid:2ca844a6-9f80-45eb-99e6-89fe96319d71"/>
            </specimen>
            <referenceRange>
               <low>
                  <value value="40"/>
                  <system value="http://unitsofmeasure.org"/>
                  <code value="mg/dL"/>
               </low>
            </referenceRange>
            <referenceRange>
               <high>
                  <value value="100"/>
                  <system value="http://unitsofmeasure.org"/>
                  <code value="mg/dL"/>
               </high>
            </referenceRange>
         </Observation>
      </resource>
   </entry>
   <entry>
      <fullUrl value="urn:uuid:7f7850d0-a573-43d6-9122-d9a03f5885af"/>
      <resource>
         <Observation>
            <id value="7f7850d0-a573-43d6-9122-d9a03f5885af"/>
            <meta>
               <profile value="http://hl7.eu/fhir/laboratory/StructureDefinition/Observation-resultslab-eu-lab"/>
            </meta>
            <text>
               <status value="generated"/>
               <div xmlns="http://www.w3.org/1999/xhtml">
                  <table class="hl7__eu__lab__report">
                     <tr>
                        <th>Test</th>
                        <th>11-Dec-2017</th>
                        <th>Reference Range</th>
                        <th>Unit</th>
                     </tr>
                     <tr>
                        <td>Microalbumin/Creatinine [Mass Ratio] in Urine</td>
                        <td>8.7</td>
                        <td>0 - 30</td>
                        <td/>
                        <td>mg/g</td>
                     </tr>
                  </table>
               </div>
            </text>
            <status value="final"/>
            <category>
               <coding>
                  <system value="http://terminology.hl7.org/CodeSystem/observation-category"/>
                  <code value="laboratory"/>
               </coding>
            </category>
            <code>
               <coding>
                  <system value="http://loinc.org"/>
                  <code value="14959-1"/>
                  <display value="Microalbumin/Creatinine [Mass Ratio] in Urine"/>
               </coding>
               <text value="Microalbumin/Creatinine [Mass Ratio] in Urine"/>
            </code>
            <subject>
               <reference value="urn:uuid:dd3180b5-0bfa-483e-9be9-7c5eeca839c0"/>
               <display value="Timothy Smith"/>
            </subject>
            <effectiveDateTime value="2017-12-11T15:48:21Z"/>
            <performer>
               <display value="The Central European Lab"/>
            </performer>
            <valueQuantity>
               <value value="8.7"/>
               <unit value="mg/g"/>
               <system value="http://unitsofmeasure.org"/>
               <code value="mg/g"/>
            </valueQuantity>
            <specimen>
               <reference value="urn:uuid:8702a525-7b8c-4df9-971f-533de38f07d4"/>
            </specimen>
            <referenceRange>
               <low>
                  <value value="0"/>
                  <system value="http://unitsofmeasure.org"/>
                  <code value="mg/g"/>
               </low>
            </referenceRange>
            <referenceRange>
               <high>
                  <value value="30"/>
                  <system value="http://unitsofmeasure.org"/>
                  <code value="mg/g"/>
               </high>
            </referenceRange>
         </Observation>
      </resource>
   </entry>
   <entry>
      <fullUrl value="urn:uuid:9c5b3762-ab88-4bb0-819e-5943583b577d"/>
      <resource>
         <Device>
            <id value="9c5b3762-ab88-4bb0-819e-5943583b577d"/>
            <text>
               <status value="generated"/>
               <div xmlns="http://www.w3.org/1999/xhtml">SYNDERAI Synthetic Generator v5.0</div>
            </text>
            <status value="active&#34;"/>
            <distinctIdentifier value="synderai-generator-50"/>
            <manufacturer value="SYNDERAI Project"/>
            <deviceName>
               <name value="SYNDERAI Synthetic Generator"/>
               <type value="manufacturer-name"/>
            </deviceName>
            <version>
               <value value="5.0"/>
            </version>
         </Device>
      </resource>
   </entry>
   <entry>
      <fullUrl value="urn:uuid:ceb7d52c-9773-4d9e-8172-b50cc88ba605"/>
      <resource>
         <Provenance>
            <id value="ceb7d52c-9773-4d9e-8172-b50cc88ba605"/>
            <text>
               <status value="generated"/>
               <div xmlns="http://www.w3.org/1999/xhtml">Provenance for SYNDERAI Synthetic Example Data Resource</div>
            </text>
            <target>
               <reference value="Patient/dd3180b5-0bfa-483e-9be9-7c5eeca839c0"/>
            </target>
            <target>
               <reference value="Bundle/61b5fa3c-331a-493f-87b5-0e7b9e7511a5"/>
            </target>
            <target>
               <reference value="Composition/a3e46e6c-4086-4de4-b84c-3a4f6162c301"/>
            </target>
            <target>
               <reference value="PractitionerRole/cec3bcd2-602c-4d32-bc2c-b03c521bf261"/>
            </target>
            <target>
               <reference value="Practitioner/19f961ae-aa60-4fbb-b36e-f232f1907eda"/>
            </target>
            <target>
               <reference value="PractitionerRole/b297c24e-ee87-404a-92af-9b09f7ce4dfc"/>
            </target>
            <target>
               <reference value="Organization/57914a7e-6ceb-44dc-ad68-5293271db1fe"/>
            </target>
            <recorded value="2017-12-11T16:48:21Z"/>
            <policy value="https://synderai.net/synderai-synthetic-data-policy"/>
            <reason>
               <text value="Interoperability Testing and Training (non-clinical use)"/>
            </reason>
            <activity>
               <text value="Synthetic Example Data Generation"/>
            </activity>
            <agent>
               <type>
                  <text value="author"/>
               </type>
               <who>
                  <reference value="Device/9c5b3762-ab88-4bb0-819e-5943583b577d"/>
               </who>
            </agent>
         </Provenance>
      </resource>
   </entry>
   <entry>
      <fullUrl value="urn:uuid:cec3bcd2-602c-4d32-bc2c-b03c521bf261"/>
      <resource>
         <PractitionerRole>
            <id value="cec3bcd2-602c-4d32-bc2c-b03c521bf261"/>
            <meta>
               <profile value="http://hl7.eu/fhir/base/StructureDefinition/practitionerRole-eu"/>
            </meta>
            <text>
               <status value="generated"/>
               <div xmlns="http://www.w3.org/1999/xhtml">Laboratory Role Id: cec3bcd2-602c-4d32-bc2c-b03c521bf261</div>
            </text>
            <practitioner>
               <reference value="urn:uuid:19f961ae-aa60-4fbb-b36e-f232f1907eda"/>
            </practitioner>
         </PractitionerRole>
      </resource>
   </entry>
   <entry>
      <fullUrl value="urn:uuid:19f961ae-aa60-4fbb-b36e-f232f1907eda"/>
      <resource>
         <Practitioner>
            <id value="19f961ae-aa60-4fbb-b36e-f232f1907eda"/>
            <meta>
               <profile value="http://hl7.eu/fhir/base/StructureDefinition/practitioner-eu"/>
            </meta>
            <text>
               <status value="generated"/>
               <div xmlns="http://www.w3.org/1999/xhtml">Laboratory: Laboratoire Central Européenne, 1000 Brussels, Belgium</div>
            </text>
            <identifier>
               <system value="urn:oid:2.16.840.1.113883.2.51.999"/>
               <value value="77d6b081-a161-40cf-8654-5a122e86fba8"/>
               <assigner>
                  <display value="HL7 Europe"/>
               </assigner>
            </identifier>
            <name>
               <family value="Ample"/>
               <given value="Ex"/>
               <prefix value="dr"/>
            </name>
            <address>
               <line value="Laboratoire Central Européenne"/>
               <line value="Boulevard du Jardin Botanique 32"/>
               <city value="Brussels"/>
               <postalCode value="1000"/>
               <country value="Belgium"/>
            </address>
         </Practitioner>
      </resource>
   </entry>
</Bundle>