{
  "resourceType": "Bundle",
  "id": "72bf2f86-8419-486d-ae3e-6ed96b9f3e35",
  "meta": {
    "profile": [
      "http://hl7.eu/fhir/laboratory/StructureDefinition/Bundle-eu-lab"
    ]
  },
  "identifier": {
    "assigner": {
      "display": "HL7 Europe"
    },
    "system": "urn:oid:2.16.840.1.113883.2.51.999",
    "value": "d9e8c772-a7b6-466c-a463-6927357ce157"
  },
  "entry": [
    {
      "fullUrl": "urn:uuid:94330c27-0617-4ff7-948c-86f551c2db1c",
      "resource": {
        "resourceType": "Composition",
        "id": "94330c27-0617-4ff7-948c-86f551c2db1c",
        "meta": {
          "profile": [
            "http://hl7.eu/fhir/laboratory/StructureDefinition/Composition-eu-lab"
          ]
        },
        "identifier": {
          "assigner": {
            "display": "HL7 Europe"
          },
          "system": "urn:oid:2.16.840.1.113883.2.51.999",
          "value": "4aa0ceee-29d8-4025-ad5f-6cf1811720cb"
        },
        "author": [
          {
            "reference": "urn:uuid:b9a8f1a3-ad97-4b36-9799-3b8184047f3a"
          }
        ],
        "category": [
          {
            "coding": [
              {
                "code": "26436-6",
                "system": "http://loinc.org",
                "display": "Laboratory studies (set)"
              }
            ]
          }
        ],
        "type": {
          "coding": [
            {
              "code": "11502-2",
              "system": "http://loinc.org",
              "display": "Laboratory report"
            }
          ],
          "text": "Laboratory Report"
        },
        "section": [
          {
            "code": {
              "coding": [
                {
                  "code": "26436-6",
                  "system": "http://loinc.org",
                  "display": "Laboratory studies (set)"
                }
              ],
              "text": "Laboratory studies"
            },
            "section": [
              {
                "code": {
                  "coding": [
                    {
                      "code": "$18719-5",
                      "system": "http://loinc.org",
                      "display": "Chemistry studies (set)"
                    }
                  ],
                  "text": "Chemistry"
                },
                "entry": [
                  {
                    "reference": "urn:uuid:5554b526-1bc9-44e7-a76c-9ee419dd3f7e"
                  },
                  {
                    "reference": "urn:uuid:56f5ad17-6b0c-47ad-ae5d-869a2a4c732a"
                  },
                  {
                    "reference": "urn:uuid:d2c974e0-4c1d-46be-b4a6-a268132d78ae"
                  },
                  {
                    "reference": "urn:uuid:05de6995-501d-42e2-a39d-cdcdfbdf7759"
                  },
                  {
                    "reference": "urn:uuid:33d60040-32da-4f03-959f-22af5d473676"
                  },
                  {
                    "reference": "urn:uuid:e5e9e7f7-f7b5-4b00-9d61-008614cfcb6a"
                  },
                  {
                    "reference": "urn:uuid:4b80012e-f831-4961-a027-383277940086"
                  },
                  {
                    "reference": "urn:uuid:7c2a998a-0ee9-4426-a8f4-ce3aebc6a5f2"
                  },
                  {
                    "reference": "urn:uuid:2e092dbd-b2d8-4515-8a4d-f210a8ceb90a"
                  },
                  {
                    "reference": "urn:uuid:7f96b916-f9b6-4383-bd05-126b14763542"
                  },
                  {
                    "reference": "urn:uuid:c632cdf7-c37f-42f7-931f-2026e22c279f"
                  },
                  {
                    "reference": "urn:uuid:eed9aad3-aac9-43a1-b85e-54a019ec842a"
                  },
                  {
                    "reference": "urn:uuid:b01ac76e-7f2f-41f7-a5cc-63e9be7ffc27"
                  },
                  {
                    "reference": "urn:uuid:d0d5546d-f393-4ed4-a587-c5b85e221e46"
                  }
                ],
                "text": {
                  "status": "generated",
                  "div": "<div xmlns=\"http://www.w3.org/1999/xhtml\"><h3>Chemistry</h3><table class=\"hl7__eu__lab__report\"><thead><tr><th>Test</th><th>07-MAR-2017</th><th>Reference&#xA0;Range</th><th>Unit</th></tr></thead><tbody><tr><td>Hemoglobin A1c/Hemoglobin.total in Blood</td><td><strong>7.0 H</strong></td><td>4.6 - 6</td><td>%</td></tr><tr><td>Glucose [Mass/volume] in Blood</td><td><strong>119.8 H</strong></td><td>70 - 99</td><td>mg/dL</td></tr><tr><td>Urea nitrogen [Mass/volume] in Blood</td><td>12.8</td><td>7 - 50</td><td>mg/dL</td></tr><tr><td>Creatinine [Mass/volume] in Blood</td><td>1.1</td><td>0.9 - 1.3</td><td>mg/dL</td></tr><tr><td>Calcium [Mass/volume] in Blood</td><td>9.3</td><td>8.5 - 10.5</td><td>mg/dL</td></tr><tr><td>Sodium [Moles/volume] in Blood</td><td>140.8</td><td>135 - 145</td><td>mmol/L</td></tr><tr><td>Potassium [Moles/volume] in Blood</td><td>5.1</td><td>3.5 - 5.1</td><td>mmol/L</td></tr><tr><td>Chloride [Moles/volume] in Blood</td><td>103.3</td><td>98 - 114</td><td>mmol/L</td></tr><tr><td>Carbon dioxide, total [Moles/volume] in Blood</td><td>23.4</td><td>22 - 32</td><td>mmol/L</td></tr><tr><td>Cholesterol [Mass/volume] in Serum or Plasma</td><td><strong>211.5 H</strong></td><td>125 - 200</td><td>mg/dL</td></tr><tr><td>Triglyceride [Mass/volume] in Serum or Plasma</td><td><strong>193.5 H</strong></td><td>0 - 150</td><td>mg/dL</td></tr><tr><td>Cholesterol in LDL [Mass/volume] in Serum or Plasma by Direct assay</td><td>124.4</td><td>0 - 130</td><td>mg/dL</td></tr><tr><td>Cholesterol in HDL [Mass/volume] in Serum or Plasma</td><td>48.4</td><td>40 - 60</td><td>mg/dL</td></tr><tr><td>Microalbumin/Creatinine [Mass Ratio] in Urine</td><td>1.3</td><td>0 - 30</td><td>mg/g</td></tr></tbody></table></div>"
                },
                "title": "Chemistry"
              }
            ],
            "title": "Laboratory Report"
          },
          {
            "text": {
              "status": "generated",
              "div": "<div xmlns=\"http://www.w3.org/1999/xhtml\"><h3>Annotation</h3><table class=\"hl7__eu__lab__report\"><tr><th>Conclusion and Recommendations based on this report and previous findings known to us</th></tr><tr><td>The results indicate poor glycemic control (elevated HbA1c and fasting glucose), and dyslipidemia (high total cholesterol and triglycerides). Renal function, electrolytes, and microalbumin/creatinine ratio are within normal limits. Recommend clinical follow-up for diabetes and lipid management to reduce cardiovascular risk.</td></tr></table></div>"
            },
            "code": {
              "coding": [
                {
                  "system": "http://loinc.org",
                  "code": "48767-8",
                  "display": "Annotation comment"
                }
              ]
            },
            "title": "Annotation comment"
          }
        ],
        "status": "final",
        "subject": {
          "reference": "urn:uuid:d2c7b316-30e1-46f7-aefd-1c339b48bc94",
          "display": "Roy Harrison"
        },
        "date": "2017-03-07T03:49:43Z",
        "title": "Laboratory Report",
        "confidentiality": "N"
      }
    },
    {
      "fullUrl": "urn:uuid:43868a2f-b1a8-409b-82b7-ea6d8c486e59",
      "resource": {
        "resourceType": "DiagnosticReport",
        "id": "43868a2f-b1a8-409b-82b7-ea6d8c486e59",
        "meta": {
          "profile": [
            "http://hl7.eu/fhir/laboratory/StructureDefinition/DiagnosticReport-eu-lab"
          ]
        },
        "identifier": [
          {
            "assigner": {
              "display": "HL7 Europe"
            },
            "system": "urn:oid:2.16.840.1.113883.2.51.999",
            "value": "cf544721-5655-4444-861a-16f6eb8dca3f"
          }
        ],
        "extension": [
          {
            "url": "http://hl7.org/fhir/5.0/StructureDefinition/extension-DiagnosticReport.composition",
            "valueReference": {
              "reference": "urn:uuid:4aa0ceee-29d8-4025-ad5f-6cf1811720cb"
            }
          }
        ],
        "category": [
          {
            "coding": [
              {
                "code": "26436-6",
                "system": "http://loinc.org",
                "display": "Laboratory studies (set)"
              }
            ]
          }
        ],
        "specimen": [
          {
            "reference": "urn:uuid:35015048-0383-453a-b38a-080215079a15"
          },
          {
            "reference": "urn:uuid:63500208-f895-4b16-9fee-4b6566047abd"
          },
          {
            "reference": "urn:uuid:05fb5050-0297-45b8-bc15-dc669068df45"
          }
        ],
        "result": [
          {
            "reference": "urn:uuid:5554b526-1bc9-44e7-a76c-9ee419dd3f7e"
          },
          {
            "reference": "urn:uuid:56f5ad17-6b0c-47ad-ae5d-869a2a4c732a"
          },
          {
            "reference": "urn:uuid:d2c974e0-4c1d-46be-b4a6-a268132d78ae"
          },
          {
            "reference": "urn:uuid:05de6995-501d-42e2-a39d-cdcdfbdf7759"
          },
          {
            "reference": "urn:uuid:33d60040-32da-4f03-959f-22af5d473676"
          },
          {
            "reference": "urn:uuid:e5e9e7f7-f7b5-4b00-9d61-008614cfcb6a"
          },
          {
            "reference": "urn:uuid:4b80012e-f831-4961-a027-383277940086"
          },
          {
            "reference": "urn:uuid:7c2a998a-0ee9-4426-a8f4-ce3aebc6a5f2"
          },
          {
            "reference": "urn:uuid:2e092dbd-b2d8-4515-8a4d-f210a8ceb90a"
          },
          {
            "reference": "urn:uuid:7f96b916-f9b6-4383-bd05-126b14763542"
          },
          {
            "reference": "urn:uuid:c632cdf7-c37f-42f7-931f-2026e22c279f"
          },
          {
            "reference": "urn:uuid:eed9aad3-aac9-43a1-b85e-54a019ec842a"
          },
          {
            "reference": "urn:uuid:b01ac76e-7f2f-41f7-a5cc-63e9be7ffc27"
          },
          {
            "reference": "urn:uuid:d0d5546d-f393-4ed4-a587-c5b85e221e46"
          }
        ],
        "status": "registered",
        "code": {
          "coding": [
            {
              "code": "11502-2",
              "system": "http://loinc.org",
              "display": "Laboratory report"
            }
          ]
        },
        "subject": {
          "reference": "urn:uuid:d2c7b316-30e1-46f7-aefd-1c339b48bc94",
          "display": "Roy Harrison"
        }
      }
    },
    {
      "fullUrl": "urn:uuid:d2c7b316-30e1-46f7-aefd-1c339b48bc94",
      "resource": {
        "resourceType": "Patient",
        "id": "d2c7b316-30e1-46f7-aefd-1c339b48bc94",
        "meta": {
          "security": [
            {
              "system": "http://terminology.hl7.org/CodeSystem/v3-ActReason",
              "code": "HTEST"
            },
            {
              "system": "http://terminology.hl7.org/CodeSystem/v3-ActReason",
              "code": "TRAIN"
            }
          ],
          "tag": [
            {
              "system": "https://synderai.net/fhir/CodeSystem/tags",
              "code": "synthetic",
              "display": "SYNDERAI Synthetic data"
            }
          ],
          "profile": [
            "http://hl7.eu/fhir/base/StructureDefinition/patient-eu-core"
          ]
        },
        "identifier": [
          {
            "type": {
              "coding": [
                {
                  "code": "PT",
                  "system": "http://terminology.hl7.org/CodeSystem/v2-0203"
                }
              ]
            },
            "system": "http://ec.europa.eu/identifier/eci",
            "value": "7093-553922-4"
          },
          {
            "type": {
              "coding": [
                {
                  "code": "MR",
                  "system": "http://terminology.hl7.org/CodeSystem/v2-0203"
                }
              ]
            },
            "system": "http://local.setting.eu/identifier",
            "value": "42633ccd-9ef5-6a00-b7c9-353a9679bf2b"
          }
        ],
        "name": [
          {
            "family": "Harrison"
          },
          {
            "given": [
              "Roy"
            ]
          },
          {
            "text": "Roy Harrison"
          }
        ],
        "address": [
          {
            "line": [
              "Flat 4",
              "Dyer route"
            ],
            "use": "home",
            "type": "physical",
            "postalCode": "BA1",
            "city": "Baileyville",
            "country": "United Kingdom"
          }
        ],
        "telecom": [
          {
            "system": "phone",
            "value": "01632960974"
          }
        ],
        "extension": [
          {
            "url": "http://hl7.org/fhir/StructureDefinition/patient-nationality",
            "valueCodeableConcept": {
              "coding": [
                {
                  "code": "GB",
                  "system": "http://hl7.org/fhir/ValueSet/country"
                }
              ]
            }
          }
        ],
        "text": {
          "status": "generated",
          "div": "<div xmlns=\"http://www.w3.org/1999/xhtml\"><table class=\"hl7__ips\"><tr><td>Roy Harrison</td><td>male</td><td>02-Oct-1969</td></tr></table></div>"
        },
        "gender": "male",
        "birthDate": "1969-10-02"
      }
    },
    {
      "fullUrl": "urn:uuid:342dc943-530f-42cc-8257-09ffd31a1d15",
      "resource": {
        "resourceType": "ServiceRequest",
        "id": "342dc943-530f-42cc-8257-09ffd31a1d15",
        "meta": {
          "profile": [
            "http://hl7.eu/fhir/laboratory/StructureDefinition/ServiceRequest-eu-lab"
          ]
        },
        "identifier": [
          {
            "system": "http://example.org",
            "value": "57cb9af2-42f7-413c-af76-c63e540bb26c"
          }
        ],
        "specimen": [
          {
            "reference": "urn:uuid:35015048-0383-453a-b38a-080215079a15"
          },
          {
            "reference": "urn:uuid:63500208-f895-4b16-9fee-4b6566047abd"
          },
          {
            "reference": "urn:uuid:05fb5050-0297-45b8-bc15-dc669068df45"
          }
        ],
        "reasonCode": [
          {
            "coding": [
              {
                "code": "302870006",
                "system": "http://snomed.info/sct",
                "display": "Hypertriglyceridemia"
              }
            ]
          },
          {
            "coding": [
              {
                "code": "44054006",
                "system": "http://snomed.info/sct",
                "display": "Type 2 diabetes mellitus"
              }
            ]
          },
          {
            "coding": [
              {
                "code": "59621000",
                "system": "http://snomed.info/sct",
                "display": "Essential hypertension"
              }
            ]
          },
          {
            "coding": [
              {
                "code": "237602007",
                "system": "http://snomed.info/sct",
                "display": "Metabolic syndrome X"
              }
            ]
          },
          {
            "coding": [
              {
                "code": "271737000",
                "system": "http://snomed.info/sct",
                "display": "Anemia"
              }
            ]
          },
          {
            "coding": [
              {
                "code": "90560007",
                "system": "http://snomed.info/sct",
                "display": "Gout"
              }
            ]
          }
        ],
        "status": "active",
        "intent": "order",
        "code": {
          "coding": [
            {
              "code": "108252007",
              "system": "http://snomed.info/sct",
              "display": "Laboratory procedure"
            }
          ]
        },
        "subject": {
          "reference": "urn:uuid:d2c7b316-30e1-46f7-aefd-1c339b48bc94",
          "display": "Roy Harrison"
        },
        "requester": {
          "reference": "urn:uuid:600e3c66-16ad-41cc-b1f8-9d68a5010d00"
        }
      }
    },
    {
      "fullUrl": "urn:uuid:600e3c66-16ad-41cc-b1f8-9d68a5010d00",
      "resource": {
        "resourceType": "PractitionerRole",
        "id": "600e3c66-16ad-41cc-b1f8-9d68a5010d00",
        "meta": {
          "profile": [
            "http://hl7.eu/fhir/base/StructureDefinition/practitionerRole-eu"
          ]
        },
        "text": {
          "status": "generated",
          "div": "<div xmlns=\"http://www.w3.org/1999/xhtml\">Provider Role Id: 600e3c66-16ad-41cc-b1f8-9d68a5010d00</div>"
        },
        "organization": {
          "reference": "urn:uuid:ac3b596f-1698-45c7-902a-8493ac04977b"
        }
      }
    },
    {
      "fullUrl": "urn:uuid:ac3b596f-1698-45c7-902a-8493ac04977b",
      "resource": {
        "resourceType": "Organization",
        "id": "ac3b596f-1698-45c7-902a-8493ac04977b",
        "meta": {
          "profile": [
            "http://hl7.eu/fhir/base/StructureDefinition/organization-eu"
          ]
        },
        "identifier": [
          {
            "assigner": {
              "display": "HL7 Europe"
            },
            "system": "urn:oid:2.16.840.1.113883.2.51.999",
            "value": "5d4d5bed-c7d5-46fc-850e-0b25e9493224"
          }
        ],
        "address": [
          {
            "city": "London",
            "postalCode": "SE1 7",
            "country": "United Kingdom"
          }
        ],
        "text": {
          "status": "generated",
          "div": "<div xmlns=\"http://www.w3.org/1999/xhtml\">Provider Organization: Evelina Children&#039;s Hospital</div>"
        },
        "name": "Evelina Children&#039;s Hospital"
      }
    },
    {
      "fullUrl": "urn:uuid:35015048-0383-453a-b38a-080215079a15",
      "resource": {
        "resourceType": "Specimen",
        "id": "35015048-0383-453a-b38a-080215079a15",
        "meta": {
          "profile": [
            "http://hl7.eu/fhir/laboratory/StructureDefinition/Specimen-eu-lab"
          ]
        },
        "collection": {
          "collectedDateTime": "2017-03-07"
        },
        "text": {
          "status": "generated",
          "div": "<div xmlns=\"http://www.w3.org/1999/xhtml\"><table class=\"hl7__eu__lab__report\"><tr><th>Specimen</th><th>Collection Date</th></tr><tr><td>Whole blood specimen (specimen)</td><td><span class=\"nb\">07-Mar-2017</span></td></tr></table></div>"
        },
        "type": {
          "coding": [
            {
              "code": "258580003",
              "system": "http://snomed.info/sct",
              "display": "Whole blood specimen (specimen)"
            }
          ]
        }
      }
    },
    {
      "fullUrl": "urn:uuid:63500208-f895-4b16-9fee-4b6566047abd",
      "resource": {
        "resourceType": "Specimen",
        "id": "63500208-f895-4b16-9fee-4b6566047abd",
        "meta": {
          "profile": [
            "http://hl7.eu/fhir/laboratory/StructureDefinition/Specimen-eu-lab"
          ]
        },
        "collection": {
          "collectedDateTime": "2017-03-07"
        },
        "text": {
          "status": "generated",
          "div": "<div xmlns=\"http://www.w3.org/1999/xhtml\"><table class=\"hl7__eu__lab__report\"><tr><th>Specimen</th><th>Collection Date</th></tr><tr><td>Acellular blood (serum or plasma) specimen</td><td><span class=\"nb\">07-Mar-2017</span></td></tr></table></div>"
        },
        "type": {
          "coding": [
            {
              "code": "122592007",
              "system": "http://snomed.info/sct",
              "display": "Acellular blood (serum or plasma) specimen"
            }
          ]
        }
      }
    },
    {
      "fullUrl": "urn:uuid:05fb5050-0297-45b8-bc15-dc669068df45",
      "resource": {
        "resourceType": "Specimen",
        "id": "05fb5050-0297-45b8-bc15-dc669068df45",
        "meta": {
          "profile": [
            "http://hl7.eu/fhir/laboratory/StructureDefinition/Specimen-eu-lab"
          ]
        },
        "collection": {
          "collectedDateTime": "2017-03-07"
        },
        "text": {
          "status": "generated",
          "div": "<div xmlns=\"http://www.w3.org/1999/xhtml\"><table class=\"hl7__eu__lab__report\"><tr><th>Specimen</th><th>Collection Date</th></tr><tr><td>Urine specimen</td><td><span class=\"nb\">07-Mar-2017</span></td></tr></table></div>"
        },
        "type": {
          "coding": [
            {
              "code": "122575003",
              "system": "http://snomed.info/sct",
              "display": "Urine specimen"
            }
          ]
        }
      }
    },
    {
      "fullUrl": "urn:uuid:5554b526-1bc9-44e7-a76c-9ee419dd3f7e",
      "resource": {
        "resourceType": "Observation",
        "id": "5554b526-1bc9-44e7-a76c-9ee419dd3f7e",
        "meta": {
          "profile": [
            "http://hl7.eu/fhir/laboratory/StructureDefinition/Observation-resultslab-eu-lab"
          ]
        },
        "performer": [
          {
            "display": "The Central European Lab"
          }
        ],
        "category": [
          {
            "coding": [
              {
                "system": "http://terminology.hl7.org/CodeSystem/observation-category",
                "code": "laboratory"
              }
            ]
          }
        ],
        "code": {
          "coding": [
            {
              "code": "4548-4",
              "system": "http://loinc.org",
              "display": "Hemoglobin A1c/Hemoglobin.total in Blood"
            }
          ],
          "text": "Hemoglobin A1c/Hemoglobin.total in Blood"
        },
        "valueQuantity": {
          "system": "http://unitsofmeasure.org",
          "value": 7,
          "unit": "%",
          "code": "%"
        },
        "referenceRange": [
          {
            "low": {
              "value": 4.6,
              "code": "%",
              "system": "http://unitsofmeasure.org"
            }
          },
          {
            "high": {
              "value": 6,
              "code": "%",
              "system": "http://unitsofmeasure.org"
            }
          }
        ],
        "interpretation": [
          {
            "coding": [
              {
                "code": "H",
                "system": "http://terminology.hl7.org/CodeSystem/v3-ObservationInterpretation",
                "display": "High"
              }
            ]
          }
        ],
        "text": {
          "status": "generated",
          "div": "<div xmlns=\"http://www.w3.org/1999/xhtml\"><table class=\"hl7__eu__lab__report\"><tr><th>Test</th><th>07-Mar-2017</th><th>Reference&#xA0;Range</th><th>Unit</th></tr><tr><td>Hemoglobin A1c/Hemoglobin.total in Blood</td><td>7.0</td><td>4.6 - 6</td><td>H</td><td>%</td></tr></table></div>"
        },
        "status": "final",
        "subject": {
          "reference": "urn:uuid:d2c7b316-30e1-46f7-aefd-1c339b48bc94",
          "display": "Roy Harrison"
        },
        "effectiveDateTime": "2017-03-07T02:49:43Z",
        "specimen": {
          "reference": "urn:uuid:35015048-0383-453a-b38a-080215079a15"
        }
      }
    },
    {
      "fullUrl": "urn:uuid:56f5ad17-6b0c-47ad-ae5d-869a2a4c732a",
      "resource": {
        "resourceType": "Observation",
        "id": "56f5ad17-6b0c-47ad-ae5d-869a2a4c732a",
        "meta": {
          "profile": [
            "http://hl7.eu/fhir/laboratory/StructureDefinition/Observation-resultslab-eu-lab"
          ]
        },
        "performer": [
          {
            "display": "The Central European Lab"
          }
        ],
        "category": [
          {
            "coding": [
              {
                "system": "http://terminology.hl7.org/CodeSystem/observation-category",
                "code": "laboratory"
              }
            ]
          }
        ],
        "code": {
          "coding": [
            {
              "code": "2339-0",
              "system": "http://loinc.org",
              "display": "Glucose [Mass/volume] in Blood"
            }
          ],
          "text": "Glucose [Mass/volume] in Blood"
        },
        "valueQuantity": {
          "system": "http://unitsofmeasure.org",
          "value": 119.8,
          "unit": "mg/dL",
          "code": "mg/dL"
        },
        "referenceRange": [
          {
            "low": {
              "value": 70,
              "code": "mg/dL",
              "system": "http://unitsofmeasure.org"
            }
          },
          {
            "high": {
              "value": 99,
              "code": "mg/dL",
              "system": "http://unitsofmeasure.org"
            }
          }
        ],
        "interpretation": [
          {
            "coding": [
              {
                "code": "H",
                "system": "http://terminology.hl7.org/CodeSystem/v3-ObservationInterpretation",
                "display": "High"
              }
            ]
          }
        ],
        "text": {
          "status": "generated",
          "div": "<div xmlns=\"http://www.w3.org/1999/xhtml\"><table class=\"hl7__eu__lab__report\"><tr><th>Test</th><th>07-Mar-2017</th><th>Reference&#xA0;Range</th><th>Unit</th></tr><tr><td>Glucose [Mass/volume] in Blood</td><td>119.8</td><td>70 - 99</td><td>H</td><td>mg/dL</td></tr></table></div>"
        },
        "status": "final",
        "subject": {
          "reference": "urn:uuid:d2c7b316-30e1-46f7-aefd-1c339b48bc94",
          "display": "Roy Harrison"
        },
        "effectiveDateTime": "2017-03-07T02:49:43Z",
        "specimen": {
          "reference": "urn:uuid:35015048-0383-453a-b38a-080215079a15"
        }
      }
    },
    {
      "fullUrl": "urn:uuid:d2c974e0-4c1d-46be-b4a6-a268132d78ae",
      "resource": {
        "resourceType": "Observation",
        "id": "d2c974e0-4c1d-46be-b4a6-a268132d78ae",
        "meta": {
          "profile": [
            "http://hl7.eu/fhir/laboratory/StructureDefinition/Observation-resultslab-eu-lab"
          ]
        },
        "performer": [
          {
            "display": "The Central European Lab"
          }
        ],
        "category": [
          {
            "coding": [
              {
                "system": "http://terminology.hl7.org/CodeSystem/observation-category",
                "code": "laboratory"
              }
            ]
          }
        ],
        "code": {
          "coding": [
            {
              "code": "6299-2",
              "system": "http://loinc.org",
              "display": "Urea nitrogen [Mass/volume] in Blood"
            }
          ],
          "text": "Urea nitrogen [Mass/volume] in Blood"
        },
        "valueQuantity": {
          "system": "http://unitsofmeasure.org",
          "value": 12.8,
          "unit": "mg/dL",
          "code": "mg/dL"
        },
        "referenceRange": [
          {
            "low": {
              "value": 7,
              "code": "mg/dL",
              "system": "http://unitsofmeasure.org"
            }
          },
          {
            "high": {
              "value": 50,
              "code": "mg/dL",
              "system": "http://unitsofmeasure.org"
            }
          }
        ],
        "text": {
          "status": "generated",
          "div": "<div xmlns=\"http://www.w3.org/1999/xhtml\"><table class=\"hl7__eu__lab__report\"><tr><th>Test</th><th>07-Mar-2017</th><th>Reference&#xA0;Range</th><th>Unit</th></tr><tr><td>Urea nitrogen [Mass/volume] in Blood</td><td>12.8</td><td>7 - 50</td><td></td><td>mg/dL</td></tr></table></div>"
        },
        "status": "final",
        "subject": {
          "reference": "urn:uuid:d2c7b316-30e1-46f7-aefd-1c339b48bc94",
          "display": "Roy Harrison"
        },
        "effectiveDateTime": "2017-03-07T02:49:43Z",
        "specimen": {
          "reference": "urn:uuid:35015048-0383-453a-b38a-080215079a15"
        }
      }
    },
    {
      "fullUrl": "urn:uuid:05de6995-501d-42e2-a39d-cdcdfbdf7759",
      "resource": {
        "resourceType": "Observation",
        "id": "05de6995-501d-42e2-a39d-cdcdfbdf7759",
        "meta": {
          "profile": [
            "http://hl7.eu/fhir/laboratory/StructureDefinition/Observation-resultslab-eu-lab"
          ]
        },
        "performer": [
          {
            "display": "The Central European Lab"
          }
        ],
        "category": [
          {
            "coding": [
              {
                "system": "http://terminology.hl7.org/CodeSystem/observation-category",
                "code": "laboratory"
              }
            ]
          }
        ],
        "code": {
          "coding": [
            {
              "code": "38483-4",
              "system": "http://loinc.org",
              "display": "Creatinine [Mass/volume] in Blood"
            }
          ],
          "text": "Creatinine [Mass/volume] in Blood"
        },
        "valueQuantity": {
          "system": "http://unitsofmeasure.org",
          "value": 1.1,
          "unit": "mg/dL",
          "code": "mg/dL"
        },
        "referenceRange": [
          {
            "low": {
              "value": 0.9,
              "code": "mg/dL",
              "system": "http://unitsofmeasure.org"
            }
          },
          {
            "high": {
              "value": 1.3,
              "code": "mg/dL",
              "system": "http://unitsofmeasure.org"
            }
          }
        ],
        "text": {
          "status": "generated",
          "div": "<div xmlns=\"http://www.w3.org/1999/xhtml\"><table class=\"hl7__eu__lab__report\"><tr><th>Test</th><th>07-Mar-2017</th><th>Reference&#xA0;Range</th><th>Unit</th></tr><tr><td>Creatinine [Mass/volume] in Blood</td><td>1.1</td><td>0.9 - 1.3</td><td></td><td>mg/dL</td></tr></table></div>"
        },
        "status": "final",
        "subject": {
          "reference": "urn:uuid:d2c7b316-30e1-46f7-aefd-1c339b48bc94",
          "display": "Roy Harrison"
        },
        "effectiveDateTime": "2017-03-07T02:49:43Z",
        "specimen": {
          "reference": "urn:uuid:35015048-0383-453a-b38a-080215079a15"
        }
      }
    },
    {
      "fullUrl": "urn:uuid:33d60040-32da-4f03-959f-22af5d473676",
      "resource": {
        "resourceType": "Observation",
        "id": "33d60040-32da-4f03-959f-22af5d473676",
        "meta": {
          "profile": [
            "http://hl7.eu/fhir/laboratory/StructureDefinition/Observation-resultslab-eu-lab"
          ]
        },
        "performer": [
          {
            "display": "The Central European Lab"
          }
        ],
        "category": [
          {
            "coding": [
              {
                "system": "http://terminology.hl7.org/CodeSystem/observation-category",
                "code": "laboratory"
              }
            ]
          }
        ],
        "code": {
          "coding": [
            {
              "code": "49765-1",
              "system": "http://loinc.org",
              "display": "Calcium [Mass/volume] in Blood"
            }
          ],
          "text": "Calcium [Mass/volume] in Blood"
        },
        "valueQuantity": {
          "system": "http://unitsofmeasure.org",
          "value": 9.3,
          "unit": "mg/dL",
          "code": "mg/dL"
        },
        "referenceRange": [
          {
            "low": {
              "value": 8.5,
              "code": "mg/dL",
              "system": "http://unitsofmeasure.org"
            }
          },
          {
            "high": {
              "value": 10.5,
              "code": "mg/dL",
              "system": "http://unitsofmeasure.org"
            }
          }
        ],
        "text": {
          "status": "generated",
          "div": "<div xmlns=\"http://www.w3.org/1999/xhtml\"><table class=\"hl7__eu__lab__report\"><tr><th>Test</th><th>07-Mar-2017</th><th>Reference&#xA0;Range</th><th>Unit</th></tr><tr><td>Calcium [Mass/volume] in Blood</td><td>9.3</td><td>8.5 - 10.5</td><td></td><td>mg/dL</td></tr></table></div>"
        },
        "status": "final",
        "subject": {
          "reference": "urn:uuid:d2c7b316-30e1-46f7-aefd-1c339b48bc94",
          "display": "Roy Harrison"
        },
        "effectiveDateTime": "2017-03-07T02:49:43Z",
        "specimen": {
          "reference": "urn:uuid:35015048-0383-453a-b38a-080215079a15"
        }
      }
    },
    {
      "fullUrl": "urn:uuid:e5e9e7f7-f7b5-4b00-9d61-008614cfcb6a",
      "resource": {
        "resourceType": "Observation",
        "id": "e5e9e7f7-f7b5-4b00-9d61-008614cfcb6a",
        "meta": {
          "profile": [
            "http://hl7.eu/fhir/laboratory/StructureDefinition/Observation-resultslab-eu-lab"
          ]
        },
        "performer": [
          {
            "display": "The Central European Lab"
          }
        ],
        "category": [
          {
            "coding": [
              {
                "system": "http://terminology.hl7.org/CodeSystem/observation-category",
                "code": "laboratory"
              }
            ]
          }
        ],
        "code": {
          "coding": [
            {
              "code": "2947-0",
              "system": "http://loinc.org",
              "display": "Sodium [Moles/volume] in Blood"
            }
          ],
          "text": "Sodium [Moles/volume] in Blood"
        },
        "valueQuantity": {
          "system": "http://unitsofmeasure.org",
          "value": 140.8,
          "unit": "mmol/L",
          "code": "mmol/L"
        },
        "referenceRange": [
          {
            "low": {
              "value": 135,
              "code": "mmol/L",
              "system": "http://unitsofmeasure.org"
            }
          },
          {
            "high": {
              "value": 145,
              "code": "mmol/L",
              "system": "http://unitsofmeasure.org"
            }
          }
        ],
        "text": {
          "status": "generated",
          "div": "<div xmlns=\"http://www.w3.org/1999/xhtml\"><table class=\"hl7__eu__lab__report\"><tr><th>Test</th><th>07-Mar-2017</th><th>Reference&#xA0;Range</th><th>Unit</th></tr><tr><td>Sodium [Moles/volume] in Blood</td><td>140.8</td><td>135 - 145</td><td></td><td>mmol/L</td></tr></table></div>"
        },
        "status": "final",
        "subject": {
          "reference": "urn:uuid:d2c7b316-30e1-46f7-aefd-1c339b48bc94",
          "display": "Roy Harrison"
        },
        "effectiveDateTime": "2017-03-07T02:49:43Z",
        "specimen": {
          "reference": "urn:uuid:35015048-0383-453a-b38a-080215079a15"
        }
      }
    },
    {
      "fullUrl": "urn:uuid:4b80012e-f831-4961-a027-383277940086",
      "resource": {
        "resourceType": "Observation",
        "id": "4b80012e-f831-4961-a027-383277940086",
        "meta": {
          "profile": [
            "http://hl7.eu/fhir/laboratory/StructureDefinition/Observation-resultslab-eu-lab"
          ]
        },
        "performer": [
          {
            "display": "The Central European Lab"
          }
        ],
        "category": [
          {
            "coding": [
              {
                "system": "http://terminology.hl7.org/CodeSystem/observation-category",
                "code": "laboratory"
              }
            ]
          }
        ],
        "code": {
          "coding": [
            {
              "code": "6298-4",
              "system": "http://loinc.org",
              "display": "Potassium [Moles/volume] in Blood"
            }
          ],
          "text": "Potassium [Moles/volume] in Blood"
        },
        "valueQuantity": {
          "system": "http://unitsofmeasure.org",
          "value": 5.1,
          "unit": "mmol/L",
          "code": "mmol/L"
        },
        "referenceRange": [
          {
            "low": {
              "value": 3.5,
              "code": "mmol/L",
              "system": "http://unitsofmeasure.org"
            }
          },
          {
            "high": {
              "value": 5.1,
              "code": "mmol/L",
              "system": "http://unitsofmeasure.org"
            }
          }
        ],
        "text": {
          "status": "generated",
          "div": "<div xmlns=\"http://www.w3.org/1999/xhtml\"><table class=\"hl7__eu__lab__report\"><tr><th>Test</th><th>07-Mar-2017</th><th>Reference&#xA0;Range</th><th>Unit</th></tr><tr><td>Potassium [Moles/volume] in Blood</td><td>5.1</td><td>3.5 - 5.1</td><td></td><td>mmol/L</td></tr></table></div>"
        },
        "status": "final",
        "subject": {
          "reference": "urn:uuid:d2c7b316-30e1-46f7-aefd-1c339b48bc94",
          "display": "Roy Harrison"
        },
        "effectiveDateTime": "2017-03-07T02:49:43Z",
        "specimen": {
          "reference": "urn:uuid:35015048-0383-453a-b38a-080215079a15"
        }
      }
    },
    {
      "fullUrl": "urn:uuid:7c2a998a-0ee9-4426-a8f4-ce3aebc6a5f2",
      "resource": {
        "resourceType": "Observation",
        "id": "7c2a998a-0ee9-4426-a8f4-ce3aebc6a5f2",
        "meta": {
          "profile": [
            "http://hl7.eu/fhir/laboratory/StructureDefinition/Observation-resultslab-eu-lab"
          ]
        },
        "performer": [
          {
            "display": "The Central European Lab"
          }
        ],
        "category": [
          {
            "coding": [
              {
                "system": "http://terminology.hl7.org/CodeSystem/observation-category",
                "code": "laboratory"
              }
            ]
          }
        ],
        "code": {
          "coding": [
            {
              "code": "2069-3",
              "system": "http://loinc.org",
              "display": "Chloride [Moles/volume] in Blood"
            }
          ],
          "text": "Chloride [Moles/volume] in Blood"
        },
        "valueQuantity": {
          "system": "http://unitsofmeasure.org",
          "value": 103.3,
          "unit": "mmol/L",
          "code": "mmol/L"
        },
        "referenceRange": [
          {
            "low": {
              "value": 98,
              "code": "mmol/L",
              "system": "http://unitsofmeasure.org"
            }
          },
          {
            "high": {
              "value": 114,
              "code": "mmol/L",
              "system": "http://unitsofmeasure.org"
            }
          }
        ],
        "text": {
          "status": "generated",
          "div": "<div xmlns=\"http://www.w3.org/1999/xhtml\"><table class=\"hl7__eu__lab__report\"><tr><th>Test</th><th>07-Mar-2017</th><th>Reference&#xA0;Range</th><th>Unit</th></tr><tr><td>Chloride [Moles/volume] in Blood</td><td>103.3</td><td>98 - 114</td><td></td><td>mmol/L</td></tr></table></div>"
        },
        "status": "final",
        "subject": {
          "reference": "urn:uuid:d2c7b316-30e1-46f7-aefd-1c339b48bc94",
          "display": "Roy Harrison"
        },
        "effectiveDateTime": "2017-03-07T02:49:43Z",
        "specimen": {
          "reference": "urn:uuid:35015048-0383-453a-b38a-080215079a15"
        }
      }
    },
    {
      "fullUrl": "urn:uuid:2e092dbd-b2d8-4515-8a4d-f210a8ceb90a",
      "resource": {
        "resourceType": "Observation",
        "id": "2e092dbd-b2d8-4515-8a4d-f210a8ceb90a",
        "meta": {
          "profile": [
            "http://hl7.eu/fhir/laboratory/StructureDefinition/Observation-resultslab-eu-lab"
          ]
        },
        "performer": [
          {
            "display": "The Central European Lab"
          }
        ],
        "category": [
          {
            "coding": [
              {
                "system": "http://terminology.hl7.org/CodeSystem/observation-category",
                "code": "laboratory"
              }
            ]
          }
        ],
        "code": {
          "coding": [
            {
              "code": "20565-8",
              "system": "http://loinc.org",
              "display": "Carbon dioxide, total [Moles/volume] in Blood"
            }
          ],
          "text": "Carbon dioxide, total [Moles/volume] in Blood"
        },
        "valueQuantity": {
          "system": "http://unitsofmeasure.org",
          "value": 23.4,
          "unit": "mmol/L",
          "code": "mmol/L"
        },
        "referenceRange": [
          {
            "low": {
              "value": 22,
              "code": "mmol/L",
              "system": "http://unitsofmeasure.org"
            }
          },
          {
            "high": {
              "value": 32,
              "code": "mmol/L",
              "system": "http://unitsofmeasure.org"
            }
          }
        ],
        "text": {
          "status": "generated",
          "div": "<div xmlns=\"http://www.w3.org/1999/xhtml\"><table class=\"hl7__eu__lab__report\"><tr><th>Test</th><th>07-Mar-2017</th><th>Reference&#xA0;Range</th><th>Unit</th></tr><tr><td>Carbon dioxide, total [Moles/volume] in Blood</td><td>23.4</td><td>22 - 32</td><td></td><td>mmol/L</td></tr></table></div>"
        },
        "status": "final",
        "subject": {
          "reference": "urn:uuid:d2c7b316-30e1-46f7-aefd-1c339b48bc94",
          "display": "Roy Harrison"
        },
        "effectiveDateTime": "2017-03-07T02:49:43Z",
        "specimen": {
          "reference": "urn:uuid:35015048-0383-453a-b38a-080215079a15"
        }
      }
    },
    {
      "fullUrl": "urn:uuid:7f96b916-f9b6-4383-bd05-126b14763542",
      "resource": {
        "resourceType": "Observation",
        "id": "7f96b916-f9b6-4383-bd05-126b14763542",
        "meta": {
          "profile": [
            "http://hl7.eu/fhir/laboratory/StructureDefinition/Observation-resultslab-eu-lab"
          ]
        },
        "performer": [
          {
            "display": "The Central European Lab"
          }
        ],
        "category": [
          {
            "coding": [
              {
                "system": "http://terminology.hl7.org/CodeSystem/observation-category",
                "code": "laboratory"
              }
            ]
          }
        ],
        "code": {
          "coding": [
            {
              "code": "2093-3",
              "system": "http://loinc.org",
              "display": "Cholesterol [Mass/volume] in Serum or Plasma"
            }
          ],
          "text": "Cholesterol [Mass/volume] in Serum or Plasma"
        },
        "valueQuantity": {
          "system": "http://unitsofmeasure.org",
          "value": 211.5,
          "unit": "mg/dL",
          "code": "mg/dL"
        },
        "referenceRange": [
          {
            "low": {
              "value": 125,
              "code": "mg/dL",
              "system": "http://unitsofmeasure.org"
            }
          },
          {
            "high": {
              "value": 200,
              "code": "mg/dL",
              "system": "http://unitsofmeasure.org"
            }
          }
        ],
        "interpretation": [
          {
            "coding": [
              {
                "code": "H",
                "system": "http://terminology.hl7.org/CodeSystem/v3-ObservationInterpretation",
                "display": "High"
              }
            ]
          }
        ],
        "text": {
          "status": "generated",
          "div": "<div xmlns=\"http://www.w3.org/1999/xhtml\"><table class=\"hl7__eu__lab__report\"><tr><th>Test</th><th>07-Mar-2017</th><th>Reference&#xA0;Range</th><th>Unit</th></tr><tr><td>Cholesterol [Mass/volume] in Serum or Plasma</td><td>211.5</td><td>125 - 200</td><td>H</td><td>mg/dL</td></tr></table></div>"
        },
        "status": "final",
        "subject": {
          "reference": "urn:uuid:d2c7b316-30e1-46f7-aefd-1c339b48bc94",
          "display": "Roy Harrison"
        },
        "effectiveDateTime": "2017-03-07T02:49:43Z",
        "specimen": {
          "reference": "urn:uuid:63500208-f895-4b16-9fee-4b6566047abd"
        }
      }
    },
    {
      "fullUrl": "urn:uuid:c632cdf7-c37f-42f7-931f-2026e22c279f",
      "resource": {
        "resourceType": "Observation",
        "id": "c632cdf7-c37f-42f7-931f-2026e22c279f",
        "meta": {
          "profile": [
            "http://hl7.eu/fhir/laboratory/StructureDefinition/Observation-resultslab-eu-lab"
          ]
        },
        "performer": [
          {
            "display": "The Central European Lab"
          }
        ],
        "category": [
          {
            "coding": [
              {
                "system": "http://terminology.hl7.org/CodeSystem/observation-category",
                "code": "laboratory"
              }
            ]
          }
        ],
        "code": {
          "coding": [
            {
              "code": "2571-8",
              "system": "http://loinc.org",
              "display": "Triglyceride [Mass/volume] in Serum or Plasma"
            }
          ],
          "text": "Triglyceride [Mass/volume] in Serum or Plasma"
        },
        "valueQuantity": {
          "system": "http://unitsofmeasure.org",
          "value": 193.5,
          "unit": "mg/dL",
          "code": "mg/dL"
        },
        "referenceRange": [
          {
            "low": {
              "value": 0,
              "code": "mg/dL",
              "system": "http://unitsofmeasure.org"
            }
          },
          {
            "high": {
              "value": 150,
              "code": "mg/dL",
              "system": "http://unitsofmeasure.org"
            }
          }
        ],
        "interpretation": [
          {
            "coding": [
              {
                "code": "H",
                "system": "http://terminology.hl7.org/CodeSystem/v3-ObservationInterpretation",
                "display": "High"
              }
            ]
          }
        ],
        "text": {
          "status": "generated",
          "div": "<div xmlns=\"http://www.w3.org/1999/xhtml\"><table class=\"hl7__eu__lab__report\"><tr><th>Test</th><th>07-Mar-2017</th><th>Reference&#xA0;Range</th><th>Unit</th></tr><tr><td>Triglyceride [Mass/volume] in Serum or Plasma</td><td>193.5</td><td>0 - 150</td><td>H</td><td>mg/dL</td></tr></table></div>"
        },
        "status": "final",
        "subject": {
          "reference": "urn:uuid:d2c7b316-30e1-46f7-aefd-1c339b48bc94",
          "display": "Roy Harrison"
        },
        "effectiveDateTime": "2017-03-07T02:49:43Z",
        "specimen": {
          "reference": "urn:uuid:63500208-f895-4b16-9fee-4b6566047abd"
        }
      }
    },
    {
      "fullUrl": "urn:uuid:eed9aad3-aac9-43a1-b85e-54a019ec842a",
      "resource": {
        "resourceType": "Observation",
        "id": "eed9aad3-aac9-43a1-b85e-54a019ec842a",
        "meta": {
          "profile": [
            "http://hl7.eu/fhir/laboratory/StructureDefinition/Observation-resultslab-eu-lab"
          ]
        },
        "performer": [
          {
            "display": "The Central European Lab"
          }
        ],
        "category": [
          {
            "coding": [
              {
                "system": "http://terminology.hl7.org/CodeSystem/observation-category",
                "code": "laboratory"
              }
            ]
          }
        ],
        "code": {
          "coding": [
            {
              "code": "18262-6",
              "system": "http://loinc.org",
              "display": "Cholesterol in LDL [Mass/volume] in Serum or Plasma by Direct assay"
            }
          ],
          "text": "Cholesterol in LDL [Mass/volume] in Serum or Plasma by Direct assay"
        },
        "valueQuantity": {
          "system": "http://unitsofmeasure.org",
          "value": 124.4,
          "unit": "mg/dL",
          "code": "mg/dL"
        },
        "referenceRange": [
          {
            "low": {
              "value": 0,
              "code": "mg/dL",
              "system": "http://unitsofmeasure.org"
            }
          },
          {
            "high": {
              "value": 130,
              "code": "mg/dL",
              "system": "http://unitsofmeasure.org"
            }
          }
        ],
        "text": {
          "status": "generated",
          "div": "<div xmlns=\"http://www.w3.org/1999/xhtml\"><table class=\"hl7__eu__lab__report\"><tr><th>Test</th><th>07-Mar-2017</th><th>Reference&#xA0;Range</th><th>Unit</th></tr><tr><td>Cholesterol in LDL [Mass/volume] in Serum or Plasma by Direct assay</td><td>124.4</td><td>0 - 130</td><td></td><td>mg/dL</td></tr></table></div>"
        },
        "status": "final",
        "subject": {
          "reference": "urn:uuid:d2c7b316-30e1-46f7-aefd-1c339b48bc94",
          "display": "Roy Harrison"
        },
        "effectiveDateTime": "2017-03-07T02:49:43Z",
        "specimen": {
          "reference": "urn:uuid:63500208-f895-4b16-9fee-4b6566047abd"
        }
      }
    },
    {
      "fullUrl": "urn:uuid:b01ac76e-7f2f-41f7-a5cc-63e9be7ffc27",
      "resource": {
        "resourceType": "Observation",
        "id": "b01ac76e-7f2f-41f7-a5cc-63e9be7ffc27",
        "meta": {
          "profile": [
            "http://hl7.eu/fhir/laboratory/StructureDefinition/Observation-resultslab-eu-lab"
          ]
        },
        "performer": [
          {
            "display": "The Central European Lab"
          }
        ],
        "category": [
          {
            "coding": [
              {
                "system": "http://terminology.hl7.org/CodeSystem/observation-category",
                "code": "laboratory"
              }
            ]
          }
        ],
        "code": {
          "coding": [
            {
              "code": "2085-9",
              "system": "http://loinc.org",
              "display": "Cholesterol in HDL [Mass/volume] in Serum or Plasma"
            }
          ],
          "text": "Cholesterol in HDL [Mass/volume] in Serum or Plasma"
        },
        "valueQuantity": {
          "system": "http://unitsofmeasure.org",
          "value": 48.4,
          "unit": "mg/dL",
          "code": "mg/dL"
        },
        "referenceRange": [
          {
            "low": {
              "value": 40,
              "code": "mg/dL",
              "system": "http://unitsofmeasure.org"
            }
          },
          {
            "high": {
              "value": 60,
              "code": "mg/dL",
              "system": "http://unitsofmeasure.org"
            }
          }
        ],
        "text": {
          "status": "generated",
          "div": "<div xmlns=\"http://www.w3.org/1999/xhtml\"><table class=\"hl7__eu__lab__report\"><tr><th>Test</th><th>07-Mar-2017</th><th>Reference&#xA0;Range</th><th>Unit</th></tr><tr><td>Cholesterol in HDL [Mass/volume] in Serum or Plasma</td><td>48.4</td><td>40 - 60</td><td></td><td>mg/dL</td></tr></table></div>"
        },
        "status": "final",
        "subject": {
          "reference": "urn:uuid:d2c7b316-30e1-46f7-aefd-1c339b48bc94",
          "display": "Roy Harrison"
        },
        "effectiveDateTime": "2017-03-07T02:49:43Z",
        "specimen": {
          "reference": "urn:uuid:63500208-f895-4b16-9fee-4b6566047abd"
        }
      }
    },
    {
      "fullUrl": "urn:uuid:d0d5546d-f393-4ed4-a587-c5b85e221e46",
      "resource": {
        "resourceType": "Observation",
        "id": "d0d5546d-f393-4ed4-a587-c5b85e221e46",
        "meta": {
          "profile": [
            "http://hl7.eu/fhir/laboratory/StructureDefinition/Observation-resultslab-eu-lab"
          ]
        },
        "performer": [
          {
            "display": "The Central European Lab"
          }
        ],
        "category": [
          {
            "coding": [
              {
                "system": "http://terminology.hl7.org/CodeSystem/observation-category",
                "code": "laboratory"
              }
            ]
          }
        ],
        "code": {
          "coding": [
            {
              "code": "14959-1",
              "system": "http://loinc.org",
              "display": "Microalbumin/Creatinine [Mass Ratio] in Urine"
            }
          ],
          "text": "Microalbumin/Creatinine [Mass Ratio] in Urine"
        },
        "valueQuantity": {
          "system": "http://unitsofmeasure.org",
          "value": 1.3,
          "unit": "mg/g",
          "code": "mg/g"
        },
        "referenceRange": [
          {
            "low": {
              "value": 0,
              "code": "mg/g",
              "system": "http://unitsofmeasure.org"
            }
          },
          {
            "high": {
              "value": 30,
              "code": "mg/g",
              "system": "http://unitsofmeasure.org"
            }
          }
        ],
        "text": {
          "status": "generated",
          "div": "<div xmlns=\"http://www.w3.org/1999/xhtml\"><table class=\"hl7__eu__lab__report\"><tr><th>Test</th><th>07-Mar-2017</th><th>Reference&#xA0;Range</th><th>Unit</th></tr><tr><td>Microalbumin/Creatinine [Mass Ratio] in Urine</td><td>1.3</td><td>0 - 30</td><td></td><td>mg/g</td></tr></table></div>"
        },
        "status": "final",
        "subject": {
          "reference": "urn:uuid:d2c7b316-30e1-46f7-aefd-1c339b48bc94",
          "display": "Roy Harrison"
        },
        "effectiveDateTime": "2017-03-07T02:49:43Z",
        "specimen": {
          "reference": "urn:uuid:05fb5050-0297-45b8-bc15-dc669068df45"
        }
      }
    },
    {
      "fullUrl": "urn:uuid:d030c400-1b2e-4bb1-9071-8abe6934798d",
      "resource": {
        "resourceType": "Device",
        "id": "d030c400-1b2e-4bb1-9071-8abe6934798d",
        "deviceName": [
          {
            "name": "SYNDERAI Synthetic Generator",
            "type": "manufacturer-name"
          }
        ],
        "version": [
          {
            "value": "5.0"
          }
        ],
        "text": {
          "status": "generated",
          "div": "<div xmlns=\"http://www.w3.org/1999/xhtml\">SYNDERAI Synthetic Generator v5.0</div>"
        },
        "status": "active\"",
        "distinctIdentifier": "synderai-generator-50",
        "manufacturer": "SYNDERAI Project"
      }
    },
    {
      "fullUrl": "urn:uuid:8cd6ed6e-fa92-4bb4-8ba3-22f7330a1bc1",
      "resource": {
        "resourceType": "Provenance",
        "id": "8cd6ed6e-fa92-4bb4-8ba3-22f7330a1bc1",
        "target": [
          {
            "reference": "Patient/d2c7b316-30e1-46f7-aefd-1c339b48bc94"
          },
          {
            "reference": "Bundle/72bf2f86-8419-486d-ae3e-6ed96b9f3e35"
          },
          {
            "reference": "Composition/94330c27-0617-4ff7-948c-86f551c2db1c"
          },
          {
            "reference": "PractitionerRole/b9a8f1a3-ad97-4b36-9799-3b8184047f3a"
          },
          {
            "reference": "Practitioner/0ad4db7a-b918-4a6e-9a85-0ff49dd6a143"
          },
          {
            "reference": "PractitionerRole/600e3c66-16ad-41cc-b1f8-9d68a5010d00"
          },
          {
            "reference": "Organization/ac3b596f-1698-45c7-902a-8493ac04977b"
          }
        ],
        "activity": {
          "text": "Synthetic Example Data Generation"
        },
        "policy": [
          "https://synderai.net/synderai-synthetic-data-policy"
        ],
        "agent": [
          {
            "type": {
              "text": "author"
            },
            "who": {
              "reference": "Device/d030c400-1b2e-4bb1-9071-8abe6934798d"
            }
          }
        ],
        "reason": [
          {
            "text": "Interoperability Testing and Training (non-clinical use)"
          }
        ],
        "text": {
          "status": "generated",
          "div": "<div xmlns=\"http://www.w3.org/1999/xhtml\">Provenance for SYNDERAI Synthetic Example Data Resource</div>"
        },
        "recorded": "2017-03-07T03:49:43Z"
      }
    },
    {
      "fullUrl": "urn:uuid:b9a8f1a3-ad97-4b36-9799-3b8184047f3a",
      "resource": {
        "resourceType": "PractitionerRole",
        "id": "b9a8f1a3-ad97-4b36-9799-3b8184047f3a",
        "meta": {
          "profile": [
            "http://hl7.eu/fhir/base/StructureDefinition/practitionerRole-eu"
          ]
        },
        "text": {
          "status": "generated",
          "div": "<div xmlns=\"http://www.w3.org/1999/xhtml\">Laboratory Role Id: b9a8f1a3-ad97-4b36-9799-3b8184047f3a</div>"
        },
        "practitioner": {
          "reference": "urn:uuid:0ad4db7a-b918-4a6e-9a85-0ff49dd6a143"
        }
      }
    },
    {
      "fullUrl": "urn:uuid:0ad4db7a-b918-4a6e-9a85-0ff49dd6a143",
      "resource": {
        "resourceType": "Practitioner",
        "id": "0ad4db7a-b918-4a6e-9a85-0ff49dd6a143",
        "meta": {
          "profile": [
            "http://hl7.eu/fhir/base/StructureDefinition/practitioner-eu"
          ]
        },
        "identifier": [
          {
            "assigner": {
              "display": "HL7 Europe"
            },
            "system": "urn:oid:2.16.840.1.113883.2.51.999",
            "value": "475303ba-d0a4-4697-977b-90d521871ed0"
          }
        ],
        "name": [
          {
            "prefix": [
              "dr"
            ],
            "given": [
              "Ex"
            ],
            "family": "Ample"
          }
        ],
        "address": [
          {
            "line": [
              "Laboratoire Central Europenne",
              "Boulevard du Jardin Botanique 32"
            ],
            "postalCode": "1000",
            "city": "Brussels",
            "country": "Belgium"
          }
        ],
        "text": {
          "status": "generated",
          "div": "<div xmlns=\"http://www.w3.org/1999/xhtml\">Laboratory: Laboratoire Central Europenne, 1000 Brussels, Belgium</div>"
        }
      }
    }
  ],
  "type": "document",
  "timestamp": "2017-03-07T03:49:43Z"
}
