{
  "resourceType": "Bundle",
  "id": "f88993cb-cf6c-4833-8a73-eaa61d64bad4",
  "meta": {
    "profile": [
      "http://hl7.eu/fhir/laboratory/StructureDefinition/Bundle-eu-lab"
    ]
  },
  "identifier": {
    "assigner": {
      "display": "HL7 Europe"
    },
    "system": "urn:oid:2.16.840.1.113883.2.51.999",
    "value": "af9cf1cf-d154-42d7-a88b-1189489a1a2b"
  },
  "entry": [
    {
      "fullUrl": "urn:uuid:27ee449c-1d39-4211-8fe1-d8b577d4f380",
      "resource": {
        "resourceType": "Composition",
        "id": "27ee449c-1d39-4211-8fe1-d8b577d4f380",
        "meta": {
          "profile": [
            "http://hl7.eu/fhir/laboratory/StructureDefinition/Composition-eu-lab"
          ]
        },
        "identifier": {
          "assigner": {
            "display": "HL7 Europe"
          },
          "system": "urn:oid:2.16.840.1.113883.2.51.999",
          "value": "39501fe8-85a3-427d-aa36-f612162dbe58"
        },
        "author": [
          {
            "reference": "urn:uuid:99030034-4886-48fe-bb77-78881c7c52d8"
          }
        ],
        "category": [
          {
            "coding": [
              {
                "code": "26436-6",
                "system": "http://loinc.org",
                "display": "Laboratory studies (set)"
              }
            ]
          }
        ],
        "type": {
          "coding": [
            {
              "code": "11502-2",
              "system": "http://loinc.org",
              "display": "Laboratory report"
            }
          ],
          "text": "Laboratory Report"
        },
        "section": [
          {
            "code": {
              "coding": [
                {
                  "code": "26436-6",
                  "system": "http://loinc.org",
                  "display": "Laboratory studies (set)"
                }
              ],
              "text": "Laboratory studies"
            },
            "section": [
              {
                "code": {
                  "coding": [
                    {
                      "code": "$18719-5",
                      "system": "http://loinc.org",
                      "display": "Chemistry studies (set)"
                    }
                  ],
                  "text": "Chemistry"
                },
                "entry": [
                  {
                    "reference": "urn:uuid:75dd6d92-376d-4fcb-bafb-1ff10bd2a94a"
                  },
                  {
                    "reference": "urn:uuid:294fbc7e-298a-4a33-9b9e-4a0e8fb232f7"
                  },
                  {
                    "reference": "urn:uuid:3b455e8d-e450-4b1e-bfc3-8a7a42974ac6"
                  },
                  {
                    "reference": "urn:uuid:ba738e30-a149-4bba-a6b5-6aa0c609a2a3"
                  },
                  {
                    "reference": "urn:uuid:75d06b11-b099-4bef-9aab-15cb77134c2b"
                  },
                  {
                    "reference": "urn:uuid:9b57becc-9580-49df-8e84-83edc52f2c9c"
                  },
                  {
                    "reference": "urn:uuid:30194ad8-51e7-4abf-90c2-95ea4eee6023"
                  },
                  {
                    "reference": "urn:uuid:5b5548c9-83ef-43e5-9c69-fa3b7e132a3b"
                  },
                  {
                    "reference": "urn:uuid:8e423679-be65-4b46-ac63-d8b95395bd35"
                  }
                ],
                "text": {
                  "status": "generated",
                  "div": "<div xmlns=\"http://www.w3.org/1999/xhtml\"><h3>Chemistry</h3><table class=\"hl7__eu__lab__report\"><thead><tr><th>Test</th><th>31-JAN-2023</th><th>Reference&#xA0;Range</th><th>Unit</th></tr></thead><tbody><tr><td>Hemoglobin A1c/Hemoglobin.total in Blood</td><td><strong>5.8 H</strong></td><td>4.8 - 5.7</td><td>%</td></tr><tr><td>Glucose [Mass/volume] in Blood</td><td>80.7</td><td>70 - 100</td><td>mg/dL</td></tr><tr><td>Urea nitrogen [Mass/volume] in Blood</td><td>8.5</td><td>7 - 20</td><td>mg/dL</td></tr><tr><td>Creatinine [Mass/volume] in Blood</td><td>0.8</td><td>0.6 - 1.1</td><td>mg/dL</td></tr><tr><td>Calcium [Mass/volume] in Blood</td><td>9.2</td><td>8.5 - 10.5</td><td>mg/dL</td></tr><tr><td>Sodium [Moles/volume] in Blood</td><td>139.7</td><td>135 - 145</td><td>mmol/L</td></tr><tr><td>Potassium [Moles/volume] in Blood</td><td>4.4</td><td>3.5 - 5.1</td><td>mmol/L</td></tr><tr><td>Chloride [Moles/volume] in Blood</td><td>109.4</td><td>98 - 110</td><td>mmol/L</td></tr><tr><td>Carbon dioxide, total [Moles/volume] in Blood</td><td>27.9</td><td>22 - 29</td><td>mmol/L</td></tr></tbody></table></div>"
                },
                "title": "Chemistry"
              }
            ],
            "title": "Laboratory Report"
          },
          {
            "text": {
              "status": "generated",
              "div": "<div xmlns=\"http://www.w3.org/1999/xhtml\"><h3>Annotation</h3><table class=\"hl7__eu__lab__report\"><tr><th>Conclusion and Recommendations based on this report and previous findings known to us</th></tr><tr><td>All results are within normal limits except for a mildly elevated HbA1c (5.8%), which suggests prediabetes or impaired glucose tolerance. Glucose is currently normal. Recommend clinical correlation, lifestyle counseling, and repeat HbA1c monitoring. No evidence of renal or electrolyte abnormalities.</td></tr></table></div>"
            },
            "code": {
              "coding": [
                {
                  "system": "http://loinc.org",
                  "code": "48767-8",
                  "display": "Annotation comment"
                }
              ]
            },
            "title": "Annotation comment"
          }
        ],
        "status": "final",
        "subject": {
          "reference": "urn:uuid:623b28b8-1036-47af-9874-dcd6f6fe4b53",
          "display": "Marina Norbiato"
        },
        "date": "2023-01-31T06:31:43Z",
        "title": "Laboratory Report",
        "confidentiality": "N"
      }
    },
    {
      "fullUrl": "urn:uuid:ad36e75a-3174-4906-88d7-2de76bedcf0f",
      "resource": {
        "resourceType": "DiagnosticReport",
        "id": "ad36e75a-3174-4906-88d7-2de76bedcf0f",
        "meta": {
          "profile": [
            "http://hl7.eu/fhir/laboratory/StructureDefinition/DiagnosticReport-eu-lab"
          ]
        },
        "identifier": [
          {
            "assigner": {
              "display": "HL7 Europe"
            },
            "system": "urn:oid:2.16.840.1.113883.2.51.999",
            "value": "2116ad09-b1b7-421d-b667-ad2fb59fec49"
          }
        ],
        "extension": [
          {
            "url": "http://hl7.org/fhir/5.0/StructureDefinition/extension-DiagnosticReport.composition",
            "valueReference": {
              "reference": "urn:uuid:39501fe8-85a3-427d-aa36-f612162dbe58"
            }
          }
        ],
        "category": [
          {
            "coding": [
              {
                "code": "26436-6",
                "system": "http://loinc.org",
                "display": "Laboratory studies (set)"
              }
            ]
          }
        ],
        "specimen": [
          {
            "reference": "urn:uuid:a471b46c-7d15-4dd5-a57f-6b1c77df3bf9"
          }
        ],
        "result": [
          {
            "reference": "urn:uuid:75dd6d92-376d-4fcb-bafb-1ff10bd2a94a"
          },
          {
            "reference": "urn:uuid:294fbc7e-298a-4a33-9b9e-4a0e8fb232f7"
          },
          {
            "reference": "urn:uuid:3b455e8d-e450-4b1e-bfc3-8a7a42974ac6"
          },
          {
            "reference": "urn:uuid:ba738e30-a149-4bba-a6b5-6aa0c609a2a3"
          },
          {
            "reference": "urn:uuid:75d06b11-b099-4bef-9aab-15cb77134c2b"
          },
          {
            "reference": "urn:uuid:9b57becc-9580-49df-8e84-83edc52f2c9c"
          },
          {
            "reference": "urn:uuid:30194ad8-51e7-4abf-90c2-95ea4eee6023"
          },
          {
            "reference": "urn:uuid:5b5548c9-83ef-43e5-9c69-fa3b7e132a3b"
          },
          {
            "reference": "urn:uuid:8e423679-be65-4b46-ac63-d8b95395bd35"
          }
        ],
        "status": "registered",
        "code": {
          "coding": [
            {
              "code": "11502-2",
              "system": "http://loinc.org",
              "display": "Laboratory report"
            }
          ]
        },
        "subject": {
          "reference": "urn:uuid:623b28b8-1036-47af-9874-dcd6f6fe4b53",
          "display": "Marina Norbiato"
        }
      }
    },
    {
      "fullUrl": "urn:uuid:623b28b8-1036-47af-9874-dcd6f6fe4b53",
      "resource": {
        "resourceType": "Patient",
        "id": "623b28b8-1036-47af-9874-dcd6f6fe4b53",
        "meta": {
          "security": [
            {
              "system": "http://terminology.hl7.org/CodeSystem/v3-ActReason",
              "code": "HTEST"
            },
            {
              "system": "http://terminology.hl7.org/CodeSystem/v3-ActReason",
              "code": "TRAIN"
            }
          ],
          "tag": [
            {
              "system": "https://synderai.net/fhir/CodeSystem/tags",
              "code": "synthetic",
              "display": "SYNDERAI Synthetic data"
            }
          ],
          "profile": [
            "http://hl7.eu/fhir/base/StructureDefinition/patient-eu-core"
          ]
        },
        "identifier": [
          {
            "type": {
              "coding": [
                {
                  "code": "PT",
                  "system": "http://terminology.hl7.org/CodeSystem/v2-0203"
                }
              ]
            },
            "system": "http://ec.europa.eu/identifier/eci",
            "value": "5004-598122-7"
          },
          {
            "type": {
              "coding": [
                {
                  "code": "MR",
                  "system": "http://terminology.hl7.org/CodeSystem/v2-0203"
                }
              ]
            },
            "system": "http://local.setting.eu/identifier",
            "value": "35cd3e66-58a0-050b-9928-8805facaac98"
          }
        ],
        "name": [
          {
            "family": "Norbiato"
          },
          {
            "given": [
              "Marina"
            ]
          },
          {
            "text": "Marina Norbiato"
          }
        ],
        "address": [
          {
            "line": [
              "Via Squarcione, 2 Piano 6"
            ],
            "use": "home",
            "type": "physical",
            "postalCode": "25080",
            "city": "Remedello Di Sotto",
            "country": "Italy"
          }
        ],
        "telecom": [
          {
            "system": "phone",
            "value": "016359725"
          }
        ],
        "extension": [
          {
            "url": "http://hl7.org/fhir/StructureDefinition/patient-nationality",
            "valueCodeableConcept": {
              "coding": [
                {
                  "code": "IT",
                  "system": "http://hl7.org/fhir/ValueSet/country"
                }
              ]
            }
          }
        ],
        "text": {
          "status": "generated",
          "div": "<div xmlns=\"http://www.w3.org/1999/xhtml\"><table class=\"hl7__ips\"><tr><td>Marina Norbiato</td><td>female</td><td>30-Aug-1999</td></tr></table></div>"
        },
        "gender": "female",
        "birthDate": "1999-08-30"
      }
    },
    {
      "fullUrl": "urn:uuid:024ac954-ecf1-4b79-8b13-43d8bb1a7a82",
      "resource": {
        "resourceType": "ServiceRequest",
        "id": "024ac954-ecf1-4b79-8b13-43d8bb1a7a82",
        "meta": {
          "profile": [
            "http://hl7.eu/fhir/laboratory/StructureDefinition/ServiceRequest-eu-lab"
          ]
        },
        "identifier": [
          {
            "system": "http://example.org",
            "value": "5a4a2bfa-1d1a-4ecb-838c-41559de72d34"
          }
        ],
        "specimen": [
          {
            "reference": "urn:uuid:a471b46c-7d15-4dd5-a57f-6b1c77df3bf9"
          }
        ],
        "reasonCode": [
          {
            "coding": [
              {
                "code": "15777000",
                "system": "http://snomed.info/sct",
                "display": "Prediabetes"
              }
            ]
          }
        ],
        "status": "active",
        "intent": "order",
        "code": {
          "coding": [
            {
              "code": "108252007",
              "system": "http://snomed.info/sct",
              "display": "Laboratory procedure"
            }
          ]
        },
        "subject": {
          "reference": "urn:uuid:623b28b8-1036-47af-9874-dcd6f6fe4b53",
          "display": "Marina Norbiato"
        },
        "requester": {
          "reference": "urn:uuid:d82f9a39-cff8-4df0-a0ff-13ede32e862e"
        }
      }
    },
    {
      "fullUrl": "urn:uuid:d82f9a39-cff8-4df0-a0ff-13ede32e862e",
      "resource": {
        "resourceType": "PractitionerRole",
        "id": "d82f9a39-cff8-4df0-a0ff-13ede32e862e",
        "meta": {
          "profile": [
            "http://hl7.eu/fhir/base/StructureDefinition/practitionerRole-eu"
          ]
        },
        "text": {
          "status": "generated",
          "div": "<div xmlns=\"http://www.w3.org/1999/xhtml\">Provider Role Id: d82f9a39-cff8-4df0-a0ff-13ede32e862e</div>"
        },
        "organization": {
          "reference": "urn:uuid:27e1098f-0f8a-46d4-bc3e-6b40e3f8546f"
        }
      }
    },
    {
      "fullUrl": "urn:uuid:27e1098f-0f8a-46d4-bc3e-6b40e3f8546f",
      "resource": {
        "resourceType": "Organization",
        "id": "27e1098f-0f8a-46d4-bc3e-6b40e3f8546f",
        "meta": {
          "profile": [
            "http://hl7.eu/fhir/base/StructureDefinition/organization-eu"
          ]
        },
        "identifier": [
          {
            "assigner": {
              "display": "HL7 Europe"
            },
            "system": "urn:oid:2.16.840.1.113883.2.51.999",
            "value": "9e9dfc75-babe-4a23-b81f-4702488819df"
          }
        ],
        "address": [
          {
            "line": [
              "Piazzetta Donatori di sangue 1"
            ],
            "city": "Leno",
            "postalCode": "25024",
            "country": "Italy"
          }
        ],
        "text": {
          "status": "generated",
          "div": "<div xmlns=\"http://www.w3.org/1999/xhtml\">Provider Organization: Ospedale di Leno</div>"
        },
        "name": "Ospedale di Leno"
      }
    },
    {
      "fullUrl": "urn:uuid:a471b46c-7d15-4dd5-a57f-6b1c77df3bf9",
      "resource": {
        "resourceType": "Specimen",
        "id": "a471b46c-7d15-4dd5-a57f-6b1c77df3bf9",
        "meta": {
          "profile": [
            "http://hl7.eu/fhir/laboratory/StructureDefinition/Specimen-eu-lab"
          ]
        },
        "collection": {
          "collectedDateTime": "2023-01-31"
        },
        "text": {
          "status": "generated",
          "div": "<div xmlns=\"http://www.w3.org/1999/xhtml\"><table class=\"hl7__eu__lab__report\"><tr><th>Specimen</th><th>Collection Date</th></tr><tr><td>Whole blood specimen (specimen)</td><td><span class=\"nb\">31-Jan-2023</span></td></tr></table></div>"
        },
        "type": {
          "coding": [
            {
              "code": "258580003",
              "system": "http://snomed.info/sct",
              "display": "Whole blood specimen (specimen)"
            }
          ]
        }
      }
    },
    {
      "fullUrl": "urn:uuid:75dd6d92-376d-4fcb-bafb-1ff10bd2a94a",
      "resource": {
        "resourceType": "Observation",
        "id": "75dd6d92-376d-4fcb-bafb-1ff10bd2a94a",
        "meta": {
          "profile": [
            "http://hl7.eu/fhir/laboratory/StructureDefinition/Observation-resultslab-eu-lab"
          ]
        },
        "performer": [
          {
            "display": "The Central European Lab"
          }
        ],
        "category": [
          {
            "coding": [
              {
                "system": "http://terminology.hl7.org/CodeSystem/observation-category",
                "code": "laboratory"
              }
            ]
          }
        ],
        "code": {
          "coding": [
            {
              "code": "4548-4",
              "system": "http://loinc.org",
              "display": "Hemoglobin A1c/Hemoglobin.total in Blood"
            }
          ],
          "text": "Hemoglobin A1c/Hemoglobin.total in Blood"
        },
        "valueQuantity": {
          "system": "http://unitsofmeasure.org",
          "value": 5.8,
          "unit": "%",
          "code": "%"
        },
        "referenceRange": [
          {
            "low": {
              "value": 4.8,
              "code": "%",
              "system": "http://unitsofmeasure.org"
            }
          },
          {
            "high": {
              "value": 5.7,
              "code": "%",
              "system": "http://unitsofmeasure.org"
            }
          }
        ],
        "interpretation": [
          {
            "coding": [
              {
                "code": "H",
                "system": "http://terminology.hl7.org/CodeSystem/v3-ObservationInterpretation",
                "display": "High"
              }
            ]
          }
        ],
        "text": {
          "status": "generated",
          "div": "<div xmlns=\"http://www.w3.org/1999/xhtml\"><table class=\"hl7__eu__lab__report\"><tr><th>Test</th><th>31-Jan-2023</th><th>Reference&#xA0;Range</th><th>Unit</th></tr><tr><td>Hemoglobin A1c/Hemoglobin.total in Blood</td><td>5.8</td><td>4.8 - 5.7</td><td>H</td><td>%</td></tr></table></div>"
        },
        "status": "final",
        "subject": {
          "reference": "urn:uuid:623b28b8-1036-47af-9874-dcd6f6fe4b53",
          "display": "Marina Norbiato"
        },
        "effectiveDateTime": "2023-01-31T05:31:43Z",
        "specimen": {
          "reference": "urn:uuid:a471b46c-7d15-4dd5-a57f-6b1c77df3bf9"
        }
      }
    },
    {
      "fullUrl": "urn:uuid:294fbc7e-298a-4a33-9b9e-4a0e8fb232f7",
      "resource": {
        "resourceType": "Observation",
        "id": "294fbc7e-298a-4a33-9b9e-4a0e8fb232f7",
        "meta": {
          "profile": [
            "http://hl7.eu/fhir/laboratory/StructureDefinition/Observation-resultslab-eu-lab"
          ]
        },
        "performer": [
          {
            "display": "The Central European Lab"
          }
        ],
        "category": [
          {
            "coding": [
              {
                "system": "http://terminology.hl7.org/CodeSystem/observation-category",
                "code": "laboratory"
              }
            ]
          }
        ],
        "code": {
          "coding": [
            {
              "code": "2339-0",
              "system": "http://loinc.org",
              "display": "Glucose [Mass/volume] in Blood"
            }
          ],
          "text": "Glucose [Mass/volume] in Blood"
        },
        "valueQuantity": {
          "system": "http://unitsofmeasure.org",
          "value": 80.7,
          "unit": "mg/dL",
          "code": "mg/dL"
        },
        "referenceRange": [
          {
            "low": {
              "value": 70,
              "code": "mg/dL",
              "system": "http://unitsofmeasure.org"
            }
          },
          {
            "high": {
              "value": 100,
              "code": "mg/dL",
              "system": "http://unitsofmeasure.org"
            }
          }
        ],
        "text": {
          "status": "generated",
          "div": "<div xmlns=\"http://www.w3.org/1999/xhtml\"><table class=\"hl7__eu__lab__report\"><tr><th>Test</th><th>31-Jan-2023</th><th>Reference&#xA0;Range</th><th>Unit</th></tr><tr><td>Glucose [Mass/volume] in Blood</td><td>80.7</td><td>70 - 100</td><td></td><td>mg/dL</td></tr></table></div>"
        },
        "status": "final",
        "subject": {
          "reference": "urn:uuid:623b28b8-1036-47af-9874-dcd6f6fe4b53",
          "display": "Marina Norbiato"
        },
        "effectiveDateTime": "2023-01-31T05:31:43Z",
        "specimen": {
          "reference": "urn:uuid:a471b46c-7d15-4dd5-a57f-6b1c77df3bf9"
        }
      }
    },
    {
      "fullUrl": "urn:uuid:3b455e8d-e450-4b1e-bfc3-8a7a42974ac6",
      "resource": {
        "resourceType": "Observation",
        "id": "3b455e8d-e450-4b1e-bfc3-8a7a42974ac6",
        "meta": {
          "profile": [
            "http://hl7.eu/fhir/laboratory/StructureDefinition/Observation-resultslab-eu-lab"
          ]
        },
        "performer": [
          {
            "display": "The Central European Lab"
          }
        ],
        "category": [
          {
            "coding": [
              {
                "system": "http://terminology.hl7.org/CodeSystem/observation-category",
                "code": "laboratory"
              }
            ]
          }
        ],
        "code": {
          "coding": [
            {
              "code": "6299-2",
              "system": "http://loinc.org",
              "display": "Urea nitrogen [Mass/volume] in Blood"
            }
          ],
          "text": "Urea nitrogen [Mass/volume] in Blood"
        },
        "valueQuantity": {
          "system": "http://unitsofmeasure.org",
          "value": 8.5,
          "unit": "mg/dL",
          "code": "mg/dL"
        },
        "referenceRange": [
          {
            "low": {
              "value": 7,
              "code": "mg/dL",
              "system": "http://unitsofmeasure.org"
            }
          },
          {
            "high": {
              "value": 20,
              "code": "mg/dL",
              "system": "http://unitsofmeasure.org"
            }
          }
        ],
        "text": {
          "status": "generated",
          "div": "<div xmlns=\"http://www.w3.org/1999/xhtml\"><table class=\"hl7__eu__lab__report\"><tr><th>Test</th><th>31-Jan-2023</th><th>Reference&#xA0;Range</th><th>Unit</th></tr><tr><td>Urea nitrogen [Mass/volume] in Blood</td><td>8.5</td><td>7 - 20</td><td></td><td>mg/dL</td></tr></table></div>"
        },
        "status": "final",
        "subject": {
          "reference": "urn:uuid:623b28b8-1036-47af-9874-dcd6f6fe4b53",
          "display": "Marina Norbiato"
        },
        "effectiveDateTime": "2023-01-31T05:31:43Z",
        "specimen": {
          "reference": "urn:uuid:a471b46c-7d15-4dd5-a57f-6b1c77df3bf9"
        }
      }
    },
    {
      "fullUrl": "urn:uuid:ba738e30-a149-4bba-a6b5-6aa0c609a2a3",
      "resource": {
        "resourceType": "Observation",
        "id": "ba738e30-a149-4bba-a6b5-6aa0c609a2a3",
        "meta": {
          "profile": [
            "http://hl7.eu/fhir/laboratory/StructureDefinition/Observation-resultslab-eu-lab"
          ]
        },
        "performer": [
          {
            "display": "The Central European Lab"
          }
        ],
        "category": [
          {
            "coding": [
              {
                "system": "http://terminology.hl7.org/CodeSystem/observation-category",
                "code": "laboratory"
              }
            ]
          }
        ],
        "code": {
          "coding": [
            {
              "code": "38483-4",
              "system": "http://loinc.org",
              "display": "Creatinine [Mass/volume] in Blood"
            }
          ],
          "text": "Creatinine [Mass/volume] in Blood"
        },
        "valueQuantity": {
          "system": "http://unitsofmeasure.org",
          "value": 0.8,
          "unit": "mg/dL",
          "code": "mg/dL"
        },
        "referenceRange": [
          {
            "low": {
              "value": 0.6,
              "code": "mg/dL",
              "system": "http://unitsofmeasure.org"
            }
          },
          {
            "high": {
              "value": 1.1,
              "code": "mg/dL",
              "system": "http://unitsofmeasure.org"
            }
          }
        ],
        "text": {
          "status": "generated",
          "div": "<div xmlns=\"http://www.w3.org/1999/xhtml\"><table class=\"hl7__eu__lab__report\"><tr><th>Test</th><th>31-Jan-2023</th><th>Reference&#xA0;Range</th><th>Unit</th></tr><tr><td>Creatinine [Mass/volume] in Blood</td><td>0.8</td><td>0.6 - 1.1</td><td></td><td>mg/dL</td></tr></table></div>"
        },
        "status": "final",
        "subject": {
          "reference": "urn:uuid:623b28b8-1036-47af-9874-dcd6f6fe4b53",
          "display": "Marina Norbiato"
        },
        "effectiveDateTime": "2023-01-31T05:31:43Z",
        "specimen": {
          "reference": "urn:uuid:a471b46c-7d15-4dd5-a57f-6b1c77df3bf9"
        }
      }
    },
    {
      "fullUrl": "urn:uuid:75d06b11-b099-4bef-9aab-15cb77134c2b",
      "resource": {
        "resourceType": "Observation",
        "id": "75d06b11-b099-4bef-9aab-15cb77134c2b",
        "meta": {
          "profile": [
            "http://hl7.eu/fhir/laboratory/StructureDefinition/Observation-resultslab-eu-lab"
          ]
        },
        "performer": [
          {
            "display": "The Central European Lab"
          }
        ],
        "category": [
          {
            "coding": [
              {
                "system": "http://terminology.hl7.org/CodeSystem/observation-category",
                "code": "laboratory"
              }
            ]
          }
        ],
        "code": {
          "coding": [
            {
              "code": "49765-1",
              "system": "http://loinc.org",
              "display": "Calcium [Mass/volume] in Blood"
            }
          ],
          "text": "Calcium [Mass/volume] in Blood"
        },
        "valueQuantity": {
          "system": "http://unitsofmeasure.org",
          "value": 9.2,
          "unit": "mg/dL",
          "code": "mg/dL"
        },
        "referenceRange": [
          {
            "low": {
              "value": 8.5,
              "code": "mg/dL",
              "system": "http://unitsofmeasure.org"
            }
          },
          {
            "high": {
              "value": 10.5,
              "code": "mg/dL",
              "system": "http://unitsofmeasure.org"
            }
          }
        ],
        "text": {
          "status": "generated",
          "div": "<div xmlns=\"http://www.w3.org/1999/xhtml\"><table class=\"hl7__eu__lab__report\"><tr><th>Test</th><th>31-Jan-2023</th><th>Reference&#xA0;Range</th><th>Unit</th></tr><tr><td>Calcium [Mass/volume] in Blood</td><td>9.2</td><td>8.5 - 10.5</td><td></td><td>mg/dL</td></tr></table></div>"
        },
        "status": "final",
        "subject": {
          "reference": "urn:uuid:623b28b8-1036-47af-9874-dcd6f6fe4b53",
          "display": "Marina Norbiato"
        },
        "effectiveDateTime": "2023-01-31T05:31:43Z",
        "specimen": {
          "reference": "urn:uuid:a471b46c-7d15-4dd5-a57f-6b1c77df3bf9"
        }
      }
    },
    {
      "fullUrl": "urn:uuid:9b57becc-9580-49df-8e84-83edc52f2c9c",
      "resource": {
        "resourceType": "Observation",
        "id": "9b57becc-9580-49df-8e84-83edc52f2c9c",
        "meta": {
          "profile": [
            "http://hl7.eu/fhir/laboratory/StructureDefinition/Observation-resultslab-eu-lab"
          ]
        },
        "performer": [
          {
            "display": "The Central European Lab"
          }
        ],
        "category": [
          {
            "coding": [
              {
                "system": "http://terminology.hl7.org/CodeSystem/observation-category",
                "code": "laboratory"
              }
            ]
          }
        ],
        "code": {
          "coding": [
            {
              "code": "2947-0",
              "system": "http://loinc.org",
              "display": "Sodium [Moles/volume] in Blood"
            }
          ],
          "text": "Sodium [Moles/volume] in Blood"
        },
        "valueQuantity": {
          "system": "http://unitsofmeasure.org",
          "value": 139.7,
          "unit": "mmol/L",
          "code": "mmol/L"
        },
        "referenceRange": [
          {
            "low": {
              "value": 135,
              "code": "mmol/L",
              "system": "http://unitsofmeasure.org"
            }
          },
          {
            "high": {
              "value": 145,
              "code": "mmol/L",
              "system": "http://unitsofmeasure.org"
            }
          }
        ],
        "text": {
          "status": "generated",
          "div": "<div xmlns=\"http://www.w3.org/1999/xhtml\"><table class=\"hl7__eu__lab__report\"><tr><th>Test</th><th>31-Jan-2023</th><th>Reference&#xA0;Range</th><th>Unit</th></tr><tr><td>Sodium [Moles/volume] in Blood</td><td>139.7</td><td>135 - 145</td><td></td><td>mmol/L</td></tr></table></div>"
        },
        "status": "final",
        "subject": {
          "reference": "urn:uuid:623b28b8-1036-47af-9874-dcd6f6fe4b53",
          "display": "Marina Norbiato"
        },
        "effectiveDateTime": "2023-01-31T05:31:43Z",
        "specimen": {
          "reference": "urn:uuid:a471b46c-7d15-4dd5-a57f-6b1c77df3bf9"
        }
      }
    },
    {
      "fullUrl": "urn:uuid:30194ad8-51e7-4abf-90c2-95ea4eee6023",
      "resource": {
        "resourceType": "Observation",
        "id": "30194ad8-51e7-4abf-90c2-95ea4eee6023",
        "meta": {
          "profile": [
            "http://hl7.eu/fhir/laboratory/StructureDefinition/Observation-resultslab-eu-lab"
          ]
        },
        "performer": [
          {
            "display": "The Central European Lab"
          }
        ],
        "category": [
          {
            "coding": [
              {
                "system": "http://terminology.hl7.org/CodeSystem/observation-category",
                "code": "laboratory"
              }
            ]
          }
        ],
        "code": {
          "coding": [
            {
              "code": "6298-4",
              "system": "http://loinc.org",
              "display": "Potassium [Moles/volume] in Blood"
            }
          ],
          "text": "Potassium [Moles/volume] in Blood"
        },
        "valueQuantity": {
          "system": "http://unitsofmeasure.org",
          "value": 4.4,
          "unit": "mmol/L",
          "code": "mmol/L"
        },
        "referenceRange": [
          {
            "low": {
              "value": 3.5,
              "code": "mmol/L",
              "system": "http://unitsofmeasure.org"
            }
          },
          {
            "high": {
              "value": 5.1,
              "code": "mmol/L",
              "system": "http://unitsofmeasure.org"
            }
          }
        ],
        "text": {
          "status": "generated",
          "div": "<div xmlns=\"http://www.w3.org/1999/xhtml\"><table class=\"hl7__eu__lab__report\"><tr><th>Test</th><th>31-Jan-2023</th><th>Reference&#xA0;Range</th><th>Unit</th></tr><tr><td>Potassium [Moles/volume] in Blood</td><td>4.4</td><td>3.5 - 5.1</td><td></td><td>mmol/L</td></tr></table></div>"
        },
        "status": "final",
        "subject": {
          "reference": "urn:uuid:623b28b8-1036-47af-9874-dcd6f6fe4b53",
          "display": "Marina Norbiato"
        },
        "effectiveDateTime": "2023-01-31T05:31:43Z",
        "specimen": {
          "reference": "urn:uuid:a471b46c-7d15-4dd5-a57f-6b1c77df3bf9"
        }
      }
    },
    {
      "fullUrl": "urn:uuid:5b5548c9-83ef-43e5-9c69-fa3b7e132a3b",
      "resource": {
        "resourceType": "Observation",
        "id": "5b5548c9-83ef-43e5-9c69-fa3b7e132a3b",
        "meta": {
          "profile": [
            "http://hl7.eu/fhir/laboratory/StructureDefinition/Observation-resultslab-eu-lab"
          ]
        },
        "performer": [
          {
            "display": "The Central European Lab"
          }
        ],
        "category": [
          {
            "coding": [
              {
                "system": "http://terminology.hl7.org/CodeSystem/observation-category",
                "code": "laboratory"
              }
            ]
          }
        ],
        "code": {
          "coding": [
            {
              "code": "2069-3",
              "system": "http://loinc.org",
              "display": "Chloride [Moles/volume] in Blood"
            }
          ],
          "text": "Chloride [Moles/volume] in Blood"
        },
        "valueQuantity": {
          "system": "http://unitsofmeasure.org",
          "value": 109.4,
          "unit": "mmol/L",
          "code": "mmol/L"
        },
        "referenceRange": [
          {
            "low": {
              "value": 98,
              "code": "mmol/L",
              "system": "http://unitsofmeasure.org"
            }
          },
          {
            "high": {
              "value": 110,
              "code": "mmol/L",
              "system": "http://unitsofmeasure.org"
            }
          }
        ],
        "text": {
          "status": "generated",
          "div": "<div xmlns=\"http://www.w3.org/1999/xhtml\"><table class=\"hl7__eu__lab__report\"><tr><th>Test</th><th>31-Jan-2023</th><th>Reference&#xA0;Range</th><th>Unit</th></tr><tr><td>Chloride [Moles/volume] in Blood</td><td>109.4</td><td>98 - 110</td><td></td><td>mmol/L</td></tr></table></div>"
        },
        "status": "final",
        "subject": {
          "reference": "urn:uuid:623b28b8-1036-47af-9874-dcd6f6fe4b53",
          "display": "Marina Norbiato"
        },
        "effectiveDateTime": "2023-01-31T05:31:43Z",
        "specimen": {
          "reference": "urn:uuid:a471b46c-7d15-4dd5-a57f-6b1c77df3bf9"
        }
      }
    },
    {
      "fullUrl": "urn:uuid:8e423679-be65-4b46-ac63-d8b95395bd35",
      "resource": {
        "resourceType": "Observation",
        "id": "8e423679-be65-4b46-ac63-d8b95395bd35",
        "meta": {
          "profile": [
            "http://hl7.eu/fhir/laboratory/StructureDefinition/Observation-resultslab-eu-lab"
          ]
        },
        "performer": [
          {
            "display": "The Central European Lab"
          }
        ],
        "category": [
          {
            "coding": [
              {
                "system": "http://terminology.hl7.org/CodeSystem/observation-category",
                "code": "laboratory"
              }
            ]
          }
        ],
        "code": {
          "coding": [
            {
              "code": "20565-8",
              "system": "http://loinc.org",
              "display": "Carbon dioxide, total [Moles/volume] in Blood"
            }
          ],
          "text": "Carbon dioxide, total [Moles/volume] in Blood"
        },
        "valueQuantity": {
          "system": "http://unitsofmeasure.org",
          "value": 27.9,
          "unit": "mmol/L",
          "code": "mmol/L"
        },
        "referenceRange": [
          {
            "low": {
              "value": 22,
              "code": "mmol/L",
              "system": "http://unitsofmeasure.org"
            }
          },
          {
            "high": {
              "value": 29,
              "code": "mmol/L",
              "system": "http://unitsofmeasure.org"
            }
          }
        ],
        "text": {
          "status": "generated",
          "div": "<div xmlns=\"http://www.w3.org/1999/xhtml\"><table class=\"hl7__eu__lab__report\"><tr><th>Test</th><th>31-Jan-2023</th><th>Reference&#xA0;Range</th><th>Unit</th></tr><tr><td>Carbon dioxide, total [Moles/volume] in Blood</td><td>27.9</td><td>22 - 29</td><td></td><td>mmol/L</td></tr></table></div>"
        },
        "status": "final",
        "subject": {
          "reference": "urn:uuid:623b28b8-1036-47af-9874-dcd6f6fe4b53",
          "display": "Marina Norbiato"
        },
        "effectiveDateTime": "2023-01-31T05:31:43Z",
        "specimen": {
          "reference": "urn:uuid:a471b46c-7d15-4dd5-a57f-6b1c77df3bf9"
        }
      }
    },
    {
      "fullUrl": "urn:uuid:623990d2-49cf-4fe2-9813-9914c21a7bb9",
      "resource": {
        "resourceType": "Device",
        "id": "623990d2-49cf-4fe2-9813-9914c21a7bb9",
        "deviceName": [
          {
            "name": "SYNDERAI Synthetic Generator",
            "type": "manufacturer-name"
          }
        ],
        "version": [
          {
            "value": "5.0"
          }
        ],
        "text": {
          "status": "generated",
          "div": "<div xmlns=\"http://www.w3.org/1999/xhtml\">SYNDERAI Synthetic Generator v5.0</div>"
        },
        "status": "active\"",
        "distinctIdentifier": "synderai-generator-50",
        "manufacturer": "SYNDERAI Project"
      }
    },
    {
      "fullUrl": "urn:uuid:787bfc81-3851-4a19-a879-e8386b2aa953",
      "resource": {
        "resourceType": "Provenance",
        "id": "787bfc81-3851-4a19-a879-e8386b2aa953",
        "target": [
          {
            "reference": "Patient/623b28b8-1036-47af-9874-dcd6f6fe4b53"
          },
          {
            "reference": "Bundle/f88993cb-cf6c-4833-8a73-eaa61d64bad4"
          },
          {
            "reference": "Composition/27ee449c-1d39-4211-8fe1-d8b577d4f380"
          },
          {
            "reference": "PractitionerRole/99030034-4886-48fe-bb77-78881c7c52d8"
          },
          {
            "reference": "Practitioner/39c14915-d13f-41ef-83cc-c7a1ad549d1f"
          },
          {
            "reference": "PractitionerRole/d82f9a39-cff8-4df0-a0ff-13ede32e862e"
          },
          {
            "reference": "Organization/27e1098f-0f8a-46d4-bc3e-6b40e3f8546f"
          }
        ],
        "activity": {
          "text": "Synthetic Example Data Generation"
        },
        "policy": [
          "https://synderai.net/synderai-synthetic-data-policy"
        ],
        "agent": [
          {
            "type": {
              "text": "author"
            },
            "who": {
              "reference": "Device/623990d2-49cf-4fe2-9813-9914c21a7bb9"
            }
          }
        ],
        "reason": [
          {
            "text": "Interoperability Testing and Training (non-clinical use)"
          }
        ],
        "text": {
          "status": "generated",
          "div": "<div xmlns=\"http://www.w3.org/1999/xhtml\">Provenance for SYNDERAI Synthetic Example Data Resource</div>"
        },
        "recorded": "2023-01-31T06:31:43Z"
      }
    },
    {
      "fullUrl": "urn:uuid:99030034-4886-48fe-bb77-78881c7c52d8",
      "resource": {
        "resourceType": "PractitionerRole",
        "id": "99030034-4886-48fe-bb77-78881c7c52d8",
        "meta": {
          "profile": [
            "http://hl7.eu/fhir/base/StructureDefinition/practitionerRole-eu"
          ]
        },
        "text": {
          "status": "generated",
          "div": "<div xmlns=\"http://www.w3.org/1999/xhtml\">Laboratory Role Id: 99030034-4886-48fe-bb77-78881c7c52d8</div>"
        },
        "practitioner": {
          "reference": "urn:uuid:39c14915-d13f-41ef-83cc-c7a1ad549d1f"
        }
      }
    },
    {
      "fullUrl": "urn:uuid:39c14915-d13f-41ef-83cc-c7a1ad549d1f",
      "resource": {
        "resourceType": "Practitioner",
        "id": "39c14915-d13f-41ef-83cc-c7a1ad549d1f",
        "meta": {
          "profile": [
            "http://hl7.eu/fhir/base/StructureDefinition/practitioner-eu"
          ]
        },
        "identifier": [
          {
            "assigner": {
              "display": "HL7 Europe"
            },
            "system": "urn:oid:2.16.840.1.113883.2.51.999",
            "value": "b02c3141-f104-426b-8cdc-c2f910bdda21"
          }
        ],
        "name": [
          {
            "prefix": [
              "dr"
            ],
            "given": [
              "Ex"
            ],
            "family": "Ample"
          }
        ],
        "address": [
          {
            "line": [
              "Laboratoire Central Européenne",
              "Boulevard du Jardin Botanique 32"
            ],
            "postalCode": "1000",
            "city": "Brussels",
            "country": "Belgium"
          }
        ],
        "text": {
          "status": "generated",
          "div": "<div xmlns=\"http://www.w3.org/1999/xhtml\">Laboratory: Laboratoire Central Européenne, 1000 Brussels, Belgium</div>"
        }
      }
    }
  ],
  "type": "document",
  "timestamp": "2023-01-31T06:31:43Z"
}
