{
  "resourceType": "Bundle",
  "id": "d7e2de86-eaed-4110-b150-ef8040e172f0",
  "meta": {
    "profile": [
      "http://hl7.eu/fhir/laboratory/StructureDefinition/Bundle-eu-lab"
    ]
  },
  "identifier": {
    "assigner": {
      "display": "HL7 Europe"
    },
    "system": "urn:oid:2.16.840.1.113883.2.51.999",
    "value": "20e2faad-90ce-41d8-965c-d0ec6028c19c"
  },
  "entry": [
    {
      "fullUrl": "urn:uuid:96fd4fff-c467-4484-850f-42b18138ab86",
      "resource": {
        "resourceType": "Composition",
        "id": "96fd4fff-c467-4484-850f-42b18138ab86",
        "meta": {
          "profile": [
            "http://hl7.eu/fhir/laboratory/StructureDefinition/Composition-eu-lab"
          ]
        },
        "identifier": {
          "assigner": {
            "display": "HL7 Europe"
          },
          "system": "urn:oid:2.16.840.1.113883.2.51.999",
          "value": "9c346c07-4354-4796-b94c-523d0c516485"
        },
        "author": [
          {
            "reference": "urn:uuid:efd32e54-78d7-46f5-996f-37f0b2e86cde"
          }
        ],
        "category": [
          {
            "coding": [
              {
                "code": "26436-6",
                "system": "http://loinc.org",
                "display": "Laboratory studies (set)"
              }
            ]
          }
        ],
        "type": {
          "coding": [
            {
              "code": "11502-2",
              "system": "http://loinc.org",
              "display": "Laboratory report"
            }
          ],
          "text": "Laboratory Report"
        },
        "section": [
          {
            "code": {
              "coding": [
                {
                  "code": "26436-6",
                  "system": "http://loinc.org",
                  "display": "Laboratory studies (set)"
                }
              ],
              "text": "Laboratory studies"
            },
            "section": [
              {
                "code": {
                  "coding": [
                    {
                      "code": "$18719-5",
                      "system": "http://loinc.org",
                      "display": "Chemistry studies (set)"
                    }
                  ],
                  "text": "Chemistry"
                },
                "entry": [
                  {
                    "reference": "urn:uuid:71cec8c4-0334-459b-ba8e-00b4e43ed065"
                  },
                  {
                    "reference": "urn:uuid:f7e96044-09e3-405f-accc-0e245b8bd9c9"
                  },
                  {
                    "reference": "urn:uuid:8d25109d-315f-4360-9128-3afa0738cec5"
                  },
                  {
                    "reference": "urn:uuid:cf77d76a-db54-41f7-9f53-e0c1679918d4"
                  },
                  {
                    "reference": "urn:uuid:799b37ea-a31e-4b3c-a8ed-417dbd64d3ab"
                  },
                  {
                    "reference": "urn:uuid:0201456c-6f37-45a9-acba-c37893a9ab4a"
                  },
                  {
                    "reference": "urn:uuid:03a122a4-9830-4986-9c91-7cb00be9977e"
                  },
                  {
                    "reference": "urn:uuid:2b40749b-c70d-4990-8967-b1929ca3bfa7"
                  },
                  {
                    "reference": "urn:uuid:2caa01d6-6c1d-4495-8871-40bbca37a6e1"
                  },
                  {
                    "reference": "urn:uuid:27d5ee93-b549-4251-b53f-3165d757c65e"
                  }
                ],
                "text": {
                  "status": "generated",
                  "div": "<div xmlns=\"http://www.w3.org/1999/xhtml\"><h3>Chemistry</h3><table class=\"hl7__eu__lab__report\"><thead><tr><th>Test</th><th>01-FEB-2017</th><th>Reference&#xA0;Range</th><th>Unit</th></tr></thead><tbody><tr><td>Glucose [Mass/volume] in Serum or Plasma</td><td>70.3</td><td>70 - 140</td><td>mg/dL</td></tr><tr><td>Urea nitrogen [Mass/volume] in Serum or Plasma</td><td>8.2</td><td>7 - 20</td><td>mg/dL</td></tr><tr><td>Creatinine [Mass/volume] in Serum or Plasma</td><td><strong>2.4 H</strong></td><td>0.6 - 1.3</td><td>mg/dL</td></tr><tr><td>Calcium [Mass/volume] in Serum or Plasma</td><td>9.0</td><td>8.6 - 10.4</td><td>mg/dL</td></tr><tr><td>Sodium [Moles/volume] in Serum or Plasma</td><td>139.1</td><td>135 - 145</td><td>mmol/L</td></tr><tr><td>Potassium [Moles/volume] in Serum or Plasma</td><td>4.7</td><td>3.5 - 5.1</td><td>mmol/L</td></tr><tr><td>Chloride [Moles/volume] in Serum or Plasma</td><td><strong>108.1 H</strong></td><td>98 - 108</td><td>mmol/L</td></tr><tr><td>Carbon dioxide, total [Moles/volume] in Serum or Plasma</td><td><strong>20.7 L</strong></td><td>22 - 32</td><td>mmol/L</td></tr><tr><td>Ketones [Presence] in Urine by Test strip</td><td>Urine ketone test = +++</td><td></td><td></td></tr><tr><td>Hemoglobin A1c/Hemoglobin.total in Blood</td><td><strong>3.4 L</strong></td><td>4.5 - 6.4</td><td>%</td></tr></tbody></table></div>"
                },
                "title": "Chemistry"
              },
              {
                "code": {
                  "coding": [
                    {
                      "code": "$18729-4",
                      "system": "http://loinc.org",
                      "display": "Urinalysis studies (set)"
                    }
                  ],
                  "text": "Urinalysis"
                },
                "entry": [
                  {
                    "reference": "urn:uuid:55240b94-8b5e-420d-abeb-399a18a825db"
                  },
                  {
                    "reference": "urn:uuid:f344a808-a39b-4a5f-8ada-82c2f65e833b"
                  },
                  {
                    "reference": "urn:uuid:52a5fec7-c598-454d-b312-5019a4f1a016"
                  },
                  {
                    "reference": "urn:uuid:6d8c8ecd-0bf1-4719-a18b-4a8dc5a69f80"
                  },
                  {
                    "reference": "urn:uuid:db01b786-8e13-4bfd-937b-3bfddae84644"
                  },
                  {
                    "reference": "urn:uuid:b2c72b2e-c91a-4aa5-bf2f-a58bd96ced13"
                  },
                  {
                    "reference": "urn:uuid:dbd05163-9d37-40ee-b8d2-bb4326f70413"
                  },
                  {
                    "reference": "urn:uuid:af0e3c1f-4bc7-4b9d-84d9-beb69140b896"
                  },
                  {
                    "reference": "urn:uuid:1601f57c-5cd8-4eb5-8f54-16ba52f5131d"
                  },
                  {
                    "reference": "urn:uuid:1e072ddb-3802-44ce-b195-252aa9ca94e8"
                  },
                  {
                    "reference": "urn:uuid:985b6a66-0f40-4347-ada4-22d9e5bc80b7"
                  },
                  {
                    "reference": "urn:uuid:1a0f38d7-14bd-4279-8b2c-8fcd79ada0f0"
                  }
                ],
                "text": {
                  "status": "generated",
                  "div": "<div xmlns=\"http://www.w3.org/1999/xhtml\"><h3>Urinalysis</h3><table class=\"hl7__eu__lab__report\"><thead><tr><th>Test</th><th>01-FEB-2017</th><th>Reference&#xA0;Range</th><th>Unit</th></tr></thead><tbody><tr><td>Glucose [Mass/volume] in Urine by Test strip</td><td><strong>1.8 H</strong></td><td>0.8 - 0</td><td>mg/dL</td></tr><tr><td>Glucose [Presence] in Urine by Test strip</td><td>++</td><td></td><td></td></tr><tr><td>Bilirubin.total [Mass/volume] in Urine by Test strip</td><td>1.1</td><td>0 - 1.5</td><td>mg/dL</td></tr><tr><td>Bilirubin.total [Presence] in Urine by Test strip</td><td>Finding of bilirubin in urine</td><td></td><td></td></tr><tr><td>Ketones [Mass/volume] in Urine by Test strip</td><td>6.1</td><td>0 - 8</td><td>mg/dL</td></tr><tr><td>Specific gravity of Urine by Test strip</td><td><strong>1.0 L</strong></td><td>1.01 - 1.03</td><td>{nominal}</td></tr><tr><td>pH of Urine by Test strip</td><td>5.4</td><td>4.6 - 7.5</td><td>pH</td></tr><tr><td>Protein [Mass/volume] in Urine by Test strip</td><td><strong>301.9 H</strong></td><td>0 - 14</td><td>mg/dL</td></tr><tr><td>Protein [Presence] in Urine by Test strip</td><td>Urine protein test = +++</td><td></td><td></td></tr><tr><td>Nitrite [Presence] in Urine by Test strip</td><td>Urine nitrite negative</td><td></td><td></td></tr><tr><td>Hemoglobin [Presence] in Urine by Test strip</td><td>Urine blood test = negative</td><td></td><td></td></tr><tr><td>Leukocyte esterase [Presence] in Urine by Test strip</td><td>Urine leukocyte test negative</td><td></td><td></td></tr></tbody></table></div>"
                },
                "title": "Urinalysis"
              },
              {
                "code": {
                  "coding": [
                    {
                      "code": "$LP7846-1",
                      "system": "http://loinc.org",
                      "display": "Specimen information"
                    }
                  ],
                  "text": "Specimen information"
                },
                "entry": [
                  {
                    "reference": "urn:uuid:8d0a5488-27d5-433f-8546-66ef68ee42a0"
                  },
                  {
                    "reference": "urn:uuid:9675227a-e2b7-4bf6-a97e-fdf508fb9d68"
                  },
                  {
                    "reference": "urn:uuid:f47e06b6-4294-4434-880e-0eb128b9d309"
                  },
                  {
                    "reference": "urn:uuid:649c233d-2c78-44cf-8b15-38510dde670e"
                  }
                ],
                "text": {
                  "status": "generated",
                  "div": "<div xmlns=\"http://www.w3.org/1999/xhtml\"><h3>Specimen information</h3><table class=\"hl7__eu__lab__report\"><thead><tr><th>Test</th><th>01-FEB-2017</th><th>Specimen</th><th></th></tr></thead><tbody><tr><td>Appearance of Urine</td><td>Cloudy urine</td><td>Urine</td><td></td></tr><tr><td>Odor of Urine</td><td>Urine smell ammoniacal</td><td>Urine</td><td></td></tr><tr><td>Clarity of Urine</td><td>Translucent</td><td>Urine</td><td></td></tr><tr><td>Color of Urine</td><td>Brown color</td><td>Urine</td><td></td></tr></tbody></table></div>"
                },
                "title": "Specimen information"
              }
            ],
            "title": "Laboratory Report"
          },
          {
            "text": {
              "status": "generated",
              "div": "<div xmlns=\"http://www.w3.org/1999/xhtml\"><h3>Annotation</h3><table class=\"hl7__eu__lab__report\"><tr><th>Conclusion and Recommendations based on this report and previous findings known to us</th></tr><tr><td>The patient shows elevated serum creatinine, low CO₂, and significant proteinuria, suggesting impaired renal function. Urine findings (cloudy, brown, low specific gravity, high protein, glucose, and ketones) further support possible nephropathy, with no evidence of infection. Low HbA1c and mild glucosuria may indicate recent hypoglycemia or altered glucose handling. Recommend nephrology evaluation and further assessment of renal and metabolic status.</td></tr></table></div>"
            },
            "code": {
              "coding": [
                {
                  "system": "http://loinc.org",
                  "code": "48767-8",
                  "display": "Annotation comment"
                }
              ]
            },
            "title": "Annotation comment"
          }
        ],
        "status": "final",
        "subject": {
          "reference": "urn:uuid:86b7e386-ad37-41b9-91d7-978c75ac32f0",
          "display": "Maria Nohlmans"
        },
        "date": "2017-02-01T12:02:39Z",
        "title": "Laboratory Report",
        "confidentiality": "N"
      }
    },
    {
      "fullUrl": "urn:uuid:1b828450-7476-4802-a60c-dfb9d919e3f0",
      "resource": {
        "resourceType": "DiagnosticReport",
        "id": "1b828450-7476-4802-a60c-dfb9d919e3f0",
        "meta": {
          "profile": [
            "http://hl7.eu/fhir/laboratory/StructureDefinition/DiagnosticReport-eu-lab"
          ]
        },
        "identifier": [
          {
            "assigner": {
              "display": "HL7 Europe"
            },
            "system": "urn:oid:2.16.840.1.113883.2.51.999",
            "value": "53d99150-211c-4dfd-ab16-7b04211917ca"
          }
        ],
        "extension": [
          {
            "url": "http://hl7.org/fhir/5.0/StructureDefinition/extension-DiagnosticReport.composition",
            "valueReference": {
              "reference": "urn:uuid:9c346c07-4354-4796-b94c-523d0c516485"
            }
          }
        ],
        "category": [
          {
            "coding": [
              {
                "code": "26436-6",
                "system": "http://loinc.org",
                "display": "Laboratory studies (set)"
              }
            ]
          }
        ],
        "specimen": [
          {
            "reference": "urn:uuid:255ee20b-9a44-43b5-a37c-2327f4290c70"
          },
          {
            "reference": "urn:uuid:39f68a78-105e-4382-94a4-2fc53cf4bd1f"
          },
          {
            "reference": "urn:uuid:f8b42a47-9cc6-4896-9b6d-f461f7302013"
          }
        ],
        "result": [
          {
            "reference": "urn:uuid:71cec8c4-0334-459b-ba8e-00b4e43ed065"
          },
          {
            "reference": "urn:uuid:f7e96044-09e3-405f-accc-0e245b8bd9c9"
          },
          {
            "reference": "urn:uuid:8d25109d-315f-4360-9128-3afa0738cec5"
          },
          {
            "reference": "urn:uuid:cf77d76a-db54-41f7-9f53-e0c1679918d4"
          },
          {
            "reference": "urn:uuid:799b37ea-a31e-4b3c-a8ed-417dbd64d3ab"
          },
          {
            "reference": "urn:uuid:0201456c-6f37-45a9-acba-c37893a9ab4a"
          },
          {
            "reference": "urn:uuid:03a122a4-9830-4986-9c91-7cb00be9977e"
          },
          {
            "reference": "urn:uuid:2b40749b-c70d-4990-8967-b1929ca3bfa7"
          },
          {
            "reference": "urn:uuid:8d0a5488-27d5-433f-8546-66ef68ee42a0"
          },
          {
            "reference": "urn:uuid:9675227a-e2b7-4bf6-a97e-fdf508fb9d68"
          },
          {
            "reference": "urn:uuid:f47e06b6-4294-4434-880e-0eb128b9d309"
          },
          {
            "reference": "urn:uuid:649c233d-2c78-44cf-8b15-38510dde670e"
          },
          {
            "reference": "urn:uuid:55240b94-8b5e-420d-abeb-399a18a825db"
          },
          {
            "reference": "urn:uuid:f344a808-a39b-4a5f-8ada-82c2f65e833b"
          },
          {
            "reference": "urn:uuid:52a5fec7-c598-454d-b312-5019a4f1a016"
          },
          {
            "reference": "urn:uuid:6d8c8ecd-0bf1-4719-a18b-4a8dc5a69f80"
          },
          {
            "reference": "urn:uuid:db01b786-8e13-4bfd-937b-3bfddae84644"
          },
          {
            "reference": "urn:uuid:2caa01d6-6c1d-4495-8871-40bbca37a6e1"
          },
          {
            "reference": "urn:uuid:b2c72b2e-c91a-4aa5-bf2f-a58bd96ced13"
          },
          {
            "reference": "urn:uuid:dbd05163-9d37-40ee-b8d2-bb4326f70413"
          },
          {
            "reference": "urn:uuid:af0e3c1f-4bc7-4b9d-84d9-beb69140b896"
          },
          {
            "reference": "urn:uuid:1601f57c-5cd8-4eb5-8f54-16ba52f5131d"
          },
          {
            "reference": "urn:uuid:1e072ddb-3802-44ce-b195-252aa9ca94e8"
          },
          {
            "reference": "urn:uuid:985b6a66-0f40-4347-ada4-22d9e5bc80b7"
          },
          {
            "reference": "urn:uuid:1a0f38d7-14bd-4279-8b2c-8fcd79ada0f0"
          },
          {
            "reference": "urn:uuid:27d5ee93-b549-4251-b53f-3165d757c65e"
          }
        ],
        "status": "registered",
        "code": {
          "coding": [
            {
              "code": "11502-2",
              "system": "http://loinc.org",
              "display": "Laboratory report"
            }
          ]
        },
        "subject": {
          "reference": "urn:uuid:86b7e386-ad37-41b9-91d7-978c75ac32f0",
          "display": "Maria Nohlmans"
        }
      }
    },
    {
      "fullUrl": "urn:uuid:86b7e386-ad37-41b9-91d7-978c75ac32f0",
      "resource": {
        "resourceType": "Patient",
        "id": "86b7e386-ad37-41b9-91d7-978c75ac32f0",
        "meta": {
          "security": [
            {
              "system": "http://terminology.hl7.org/CodeSystem/v3-ActReason",
              "code": "HTEST"
            },
            {
              "system": "http://terminology.hl7.org/CodeSystem/v3-ActReason",
              "code": "TRAIN"
            }
          ],
          "tag": [
            {
              "system": "https://synderai.net/fhir/CodeSystem/tags",
              "code": "synthetic",
              "display": "SYNDERAI Synthetic data"
            }
          ],
          "profile": [
            "http://hl7.eu/fhir/base/StructureDefinition/patient-eu-core"
          ]
        },
        "identifier": [
          {
            "type": {
              "coding": [
                {
                  "code": "PT",
                  "system": "http://terminology.hl7.org/CodeSystem/v2-0203"
                }
              ]
            },
            "system": "http://ec.europa.eu/identifier/eci",
            "value": "6886-506417-1"
          },
          {
            "type": {
              "coding": [
                {
                  "code": "MR",
                  "system": "http://terminology.hl7.org/CodeSystem/v2-0203"
                }
              ]
            },
            "system": "http://local.setting.eu/identifier",
            "value": "2cb21ed6-b617-b1f3-2290-589a710de5ee"
          }
        ],
        "name": [
          {
            "family": "Nohlmans"
          },
          {
            "given": [
              "Maria"
            ]
          },
          {
            "text": "Maria Nohlmans"
          }
        ],
        "address": [
          {
            "line": [
              "Alfons-Wulff-Weg 1"
            ],
            "use": "home",
            "type": "physical",
            "postalCode": "25813",
            "city": "Husum",
            "country": "Germany"
          }
        ],
        "telecom": [
          {
            "system": "phone",
            "value": "+49(0)1911 105501"
          }
        ],
        "extension": [
          {
            "url": "http://hl7.org/fhir/StructureDefinition/patient-nationality",
            "valueCodeableConcept": {
              "coding": [
                {
                  "code": "DE",
                  "system": "http://hl7.org/fhir/ValueSet/country"
                }
              ]
            }
          }
        ],
        "text": {
          "status": "generated",
          "div": "<div xmlns=\"http://www.w3.org/1999/xhtml\"><table class=\"hl7__ips\"><tr><td>Maria Nohlmans</td><td>female</td><td>11-Jun-1947</td></tr></table></div>"
        },
        "gender": "female",
        "birthDate": "1947-06-11"
      }
    },
    {
      "fullUrl": "urn:uuid:638b3fc6-c9b4-4e4f-b727-183401745081",
      "resource": {
        "resourceType": "ServiceRequest",
        "id": "638b3fc6-c9b4-4e4f-b727-183401745081",
        "meta": {
          "profile": [
            "http://hl7.eu/fhir/laboratory/StructureDefinition/ServiceRequest-eu-lab"
          ]
        },
        "identifier": [
          {
            "system": "http://example.org",
            "value": "d7d6b803-6ed7-4555-96b4-387add77327b"
          }
        ],
        "specimen": [
          {
            "reference": "urn:uuid:255ee20b-9a44-43b5-a37c-2327f4290c70"
          },
          {
            "reference": "urn:uuid:39f68a78-105e-4382-94a4-2fc53cf4bd1f"
          },
          {
            "reference": "urn:uuid:f8b42a47-9cc6-4896-9b6d-f461f7302013"
          }
        ],
        "reasonCode": [
          {
            "coding": [
              {
                "code": "401314000",
                "system": "http://snomed.info/sct",
                "display": "Acute non-ST segment elevation myocardial infarction"
              }
            ]
          },
          {
            "coding": [
              {
                "code": "157141000119108",
                "system": "http://snomed.info/sct",
                "display": "Proteinuria due to type 2 diabetes mellitus"
              }
            ]
          },
          {
            "coding": [
              {
                "code": "237602007",
                "system": "http://snomed.info/sct",
                "display": "Metabolic syndrome X"
              }
            ]
          },
          {
            "coding": [
              {
                "code": "90781000119102",
                "system": "http://snomed.info/sct",
                "display": "Microalbuminuria due to type 2 diabetes mellitus"
              }
            ]
          },
          {
            "coding": [
              {
                "code": "127013003",
                "system": "http://snomed.info/sct",
                "display": "Disorder of kidney due to diabetes mellitus"
              }
            ]
          },
          {
            "coding": [
              {
                "code": "59621000",
                "system": "http://snomed.info/sct",
                "display": "Essential hypertension"
              }
            ]
          },
          {
            "coding": [
              {
                "code": "271737000",
                "system": "http://snomed.info/sct",
                "display": "Anemia"
              }
            ]
          },
          {
            "coding": [
              {
                "code": "15777000",
                "system": "http://snomed.info/sct",
                "display": "Prediabetes"
              }
            ]
          }
        ],
        "status": "active",
        "intent": "order",
        "code": {
          "coding": [
            {
              "code": "108252007",
              "system": "http://snomed.info/sct",
              "display": "Laboratory procedure"
            }
          ]
        },
        "subject": {
          "reference": "urn:uuid:86b7e386-ad37-41b9-91d7-978c75ac32f0",
          "display": "Maria Nohlmans"
        },
        "requester": {
          "reference": "urn:uuid:3b550456-b302-4738-92bf-e7ffd84f67f7"
        }
      }
    },
    {
      "fullUrl": "urn:uuid:3b550456-b302-4738-92bf-e7ffd84f67f7",
      "resource": {
        "resourceType": "PractitionerRole",
        "id": "3b550456-b302-4738-92bf-e7ffd84f67f7",
        "meta": {
          "profile": [
            "http://hl7.eu/fhir/base/StructureDefinition/practitionerRole-eu"
          ]
        },
        "text": {
          "status": "generated",
          "div": "<div xmlns=\"http://www.w3.org/1999/xhtml\">Provider Role Id: 3b550456-b302-4738-92bf-e7ffd84f67f7</div>"
        },
        "organization": {
          "reference": "urn:uuid:842a8637-eaec-444c-931c-5e16b61e7aad"
        }
      }
    },
    {
      "fullUrl": "urn:uuid:842a8637-eaec-444c-931c-5e16b61e7aad",
      "resource": {
        "resourceType": "Organization",
        "id": "842a8637-eaec-444c-931c-5e16b61e7aad",
        "meta": {
          "profile": [
            "http://hl7.eu/fhir/base/StructureDefinition/organization-eu"
          ]
        },
        "identifier": [
          {
            "assigner": {
              "display": "HL7 Europe"
            },
            "system": "urn:oid:2.16.840.1.113883.2.51.999",
            "value": "93bd1447-4b23-4a1a-8855-8d591fb82180"
          }
        ],
        "address": [
          {
            "line": [
              "Brinckmannstraße 35"
            ],
            "city": "Husum",
            "postalCode": "25813",
            "country": "Germany"
          }
        ],
        "text": {
          "status": "generated",
          "div": "<div xmlns=\"http://www.w3.org/1999/xhtml\">Provider Organization: Dr. Wolfram Hussels Kieferorthopäde</div>"
        },
        "name": "Dr. Wolfram Hussels Kieferorthopäde"
      }
    },
    {
      "fullUrl": "urn:uuid:255ee20b-9a44-43b5-a37c-2327f4290c70",
      "resource": {
        "resourceType": "Specimen",
        "id": "255ee20b-9a44-43b5-a37c-2327f4290c70",
        "meta": {
          "profile": [
            "http://hl7.eu/fhir/laboratory/StructureDefinition/Specimen-eu-lab"
          ]
        },
        "collection": {
          "collectedDateTime": "2017-02-01"
        },
        "text": {
          "status": "generated",
          "div": "<div xmlns=\"http://www.w3.org/1999/xhtml\"><table class=\"hl7__eu__lab__report\"><tr><th>Specimen</th><th>Collection Date</th></tr><tr><td>Acellular blood (serum or plasma) specimen</td><td><span class=\"nb\">01-Feb-2017</span></td></tr></table></div>"
        },
        "type": {
          "coding": [
            {
              "code": "122592007",
              "system": "http://snomed.info/sct",
              "display": "Acellular blood (serum or plasma) specimen"
            }
          ]
        }
      }
    },
    {
      "fullUrl": "urn:uuid:39f68a78-105e-4382-94a4-2fc53cf4bd1f",
      "resource": {
        "resourceType": "Specimen",
        "id": "39f68a78-105e-4382-94a4-2fc53cf4bd1f",
        "meta": {
          "profile": [
            "http://hl7.eu/fhir/laboratory/StructureDefinition/Specimen-eu-lab"
          ]
        },
        "collection": {
          "collectedDateTime": "2017-02-01"
        },
        "text": {
          "status": "generated",
          "div": "<div xmlns=\"http://www.w3.org/1999/xhtml\"><table class=\"hl7__eu__lab__report\"><tr><th>Specimen</th><th>Collection Date</th></tr><tr><td>Urine specimen</td><td><span class=\"nb\">01-Feb-2017</span></td></tr></table></div>"
        },
        "type": {
          "coding": [
            {
              "code": "122575003",
              "system": "http://snomed.info/sct",
              "display": "Urine specimen"
            }
          ]
        }
      }
    },
    {
      "fullUrl": "urn:uuid:f8b42a47-9cc6-4896-9b6d-f461f7302013",
      "resource": {
        "resourceType": "Specimen",
        "id": "f8b42a47-9cc6-4896-9b6d-f461f7302013",
        "meta": {
          "profile": [
            "http://hl7.eu/fhir/laboratory/StructureDefinition/Specimen-eu-lab"
          ]
        },
        "collection": {
          "collectedDateTime": "2017-02-01"
        },
        "text": {
          "status": "generated",
          "div": "<div xmlns=\"http://www.w3.org/1999/xhtml\"><table class=\"hl7__eu__lab__report\"><tr><th>Specimen</th><th>Collection Date</th></tr><tr><td>Whole blood specimen (specimen)</td><td><span class=\"nb\">01-Feb-2017</span></td></tr></table></div>"
        },
        "type": {
          "coding": [
            {
              "code": "258580003",
              "system": "http://snomed.info/sct",
              "display": "Whole blood specimen (specimen)"
            }
          ]
        }
      }
    },
    {
      "fullUrl": "urn:uuid:71cec8c4-0334-459b-ba8e-00b4e43ed065",
      "resource": {
        "resourceType": "Observation",
        "id": "71cec8c4-0334-459b-ba8e-00b4e43ed065",
        "meta": {
          "profile": [
            "http://hl7.eu/fhir/laboratory/StructureDefinition/Observation-resultslab-eu-lab"
          ]
        },
        "performer": [
          {
            "display": "The Central European Lab"
          }
        ],
        "category": [
          {
            "coding": [
              {
                "system": "http://terminology.hl7.org/CodeSystem/observation-category",
                "code": "laboratory"
              }
            ]
          }
        ],
        "code": {
          "coding": [
            {
              "code": "2345-7",
              "system": "http://loinc.org",
              "display": "Glucose [Mass/volume] in Serum or Plasma"
            }
          ],
          "text": "Glucose [Mass/volume] in Serum or Plasma"
        },
        "valueQuantity": {
          "system": "http://unitsofmeasure.org",
          "value": 70.3,
          "unit": "mg/dL",
          "code": "mg/dL"
        },
        "referenceRange": [
          {
            "low": {
              "value": 70,
              "code": "mg/dL",
              "system": "http://unitsofmeasure.org"
            }
          },
          {
            "high": {
              "value": 140,
              "code": "mg/dL",
              "system": "http://unitsofmeasure.org"
            }
          }
        ],
        "text": {
          "status": "generated",
          "div": "<div xmlns=\"http://www.w3.org/1999/xhtml\"><table class=\"hl7__eu__lab__report\"><tr><th>Test</th><th>01-Feb-2017</th><th>Reference&#xA0;Range</th><th>Unit</th></tr><tr><td>Glucose [Mass/volume] in Serum or Plasma</td><td>70.3</td><td>70 - 140</td><td></td><td>mg/dL</td></tr></table></div>"
        },
        "status": "final",
        "subject": {
          "reference": "urn:uuid:86b7e386-ad37-41b9-91d7-978c75ac32f0",
          "display": "Maria Nohlmans"
        },
        "effectiveDateTime": "2017-02-01T11:02:39Z",
        "specimen": {
          "reference": "urn:uuid:255ee20b-9a44-43b5-a37c-2327f4290c70"
        }
      }
    },
    {
      "fullUrl": "urn:uuid:f7e96044-09e3-405f-accc-0e245b8bd9c9",
      "resource": {
        "resourceType": "Observation",
        "id": "f7e96044-09e3-405f-accc-0e245b8bd9c9",
        "meta": {
          "profile": [
            "http://hl7.eu/fhir/laboratory/StructureDefinition/Observation-resultslab-eu-lab"
          ]
        },
        "performer": [
          {
            "display": "The Central European Lab"
          }
        ],
        "category": [
          {
            "coding": [
              {
                "system": "http://terminology.hl7.org/CodeSystem/observation-category",
                "code": "laboratory"
              }
            ]
          }
        ],
        "code": {
          "coding": [
            {
              "code": "3094-0",
              "system": "http://loinc.org",
              "display": "Urea nitrogen [Mass/volume] in Serum or Plasma"
            }
          ],
          "text": "Urea nitrogen [Mass/volume] in Serum or Plasma"
        },
        "valueQuantity": {
          "system": "http://unitsofmeasure.org",
          "value": 8.2,
          "unit": "mg/dL",
          "code": "mg/dL"
        },
        "referenceRange": [
          {
            "low": {
              "value": 7,
              "code": "mg/dL",
              "system": "http://unitsofmeasure.org"
            }
          },
          {
            "high": {
              "value": 20,
              "code": "mg/dL",
              "system": "http://unitsofmeasure.org"
            }
          }
        ],
        "text": {
          "status": "generated",
          "div": "<div xmlns=\"http://www.w3.org/1999/xhtml\"><table class=\"hl7__eu__lab__report\"><tr><th>Test</th><th>01-Feb-2017</th><th>Reference&#xA0;Range</th><th>Unit</th></tr><tr><td>Urea nitrogen [Mass/volume] in Serum or Plasma</td><td>8.2</td><td>7 - 20</td><td></td><td>mg/dL</td></tr></table></div>"
        },
        "status": "final",
        "subject": {
          "reference": "urn:uuid:86b7e386-ad37-41b9-91d7-978c75ac32f0",
          "display": "Maria Nohlmans"
        },
        "effectiveDateTime": "2017-02-01T11:02:39Z",
        "specimen": {
          "reference": "urn:uuid:255ee20b-9a44-43b5-a37c-2327f4290c70"
        }
      }
    },
    {
      "fullUrl": "urn:uuid:8d25109d-315f-4360-9128-3afa0738cec5",
      "resource": {
        "resourceType": "Observation",
        "id": "8d25109d-315f-4360-9128-3afa0738cec5",
        "meta": {
          "profile": [
            "http://hl7.eu/fhir/laboratory/StructureDefinition/Observation-resultslab-eu-lab"
          ]
        },
        "performer": [
          {
            "display": "The Central European Lab"
          }
        ],
        "category": [
          {
            "coding": [
              {
                "system": "http://terminology.hl7.org/CodeSystem/observation-category",
                "code": "laboratory"
              }
            ]
          }
        ],
        "code": {
          "coding": [
            {
              "code": "2160-0",
              "system": "http://loinc.org",
              "display": "Creatinine [Mass/volume] in Serum or Plasma"
            }
          ],
          "text": "Creatinine [Mass/volume] in Serum or Plasma"
        },
        "valueQuantity": {
          "system": "http://unitsofmeasure.org",
          "value": 2.4,
          "unit": "mg/dL",
          "code": "mg/dL"
        },
        "referenceRange": [
          {
            "low": {
              "value": 0.6,
              "code": "mg/dL",
              "system": "http://unitsofmeasure.org"
            }
          },
          {
            "high": {
              "value": 1.3,
              "code": "mg/dL",
              "system": "http://unitsofmeasure.org"
            }
          }
        ],
        "interpretation": [
          {
            "coding": [
              {
                "code": "H",
                "system": "http://terminology.hl7.org/CodeSystem/v3-ObservationInterpretation",
                "display": "High"
              }
            ]
          }
        ],
        "text": {
          "status": "generated",
          "div": "<div xmlns=\"http://www.w3.org/1999/xhtml\"><table class=\"hl7__eu__lab__report\"><tr><th>Test</th><th>01-Feb-2017</th><th>Reference&#xA0;Range</th><th>Unit</th></tr><tr><td>Creatinine [Mass/volume] in Serum or Plasma</td><td>2.4</td><td>0.6 - 1.3</td><td>H</td><td>mg/dL</td></tr></table></div>"
        },
        "status": "final",
        "subject": {
          "reference": "urn:uuid:86b7e386-ad37-41b9-91d7-978c75ac32f0",
          "display": "Maria Nohlmans"
        },
        "effectiveDateTime": "2017-02-01T11:02:39Z",
        "specimen": {
          "reference": "urn:uuid:255ee20b-9a44-43b5-a37c-2327f4290c70"
        }
      }
    },
    {
      "fullUrl": "urn:uuid:cf77d76a-db54-41f7-9f53-e0c1679918d4",
      "resource": {
        "resourceType": "Observation",
        "id": "cf77d76a-db54-41f7-9f53-e0c1679918d4",
        "meta": {
          "profile": [
            "http://hl7.eu/fhir/laboratory/StructureDefinition/Observation-resultslab-eu-lab"
          ]
        },
        "performer": [
          {
            "display": "The Central European Lab"
          }
        ],
        "category": [
          {
            "coding": [
              {
                "system": "http://terminology.hl7.org/CodeSystem/observation-category",
                "code": "laboratory"
              }
            ]
          }
        ],
        "code": {
          "coding": [
            {
              "code": "17861-6",
              "system": "http://loinc.org",
              "display": "Calcium [Mass/volume] in Serum or Plasma"
            }
          ],
          "text": "Calcium [Mass/volume] in Serum or Plasma"
        },
        "valueQuantity": {
          "system": "http://unitsofmeasure.org",
          "value": 9,
          "unit": "mg/dL",
          "code": "mg/dL"
        },
        "referenceRange": [
          {
            "low": {
              "value": 8.6,
              "code": "mg/dL",
              "system": "http://unitsofmeasure.org"
            }
          },
          {
            "high": {
              "value": 10.4,
              "code": "mg/dL",
              "system": "http://unitsofmeasure.org"
            }
          }
        ],
        "text": {
          "status": "generated",
          "div": "<div xmlns=\"http://www.w3.org/1999/xhtml\"><table class=\"hl7__eu__lab__report\"><tr><th>Test</th><th>01-Feb-2017</th><th>Reference&#xA0;Range</th><th>Unit</th></tr><tr><td>Calcium [Mass/volume] in Serum or Plasma</td><td>9.0</td><td>8.6 - 10.4</td><td></td><td>mg/dL</td></tr></table></div>"
        },
        "status": "final",
        "subject": {
          "reference": "urn:uuid:86b7e386-ad37-41b9-91d7-978c75ac32f0",
          "display": "Maria Nohlmans"
        },
        "effectiveDateTime": "2017-02-01T11:02:39Z",
        "specimen": {
          "reference": "urn:uuid:255ee20b-9a44-43b5-a37c-2327f4290c70"
        }
      }
    },
    {
      "fullUrl": "urn:uuid:799b37ea-a31e-4b3c-a8ed-417dbd64d3ab",
      "resource": {
        "resourceType": "Observation",
        "id": "799b37ea-a31e-4b3c-a8ed-417dbd64d3ab",
        "meta": {
          "profile": [
            "http://hl7.eu/fhir/laboratory/StructureDefinition/Observation-resultslab-eu-lab"
          ]
        },
        "performer": [
          {
            "display": "The Central European Lab"
          }
        ],
        "category": [
          {
            "coding": [
              {
                "system": "http://terminology.hl7.org/CodeSystem/observation-category",
                "code": "laboratory"
              }
            ]
          }
        ],
        "code": {
          "coding": [
            {
              "code": "2951-2",
              "system": "http://loinc.org",
              "display": "Sodium [Moles/volume] in Serum or Plasma"
            }
          ],
          "text": "Sodium [Moles/volume] in Serum or Plasma"
        },
        "valueQuantity": {
          "system": "http://unitsofmeasure.org",
          "value": 139.1,
          "unit": "mmol/L",
          "code": "mmol/L"
        },
        "referenceRange": [
          {
            "low": {
              "value": 135,
              "code": "mmol/L",
              "system": "http://unitsofmeasure.org"
            }
          },
          {
            "high": {
              "value": 145,
              "code": "mmol/L",
              "system": "http://unitsofmeasure.org"
            }
          }
        ],
        "text": {
          "status": "generated",
          "div": "<div xmlns=\"http://www.w3.org/1999/xhtml\"><table class=\"hl7__eu__lab__report\"><tr><th>Test</th><th>01-Feb-2017</th><th>Reference&#xA0;Range</th><th>Unit</th></tr><tr><td>Sodium [Moles/volume] in Serum or Plasma</td><td>139.1</td><td>135 - 145</td><td></td><td>mmol/L</td></tr></table></div>"
        },
        "status": "final",
        "subject": {
          "reference": "urn:uuid:86b7e386-ad37-41b9-91d7-978c75ac32f0",
          "display": "Maria Nohlmans"
        },
        "effectiveDateTime": "2017-02-01T11:02:39Z",
        "specimen": {
          "reference": "urn:uuid:255ee20b-9a44-43b5-a37c-2327f4290c70"
        }
      }
    },
    {
      "fullUrl": "urn:uuid:0201456c-6f37-45a9-acba-c37893a9ab4a",
      "resource": {
        "resourceType": "Observation",
        "id": "0201456c-6f37-45a9-acba-c37893a9ab4a",
        "meta": {
          "profile": [
            "http://hl7.eu/fhir/laboratory/StructureDefinition/Observation-resultslab-eu-lab"
          ]
        },
        "performer": [
          {
            "display": "The Central European Lab"
          }
        ],
        "category": [
          {
            "coding": [
              {
                "system": "http://terminology.hl7.org/CodeSystem/observation-category",
                "code": "laboratory"
              }
            ]
          }
        ],
        "code": {
          "coding": [
            {
              "code": "2823-3",
              "system": "http://loinc.org",
              "display": "Potassium [Moles/volume] in Serum or Plasma"
            }
          ],
          "text": "Potassium [Moles/volume] in Serum or Plasma"
        },
        "valueQuantity": {
          "system": "http://unitsofmeasure.org",
          "value": 4.7,
          "unit": "mmol/L",
          "code": "mmol/L"
        },
        "referenceRange": [
          {
            "low": {
              "value": 3.5,
              "code": "mmol/L",
              "system": "http://unitsofmeasure.org"
            }
          },
          {
            "high": {
              "value": 5.1,
              "code": "mmol/L",
              "system": "http://unitsofmeasure.org"
            }
          }
        ],
        "text": {
          "status": "generated",
          "div": "<div xmlns=\"http://www.w3.org/1999/xhtml\"><table class=\"hl7__eu__lab__report\"><tr><th>Test</th><th>01-Feb-2017</th><th>Reference&#xA0;Range</th><th>Unit</th></tr><tr><td>Potassium [Moles/volume] in Serum or Plasma</td><td>4.7</td><td>3.5 - 5.1</td><td></td><td>mmol/L</td></tr></table></div>"
        },
        "status": "final",
        "subject": {
          "reference": "urn:uuid:86b7e386-ad37-41b9-91d7-978c75ac32f0",
          "display": "Maria Nohlmans"
        },
        "effectiveDateTime": "2017-02-01T11:02:39Z",
        "specimen": {
          "reference": "urn:uuid:255ee20b-9a44-43b5-a37c-2327f4290c70"
        }
      }
    },
    {
      "fullUrl": "urn:uuid:03a122a4-9830-4986-9c91-7cb00be9977e",
      "resource": {
        "resourceType": "Observation",
        "id": "03a122a4-9830-4986-9c91-7cb00be9977e",
        "meta": {
          "profile": [
            "http://hl7.eu/fhir/laboratory/StructureDefinition/Observation-resultslab-eu-lab"
          ]
        },
        "performer": [
          {
            "display": "The Central European Lab"
          }
        ],
        "category": [
          {
            "coding": [
              {
                "system": "http://terminology.hl7.org/CodeSystem/observation-category",
                "code": "laboratory"
              }
            ]
          }
        ],
        "code": {
          "coding": [
            {
              "code": "2075-0",
              "system": "http://loinc.org",
              "display": "Chloride [Moles/volume] in Serum or Plasma"
            }
          ],
          "text": "Chloride [Moles/volume] in Serum or Plasma"
        },
        "valueQuantity": {
          "system": "http://unitsofmeasure.org",
          "value": 108.1,
          "unit": "mmol/L",
          "code": "mmol/L"
        },
        "referenceRange": [
          {
            "low": {
              "value": 98,
              "code": "mmol/L",
              "system": "http://unitsofmeasure.org"
            }
          },
          {
            "high": {
              "value": 108,
              "code": "mmol/L",
              "system": "http://unitsofmeasure.org"
            }
          }
        ],
        "interpretation": [
          {
            "coding": [
              {
                "code": "H",
                "system": "http://terminology.hl7.org/CodeSystem/v3-ObservationInterpretation",
                "display": "High"
              }
            ]
          }
        ],
        "text": {
          "status": "generated",
          "div": "<div xmlns=\"http://www.w3.org/1999/xhtml\"><table class=\"hl7__eu__lab__report\"><tr><th>Test</th><th>01-Feb-2017</th><th>Reference&#xA0;Range</th><th>Unit</th></tr><tr><td>Chloride [Moles/volume] in Serum or Plasma</td><td>108.1</td><td>98 - 108</td><td>H</td><td>mmol/L</td></tr></table></div>"
        },
        "status": "final",
        "subject": {
          "reference": "urn:uuid:86b7e386-ad37-41b9-91d7-978c75ac32f0",
          "display": "Maria Nohlmans"
        },
        "effectiveDateTime": "2017-02-01T11:02:39Z",
        "specimen": {
          "reference": "urn:uuid:255ee20b-9a44-43b5-a37c-2327f4290c70"
        }
      }
    },
    {
      "fullUrl": "urn:uuid:2b40749b-c70d-4990-8967-b1929ca3bfa7",
      "resource": {
        "resourceType": "Observation",
        "id": "2b40749b-c70d-4990-8967-b1929ca3bfa7",
        "meta": {
          "profile": [
            "http://hl7.eu/fhir/laboratory/StructureDefinition/Observation-resultslab-eu-lab"
          ]
        },
        "performer": [
          {
            "display": "The Central European Lab"
          }
        ],
        "category": [
          {
            "coding": [
              {
                "system": "http://terminology.hl7.org/CodeSystem/observation-category",
                "code": "laboratory"
              }
            ]
          }
        ],
        "code": {
          "coding": [
            {
              "code": "2028-9",
              "system": "http://loinc.org",
              "display": "Carbon dioxide, total [Moles/volume] in Serum or Plasma"
            }
          ],
          "text": "Carbon dioxide, total [Moles/volume] in Serum or Plasma"
        },
        "valueQuantity": {
          "system": "http://unitsofmeasure.org",
          "value": 20.7,
          "unit": "mmol/L",
          "code": "mmol/L"
        },
        "referenceRange": [
          {
            "low": {
              "value": 22,
              "code": "mmol/L",
              "system": "http://unitsofmeasure.org"
            }
          },
          {
            "high": {
              "value": 32,
              "code": "mmol/L",
              "system": "http://unitsofmeasure.org"
            }
          }
        ],
        "interpretation": [
          {
            "coding": [
              {
                "code": "L",
                "system": "http://terminology.hl7.org/CodeSystem/v3-ObservationInterpretation",
                "display": "Low"
              }
            ]
          }
        ],
        "text": {
          "status": "generated",
          "div": "<div xmlns=\"http://www.w3.org/1999/xhtml\"><table class=\"hl7__eu__lab__report\"><tr><th>Test</th><th>01-Feb-2017</th><th>Reference&#xA0;Range</th><th>Unit</th></tr><tr><td>Carbon dioxide, total [Moles/volume] in Serum or Plasma</td><td>20.7</td><td>22 - 32</td><td>L</td><td>mmol/L</td></tr></table></div>"
        },
        "status": "final",
        "subject": {
          "reference": "urn:uuid:86b7e386-ad37-41b9-91d7-978c75ac32f0",
          "display": "Maria Nohlmans"
        },
        "effectiveDateTime": "2017-02-01T11:02:39Z",
        "specimen": {
          "reference": "urn:uuid:255ee20b-9a44-43b5-a37c-2327f4290c70"
        }
      }
    },
    {
      "fullUrl": "urn:uuid:8d0a5488-27d5-433f-8546-66ef68ee42a0",
      "resource": {
        "resourceType": "Observation",
        "id": "8d0a5488-27d5-433f-8546-66ef68ee42a0",
        "meta": {
          "profile": [
            "http://hl7.eu/fhir/laboratory/StructureDefinition/Observation-resultslab-eu-lab"
          ]
        },
        "performer": [
          {
            "display": "The Central European Lab"
          }
        ],
        "category": [
          {
            "coding": [
              {
                "system": "http://terminology.hl7.org/CodeSystem/observation-category",
                "code": "laboratory"
              }
            ]
          }
        ],
        "code": {
          "coding": [
            {
              "code": "5767-9",
              "system": "http://loinc.org",
              "display": "Appearance of Urine"
            }
          ],
          "text": "Appearance of Urine"
        },
        "text": {
          "status": "generated",
          "div": "<div xmlns=\"http://www.w3.org/1999/xhtml\"><table class=\"hl7__eu__lab__report\"><tr><th>Test</th><th>01-Feb-2017</th><th>Reference&#xA0;Range</th><th>Unit</th></tr><tr><td>Appearance of Urine</td></tr></table></div>"
        },
        "status": "final",
        "subject": {
          "reference": "urn:uuid:86b7e386-ad37-41b9-91d7-978c75ac32f0",
          "display": "Maria Nohlmans"
        },
        "effectiveDateTime": "2017-02-01T11:02:39Z",
        "specimen": {
          "reference": "urn:uuid:39f68a78-105e-4382-94a4-2fc53cf4bd1f"
        }
      }
    },
    {
      "fullUrl": "urn:uuid:9675227a-e2b7-4bf6-a97e-fdf508fb9d68",
      "resource": {
        "resourceType": "Observation",
        "id": "9675227a-e2b7-4bf6-a97e-fdf508fb9d68",
        "meta": {
          "profile": [
            "http://hl7.eu/fhir/laboratory/StructureDefinition/Observation-resultslab-eu-lab"
          ]
        },
        "performer": [
          {
            "display": "The Central European Lab"
          }
        ],
        "category": [
          {
            "coding": [
              {
                "system": "http://terminology.hl7.org/CodeSystem/observation-category",
                "code": "laboratory"
              }
            ]
          }
        ],
        "code": {
          "coding": [
            {
              "code": "34533-0",
              "system": "http://loinc.org",
              "display": "Odor of Urine"
            }
          ],
          "text": "Odor of Urine"
        },
        "text": {
          "status": "generated",
          "div": "<div xmlns=\"http://www.w3.org/1999/xhtml\"><table class=\"hl7__eu__lab__report\"><tr><th>Test</th><th>01-Feb-2017</th><th>Reference&#xA0;Range</th><th>Unit</th></tr><tr><td>Odor of Urine</td></tr></table></div>"
        },
        "status": "final",
        "subject": {
          "reference": "urn:uuid:86b7e386-ad37-41b9-91d7-978c75ac32f0",
          "display": "Maria Nohlmans"
        },
        "effectiveDateTime": "2017-02-01T11:02:39Z",
        "specimen": {
          "reference": "urn:uuid:39f68a78-105e-4382-94a4-2fc53cf4bd1f"
        }
      }
    },
    {
      "fullUrl": "urn:uuid:f47e06b6-4294-4434-880e-0eb128b9d309",
      "resource": {
        "resourceType": "Observation",
        "id": "f47e06b6-4294-4434-880e-0eb128b9d309",
        "meta": {
          "profile": [
            "http://hl7.eu/fhir/laboratory/StructureDefinition/Observation-resultslab-eu-lab"
          ]
        },
        "performer": [
          {
            "display": "The Central European Lab"
          }
        ],
        "category": [
          {
            "coding": [
              {
                "system": "http://terminology.hl7.org/CodeSystem/observation-category",
                "code": "laboratory"
              }
            ]
          }
        ],
        "code": {
          "coding": [
            {
              "code": "32167-9",
              "system": "http://loinc.org",
              "display": "Clarity of Urine"
            }
          ],
          "text": "Clarity of Urine"
        },
        "text": {
          "status": "generated",
          "div": "<div xmlns=\"http://www.w3.org/1999/xhtml\"><table class=\"hl7__eu__lab__report\"><tr><th>Test</th><th>01-Feb-2017</th><th>Reference&#xA0;Range</th><th>Unit</th></tr><tr><td>Clarity of Urine</td></tr></table></div>"
        },
        "status": "final",
        "subject": {
          "reference": "urn:uuid:86b7e386-ad37-41b9-91d7-978c75ac32f0",
          "display": "Maria Nohlmans"
        },
        "effectiveDateTime": "2017-02-01T11:02:39Z",
        "specimen": {
          "reference": "urn:uuid:39f68a78-105e-4382-94a4-2fc53cf4bd1f"
        }
      }
    },
    {
      "fullUrl": "urn:uuid:649c233d-2c78-44cf-8b15-38510dde670e",
      "resource": {
        "resourceType": "Observation",
        "id": "649c233d-2c78-44cf-8b15-38510dde670e",
        "meta": {
          "profile": [
            "http://hl7.eu/fhir/laboratory/StructureDefinition/Observation-resultslab-eu-lab"
          ]
        },
        "performer": [
          {
            "display": "The Central European Lab"
          }
        ],
        "category": [
          {
            "coding": [
              {
                "system": "http://terminology.hl7.org/CodeSystem/observation-category",
                "code": "laboratory"
              }
            ]
          }
        ],
        "code": {
          "coding": [
            {
              "code": "5778-6",
              "system": "http://loinc.org",
              "display": "Color of Urine"
            }
          ],
          "text": "Color of Urine"
        },
        "text": {
          "status": "generated",
          "div": "<div xmlns=\"http://www.w3.org/1999/xhtml\"><table class=\"hl7__eu__lab__report\"><tr><th>Test</th><th>01-Feb-2017</th><th>Reference&#xA0;Range</th><th>Unit</th></tr><tr><td>Color of Urine</td></tr></table></div>"
        },
        "status": "final",
        "subject": {
          "reference": "urn:uuid:86b7e386-ad37-41b9-91d7-978c75ac32f0",
          "display": "Maria Nohlmans"
        },
        "effectiveDateTime": "2017-02-01T11:02:39Z",
        "specimen": {
          "reference": "urn:uuid:39f68a78-105e-4382-94a4-2fc53cf4bd1f"
        }
      }
    },
    {
      "fullUrl": "urn:uuid:55240b94-8b5e-420d-abeb-399a18a825db",
      "resource": {
        "resourceType": "Observation",
        "id": "55240b94-8b5e-420d-abeb-399a18a825db",
        "meta": {
          "profile": [
            "http://hl7.eu/fhir/laboratory/StructureDefinition/Observation-resultslab-eu-lab"
          ]
        },
        "performer": [
          {
            "display": "The Central European Lab"
          }
        ],
        "category": [
          {
            "coding": [
              {
                "system": "http://terminology.hl7.org/CodeSystem/observation-category",
                "code": "laboratory"
              }
            ]
          }
        ],
        "code": {
          "coding": [
            {
              "code": "5792-7",
              "system": "http://loinc.org",
              "display": "Glucose [Mass/volume] in Urine by Test strip"
            }
          ],
          "text": "Glucose [Mass/volume] in Urine by Test strip"
        },
        "valueQuantity": {
          "system": "http://unitsofmeasure.org",
          "value": 1.8,
          "unit": "mg/dL",
          "code": "mg/dL"
        },
        "referenceRange": [
          {
            "low": {
              "value": 0.8,
              "code": "mg/dL",
              "system": "http://unitsofmeasure.org"
            }
          },
          {
            "high": {
              "value": 0,
              "code": "mg/dL",
              "system": "http://unitsofmeasure.org"
            }
          }
        ],
        "interpretation": [
          {
            "coding": [
              {
                "code": "H",
                "system": "http://terminology.hl7.org/CodeSystem/v3-ObservationInterpretation",
                "display": "High"
              }
            ]
          }
        ],
        "text": {
          "status": "generated",
          "div": "<div xmlns=\"http://www.w3.org/1999/xhtml\"><table class=\"hl7__eu__lab__report\"><tr><th>Test</th><th>01-Feb-2017</th><th>Reference&#xA0;Range</th><th>Unit</th></tr><tr><td>Glucose [Mass/volume] in Urine by Test strip</td><td>1.8</td><td>0.8 - 0</td><td>H</td><td>mg/dL</td></tr></table></div>"
        },
        "status": "final",
        "subject": {
          "reference": "urn:uuid:86b7e386-ad37-41b9-91d7-978c75ac32f0",
          "display": "Maria Nohlmans"
        },
        "effectiveDateTime": "2017-02-01T11:02:39Z",
        "specimen": {
          "reference": "urn:uuid:39f68a78-105e-4382-94a4-2fc53cf4bd1f"
        }
      }
    },
    {
      "fullUrl": "urn:uuid:f344a808-a39b-4a5f-8ada-82c2f65e833b",
      "resource": {
        "resourceType": "Observation",
        "id": "f344a808-a39b-4a5f-8ada-82c2f65e833b",
        "meta": {
          "profile": [
            "http://hl7.eu/fhir/laboratory/StructureDefinition/Observation-resultslab-eu-lab"
          ]
        },
        "performer": [
          {
            "display": "The Central European Lab"
          }
        ],
        "category": [
          {
            "coding": [
              {
                "system": "http://terminology.hl7.org/CodeSystem/observation-category",
                "code": "laboratory"
              }
            ]
          }
        ],
        "code": {
          "coding": [
            {
              "code": "25428-4",
              "system": "http://loinc.org",
              "display": "Glucose [Presence] in Urine by Test strip"
            }
          ],
          "text": "Glucose [Presence] in Urine by Test strip"
        },
        "text": {
          "status": "generated",
          "div": "<div xmlns=\"http://www.w3.org/1999/xhtml\"><table class=\"hl7__eu__lab__report\"><tr><th>Test</th><th>01-Feb-2017</th><th>Reference&#xA0;Range</th><th>Unit</th></tr><tr><td>Glucose [Presence] in Urine by Test strip</td></tr></table></div>"
        },
        "status": "final",
        "subject": {
          "reference": "urn:uuid:86b7e386-ad37-41b9-91d7-978c75ac32f0",
          "display": "Maria Nohlmans"
        },
        "effectiveDateTime": "2017-02-01T11:02:39Z",
        "specimen": {
          "reference": "urn:uuid:39f68a78-105e-4382-94a4-2fc53cf4bd1f"
        }
      }
    },
    {
      "fullUrl": "urn:uuid:52a5fec7-c598-454d-b312-5019a4f1a016",
      "resource": {
        "resourceType": "Observation",
        "id": "52a5fec7-c598-454d-b312-5019a4f1a016",
        "meta": {
          "profile": [
            "http://hl7.eu/fhir/laboratory/StructureDefinition/Observation-resultslab-eu-lab"
          ]
        },
        "performer": [
          {
            "display": "The Central European Lab"
          }
        ],
        "category": [
          {
            "coding": [
              {
                "system": "http://terminology.hl7.org/CodeSystem/observation-category",
                "code": "laboratory"
              }
            ]
          }
        ],
        "code": {
          "coding": [
            {
              "code": "20505-4",
              "system": "http://loinc.org",
              "display": "Bilirubin.total [Mass/volume] in Urine by Test strip"
            }
          ],
          "text": "Bilirubin.total [Mass/volume] in Urine by Test strip"
        },
        "valueQuantity": {
          "system": "http://unitsofmeasure.org",
          "value": 1.1,
          "unit": "mg/dL",
          "code": "mg/dL"
        },
        "referenceRange": [
          {
            "low": {
              "value": 0,
              "code": "mg/dL",
              "system": "http://unitsofmeasure.org"
            }
          },
          {
            "high": {
              "value": 1.5,
              "code": "mg/dL",
              "system": "http://unitsofmeasure.org"
            }
          }
        ],
        "text": {
          "status": "generated",
          "div": "<div xmlns=\"http://www.w3.org/1999/xhtml\"><table class=\"hl7__eu__lab__report\"><tr><th>Test</th><th>01-Feb-2017</th><th>Reference&#xA0;Range</th><th>Unit</th></tr><tr><td>Bilirubin.total [Mass/volume] in Urine by Test strip</td><td>1.1</td><td>0 - 1.5</td><td></td><td>mg/dL</td></tr></table></div>"
        },
        "status": "final",
        "subject": {
          "reference": "urn:uuid:86b7e386-ad37-41b9-91d7-978c75ac32f0",
          "display": "Maria Nohlmans"
        },
        "effectiveDateTime": "2017-02-01T11:02:39Z",
        "specimen": {
          "reference": "urn:uuid:39f68a78-105e-4382-94a4-2fc53cf4bd1f"
        }
      }
    },
    {
      "fullUrl": "urn:uuid:6d8c8ecd-0bf1-4719-a18b-4a8dc5a69f80",
      "resource": {
        "resourceType": "Observation",
        "id": "6d8c8ecd-0bf1-4719-a18b-4a8dc5a69f80",
        "meta": {
          "profile": [
            "http://hl7.eu/fhir/laboratory/StructureDefinition/Observation-resultslab-eu-lab"
          ]
        },
        "performer": [
          {
            "display": "The Central European Lab"
          }
        ],
        "category": [
          {
            "coding": [
              {
                "system": "http://terminology.hl7.org/CodeSystem/observation-category",
                "code": "laboratory"
              }
            ]
          }
        ],
        "code": {
          "coding": [
            {
              "code": "5770-3",
              "system": "http://loinc.org",
              "display": "Bilirubin.total [Presence] in Urine by Test strip"
            }
          ],
          "text": "Bilirubin.total [Presence] in Urine by Test strip"
        },
        "text": {
          "status": "generated",
          "div": "<div xmlns=\"http://www.w3.org/1999/xhtml\"><table class=\"hl7__eu__lab__report\"><tr><th>Test</th><th>01-Feb-2017</th><th>Reference&#xA0;Range</th><th>Unit</th></tr><tr><td>Bilirubin.total [Presence] in Urine by Test strip</td></tr></table></div>"
        },
        "status": "final",
        "subject": {
          "reference": "urn:uuid:86b7e386-ad37-41b9-91d7-978c75ac32f0",
          "display": "Maria Nohlmans"
        },
        "effectiveDateTime": "2017-02-01T11:02:39Z",
        "specimen": {
          "reference": "urn:uuid:39f68a78-105e-4382-94a4-2fc53cf4bd1f"
        }
      }
    },
    {
      "fullUrl": "urn:uuid:db01b786-8e13-4bfd-937b-3bfddae84644",
      "resource": {
        "resourceType": "Observation",
        "id": "db01b786-8e13-4bfd-937b-3bfddae84644",
        "meta": {
          "profile": [
            "http://hl7.eu/fhir/laboratory/StructureDefinition/Observation-resultslab-eu-lab"
          ]
        },
        "performer": [
          {
            "display": "The Central European Lab"
          }
        ],
        "category": [
          {
            "coding": [
              {
                "system": "http://terminology.hl7.org/CodeSystem/observation-category",
                "code": "laboratory"
              }
            ]
          }
        ],
        "code": {
          "coding": [
            {
              "code": "5797-6",
              "system": "http://loinc.org",
              "display": "Ketones [Mass/volume] in Urine by Test strip"
            }
          ],
          "text": "Ketones [Mass/volume] in Urine by Test strip"
        },
        "valueQuantity": {
          "system": "http://unitsofmeasure.org",
          "value": 6.1,
          "unit": "mg/dL",
          "code": "mg/dL"
        },
        "referenceRange": [
          {
            "low": {
              "value": 0,
              "code": "mg/dL",
              "system": "http://unitsofmeasure.org"
            }
          },
          {
            "high": {
              "value": 8,
              "code": "mg/dL",
              "system": "http://unitsofmeasure.org"
            }
          }
        ],
        "text": {
          "status": "generated",
          "div": "<div xmlns=\"http://www.w3.org/1999/xhtml\"><table class=\"hl7__eu__lab__report\"><tr><th>Test</th><th>01-Feb-2017</th><th>Reference&#xA0;Range</th><th>Unit</th></tr><tr><td>Ketones [Mass/volume] in Urine by Test strip</td><td>6.1</td><td>0 - 8</td><td></td><td>mg/dL</td></tr></table></div>"
        },
        "status": "final",
        "subject": {
          "reference": "urn:uuid:86b7e386-ad37-41b9-91d7-978c75ac32f0",
          "display": "Maria Nohlmans"
        },
        "effectiveDateTime": "2017-02-01T11:02:39Z",
        "specimen": {
          "reference": "urn:uuid:39f68a78-105e-4382-94a4-2fc53cf4bd1f"
        }
      }
    },
    {
      "fullUrl": "urn:uuid:2caa01d6-6c1d-4495-8871-40bbca37a6e1",
      "resource": {
        "resourceType": "Observation",
        "id": "2caa01d6-6c1d-4495-8871-40bbca37a6e1",
        "meta": {
          "profile": [
            "http://hl7.eu/fhir/laboratory/StructureDefinition/Observation-resultslab-eu-lab"
          ]
        },
        "performer": [
          {
            "display": "The Central European Lab"
          }
        ],
        "category": [
          {
            "coding": [
              {
                "system": "http://terminology.hl7.org/CodeSystem/observation-category",
                "code": "laboratory"
              }
            ]
          }
        ],
        "code": {
          "coding": [
            {
              "code": "2514-8",
              "system": "http://loinc.org",
              "display": "Ketones [Presence] in Urine by Test strip"
            }
          ],
          "text": "Ketones [Presence] in Urine by Test strip"
        },
        "text": {
          "status": "generated",
          "div": "<div xmlns=\"http://www.w3.org/1999/xhtml\"><table class=\"hl7__eu__lab__report\"><tr><th>Test</th><th>01-Feb-2017</th><th>Reference&#xA0;Range</th><th>Unit</th></tr><tr><td>Ketones [Presence] in Urine by Test strip</td></tr></table></div>"
        },
        "status": "final",
        "subject": {
          "reference": "urn:uuid:86b7e386-ad37-41b9-91d7-978c75ac32f0",
          "display": "Maria Nohlmans"
        },
        "effectiveDateTime": "2017-02-01T11:02:39Z",
        "specimen": {
          "reference": "urn:uuid:39f68a78-105e-4382-94a4-2fc53cf4bd1f"
        }
      }
    },
    {
      "fullUrl": "urn:uuid:b2c72b2e-c91a-4aa5-bf2f-a58bd96ced13",
      "resource": {
        "resourceType": "Observation",
        "id": "b2c72b2e-c91a-4aa5-bf2f-a58bd96ced13",
        "meta": {
          "profile": [
            "http://hl7.eu/fhir/laboratory/StructureDefinition/Observation-resultslab-eu-lab"
          ]
        },
        "performer": [
          {
            "display": "The Central European Lab"
          }
        ],
        "category": [
          {
            "coding": [
              {
                "system": "http://terminology.hl7.org/CodeSystem/observation-category",
                "code": "laboratory"
              }
            ]
          }
        ],
        "code": {
          "coding": [
            {
              "code": "5811-5",
              "system": "http://loinc.org",
              "display": "Specific gravity of Urine by Test strip"
            }
          ],
          "text": "Specific gravity of Urine by Test strip"
        },
        "valueQuantity": {
          "system": "http://unitsofmeasure.org",
          "value": 1,
          "unit": "{nominal}",
          "code": "{nominal}"
        },
        "referenceRange": [
          {
            "low": {
              "value": 1.01,
              "code": "g/mL",
              "system": "http://unitsofmeasure.org"
            }
          },
          {
            "high": {
              "value": 1.03,
              "code": "g/mL",
              "system": "http://unitsofmeasure.org"
            }
          }
        ],
        "interpretation": [
          {
            "coding": [
              {
                "code": "L",
                "system": "http://terminology.hl7.org/CodeSystem/v3-ObservationInterpretation",
                "display": "Low"
              }
            ]
          }
        ],
        "text": {
          "status": "generated",
          "div": "<div xmlns=\"http://www.w3.org/1999/xhtml\"><table class=\"hl7__eu__lab__report\"><tr><th>Test</th><th>01-Feb-2017</th><th>Reference&#xA0;Range</th><th>Unit</th></tr><tr><td>Specific gravity of Urine by Test strip</td><td>1.0</td><td>1.01 - 1.03</td><td>L</td><td>{nominal}</td></tr></table></div>"
        },
        "status": "final",
        "subject": {
          "reference": "urn:uuid:86b7e386-ad37-41b9-91d7-978c75ac32f0",
          "display": "Maria Nohlmans"
        },
        "effectiveDateTime": "2017-02-01T11:02:39Z",
        "specimen": {
          "reference": "urn:uuid:39f68a78-105e-4382-94a4-2fc53cf4bd1f"
        }
      }
    },
    {
      "fullUrl": "urn:uuid:dbd05163-9d37-40ee-b8d2-bb4326f70413",
      "resource": {
        "resourceType": "Observation",
        "id": "dbd05163-9d37-40ee-b8d2-bb4326f70413",
        "meta": {
          "profile": [
            "http://hl7.eu/fhir/laboratory/StructureDefinition/Observation-resultslab-eu-lab"
          ]
        },
        "performer": [
          {
            "display": "The Central European Lab"
          }
        ],
        "category": [
          {
            "coding": [
              {
                "system": "http://terminology.hl7.org/CodeSystem/observation-category",
                "code": "laboratory"
              }
            ]
          }
        ],
        "code": {
          "coding": [
            {
              "code": "5803-2",
              "system": "http://loinc.org",
              "display": "pH of Urine by Test strip"
            }
          ],
          "text": "pH of Urine by Test strip"
        },
        "valueQuantity": {
          "system": "http://unitsofmeasure.org",
          "value": 5.4,
          "unit": "pH",
          "code": "pH"
        },
        "referenceRange": [
          {
            "low": {
              "value": 4.6,
              "code": "pH",
              "system": "http://unitsofmeasure.org"
            }
          },
          {
            "high": {
              "value": 7.5,
              "code": "pH",
              "system": "http://unitsofmeasure.org"
            }
          }
        ],
        "text": {
          "status": "generated",
          "div": "<div xmlns=\"http://www.w3.org/1999/xhtml\"><table class=\"hl7__eu__lab__report\"><tr><th>Test</th><th>01-Feb-2017</th><th>Reference&#xA0;Range</th><th>Unit</th></tr><tr><td>pH of Urine by Test strip</td><td>5.4</td><td>4.6 - 7.5</td><td></td><td>pH</td></tr></table></div>"
        },
        "status": "final",
        "subject": {
          "reference": "urn:uuid:86b7e386-ad37-41b9-91d7-978c75ac32f0",
          "display": "Maria Nohlmans"
        },
        "effectiveDateTime": "2017-02-01T11:02:39Z",
        "specimen": {
          "reference": "urn:uuid:39f68a78-105e-4382-94a4-2fc53cf4bd1f"
        }
      }
    },
    {
      "fullUrl": "urn:uuid:af0e3c1f-4bc7-4b9d-84d9-beb69140b896",
      "resource": {
        "resourceType": "Observation",
        "id": "af0e3c1f-4bc7-4b9d-84d9-beb69140b896",
        "meta": {
          "profile": [
            "http://hl7.eu/fhir/laboratory/StructureDefinition/Observation-resultslab-eu-lab"
          ]
        },
        "performer": [
          {
            "display": "The Central European Lab"
          }
        ],
        "category": [
          {
            "coding": [
              {
                "system": "http://terminology.hl7.org/CodeSystem/observation-category",
                "code": "laboratory"
              }
            ]
          }
        ],
        "code": {
          "coding": [
            {
              "code": "5804-0",
              "system": "http://loinc.org",
              "display": "Protein [Mass/volume] in Urine by Test strip"
            }
          ],
          "text": "Protein [Mass/volume] in Urine by Test strip"
        },
        "valueQuantity": {
          "system": "http://unitsofmeasure.org",
          "value": 301.9,
          "unit": "mg/dL",
          "code": "mg/dL"
        },
        "referenceRange": [
          {
            "low": {
              "value": 0,
              "code": "mg/dL",
              "system": "http://unitsofmeasure.org"
            }
          },
          {
            "high": {
              "value": 14,
              "code": "mg/dL",
              "system": "http://unitsofmeasure.org"
            }
          }
        ],
        "interpretation": [
          {
            "coding": [
              {
                "code": "H",
                "system": "http://terminology.hl7.org/CodeSystem/v3-ObservationInterpretation",
                "display": "High"
              }
            ]
          }
        ],
        "text": {
          "status": "generated",
          "div": "<div xmlns=\"http://www.w3.org/1999/xhtml\"><table class=\"hl7__eu__lab__report\"><tr><th>Test</th><th>01-Feb-2017</th><th>Reference&#xA0;Range</th><th>Unit</th></tr><tr><td>Protein [Mass/volume] in Urine by Test strip</td><td>301.9</td><td>0 - 14</td><td>H</td><td>mg/dL</td></tr></table></div>"
        },
        "status": "final",
        "subject": {
          "reference": "urn:uuid:86b7e386-ad37-41b9-91d7-978c75ac32f0",
          "display": "Maria Nohlmans"
        },
        "effectiveDateTime": "2017-02-01T11:02:39Z",
        "specimen": {
          "reference": "urn:uuid:39f68a78-105e-4382-94a4-2fc53cf4bd1f"
        }
      }
    },
    {
      "fullUrl": "urn:uuid:1601f57c-5cd8-4eb5-8f54-16ba52f5131d",
      "resource": {
        "resourceType": "Observation",
        "id": "1601f57c-5cd8-4eb5-8f54-16ba52f5131d",
        "meta": {
          "profile": [
            "http://hl7.eu/fhir/laboratory/StructureDefinition/Observation-resultslab-eu-lab"
          ]
        },
        "performer": [
          {
            "display": "The Central European Lab"
          }
        ],
        "category": [
          {
            "coding": [
              {
                "system": "http://terminology.hl7.org/CodeSystem/observation-category",
                "code": "laboratory"
              }
            ]
          }
        ],
        "code": {
          "coding": [
            {
              "code": "20454-5",
              "system": "http://loinc.org",
              "display": "Protein [Presence] in Urine by Test strip"
            }
          ],
          "text": "Protein [Presence] in Urine by Test strip"
        },
        "text": {
          "status": "generated",
          "div": "<div xmlns=\"http://www.w3.org/1999/xhtml\"><table class=\"hl7__eu__lab__report\"><tr><th>Test</th><th>01-Feb-2017</th><th>Reference&#xA0;Range</th><th>Unit</th></tr><tr><td>Protein [Presence] in Urine by Test strip</td></tr></table></div>"
        },
        "status": "final",
        "subject": {
          "reference": "urn:uuid:86b7e386-ad37-41b9-91d7-978c75ac32f0",
          "display": "Maria Nohlmans"
        },
        "effectiveDateTime": "2017-02-01T11:02:39Z",
        "specimen": {
          "reference": "urn:uuid:39f68a78-105e-4382-94a4-2fc53cf4bd1f"
        }
      }
    },
    {
      "fullUrl": "urn:uuid:1e072ddb-3802-44ce-b195-252aa9ca94e8",
      "resource": {
        "resourceType": "Observation",
        "id": "1e072ddb-3802-44ce-b195-252aa9ca94e8",
        "meta": {
          "profile": [
            "http://hl7.eu/fhir/laboratory/StructureDefinition/Observation-resultslab-eu-lab"
          ]
        },
        "performer": [
          {
            "display": "The Central European Lab"
          }
        ],
        "category": [
          {
            "coding": [
              {
                "system": "http://terminology.hl7.org/CodeSystem/observation-category",
                "code": "laboratory"
              }
            ]
          }
        ],
        "code": {
          "coding": [
            {
              "code": "5802-4",
              "system": "http://loinc.org",
              "display": "Nitrite [Presence] in Urine by Test strip"
            }
          ],
          "text": "Nitrite [Presence] in Urine by Test strip"
        },
        "text": {
          "status": "generated",
          "div": "<div xmlns=\"http://www.w3.org/1999/xhtml\"><table class=\"hl7__eu__lab__report\"><tr><th>Test</th><th>01-Feb-2017</th><th>Reference&#xA0;Range</th><th>Unit</th></tr><tr><td>Nitrite [Presence] in Urine by Test strip</td></tr></table></div>"
        },
        "status": "final",
        "subject": {
          "reference": "urn:uuid:86b7e386-ad37-41b9-91d7-978c75ac32f0",
          "display": "Maria Nohlmans"
        },
        "effectiveDateTime": "2017-02-01T11:02:39Z",
        "specimen": {
          "reference": "urn:uuid:39f68a78-105e-4382-94a4-2fc53cf4bd1f"
        }
      }
    },
    {
      "fullUrl": "urn:uuid:985b6a66-0f40-4347-ada4-22d9e5bc80b7",
      "resource": {
        "resourceType": "Observation",
        "id": "985b6a66-0f40-4347-ada4-22d9e5bc80b7",
        "meta": {
          "profile": [
            "http://hl7.eu/fhir/laboratory/StructureDefinition/Observation-resultslab-eu-lab"
          ]
        },
        "performer": [
          {
            "display": "The Central European Lab"
          }
        ],
        "category": [
          {
            "coding": [
              {
                "system": "http://terminology.hl7.org/CodeSystem/observation-category",
                "code": "laboratory"
              }
            ]
          }
        ],
        "code": {
          "coding": [
            {
              "code": "5794-3",
              "system": "http://loinc.org",
              "display": "Hemoglobin [Presence] in Urine by Test strip"
            }
          ],
          "text": "Hemoglobin [Presence] in Urine by Test strip"
        },
        "text": {
          "status": "generated",
          "div": "<div xmlns=\"http://www.w3.org/1999/xhtml\"><table class=\"hl7__eu__lab__report\"><tr><th>Test</th><th>01-Feb-2017</th><th>Reference&#xA0;Range</th><th>Unit</th></tr><tr><td>Hemoglobin [Presence] in Urine by Test strip</td></tr></table></div>"
        },
        "status": "final",
        "subject": {
          "reference": "urn:uuid:86b7e386-ad37-41b9-91d7-978c75ac32f0",
          "display": "Maria Nohlmans"
        },
        "effectiveDateTime": "2017-02-01T11:02:39Z",
        "specimen": {
          "reference": "urn:uuid:39f68a78-105e-4382-94a4-2fc53cf4bd1f"
        }
      }
    },
    {
      "fullUrl": "urn:uuid:1a0f38d7-14bd-4279-8b2c-8fcd79ada0f0",
      "resource": {
        "resourceType": "Observation",
        "id": "1a0f38d7-14bd-4279-8b2c-8fcd79ada0f0",
        "meta": {
          "profile": [
            "http://hl7.eu/fhir/laboratory/StructureDefinition/Observation-resultslab-eu-lab"
          ]
        },
        "performer": [
          {
            "display": "The Central European Lab"
          }
        ],
        "category": [
          {
            "coding": [
              {
                "system": "http://terminology.hl7.org/CodeSystem/observation-category",
                "code": "laboratory"
              }
            ]
          }
        ],
        "code": {
          "coding": [
            {
              "code": "5799-2",
              "system": "http://loinc.org",
              "display": "Leukocyte esterase [Presence] in Urine by Test strip"
            }
          ],
          "text": "Leukocyte esterase [Presence] in Urine by Test strip"
        },
        "text": {
          "status": "generated",
          "div": "<div xmlns=\"http://www.w3.org/1999/xhtml\"><table class=\"hl7__eu__lab__report\"><tr><th>Test</th><th>01-Feb-2017</th><th>Reference&#xA0;Range</th><th>Unit</th></tr><tr><td>Leukocyte esterase [Presence] in Urine by Test strip</td></tr></table></div>"
        },
        "status": "final",
        "subject": {
          "reference": "urn:uuid:86b7e386-ad37-41b9-91d7-978c75ac32f0",
          "display": "Maria Nohlmans"
        },
        "effectiveDateTime": "2017-02-01T11:02:39Z",
        "specimen": {
          "reference": "urn:uuid:39f68a78-105e-4382-94a4-2fc53cf4bd1f"
        }
      }
    },
    {
      "fullUrl": "urn:uuid:27d5ee93-b549-4251-b53f-3165d757c65e",
      "resource": {
        "resourceType": "Observation",
        "id": "27d5ee93-b549-4251-b53f-3165d757c65e",
        "meta": {
          "profile": [
            "http://hl7.eu/fhir/laboratory/StructureDefinition/Observation-resultslab-eu-lab"
          ]
        },
        "performer": [
          {
            "display": "The Central European Lab"
          }
        ],
        "category": [
          {
            "coding": [
              {
                "system": "http://terminology.hl7.org/CodeSystem/observation-category",
                "code": "laboratory"
              }
            ]
          }
        ],
        "code": {
          "coding": [
            {
              "code": "4548-4",
              "system": "http://loinc.org",
              "display": "Hemoglobin A1c/Hemoglobin.total in Blood"
            }
          ],
          "text": "Hemoglobin A1c/Hemoglobin.total in Blood"
        },
        "valueQuantity": {
          "system": "http://unitsofmeasure.org",
          "value": 3.4,
          "unit": "%",
          "code": "%"
        },
        "referenceRange": [
          {
            "low": {
              "value": 4.5,
              "code": "%",
              "system": "http://unitsofmeasure.org"
            }
          },
          {
            "high": {
              "value": 6.4,
              "code": "%",
              "system": "http://unitsofmeasure.org"
            }
          }
        ],
        "interpretation": [
          {
            "coding": [
              {
                "code": "L",
                "system": "http://terminology.hl7.org/CodeSystem/v3-ObservationInterpretation",
                "display": "Low"
              }
            ]
          }
        ],
        "text": {
          "status": "generated",
          "div": "<div xmlns=\"http://www.w3.org/1999/xhtml\"><table class=\"hl7__eu__lab__report\"><tr><th>Test</th><th>01-Feb-2017</th><th>Reference&#xA0;Range</th><th>Unit</th></tr><tr><td>Hemoglobin A1c/Hemoglobin.total in Blood</td><td>3.4</td><td>4.5 - 6.4</td><td>L</td><td>%</td></tr></table></div>"
        },
        "status": "final",
        "subject": {
          "reference": "urn:uuid:86b7e386-ad37-41b9-91d7-978c75ac32f0",
          "display": "Maria Nohlmans"
        },
        "effectiveDateTime": "2017-02-01T11:02:39Z",
        "specimen": {
          "reference": "urn:uuid:f8b42a47-9cc6-4896-9b6d-f461f7302013"
        }
      }
    },
    {
      "fullUrl": "urn:uuid:1e644a51-85aa-4971-b435-957d2fe9eb38",
      "resource": {
        "resourceType": "Device",
        "id": "1e644a51-85aa-4971-b435-957d2fe9eb38",
        "deviceName": [
          {
            "name": "SYNDERAI Synthetic Generator",
            "type": "manufacturer-name"
          }
        ],
        "version": [
          {
            "value": "5.0"
          }
        ],
        "text": {
          "status": "generated",
          "div": "<div xmlns=\"http://www.w3.org/1999/xhtml\">SYNDERAI Synthetic Generator v5.0</div>"
        },
        "status": "active\"",
        "distinctIdentifier": "synderai-generator-50",
        "manufacturer": "SYNDERAI Project"
      }
    },
    {
      "fullUrl": "urn:uuid:36db2671-0920-4e5a-97c2-f86d398d4746",
      "resource": {
        "resourceType": "Provenance",
        "id": "36db2671-0920-4e5a-97c2-f86d398d4746",
        "target": [
          {
            "reference": "Patient/86b7e386-ad37-41b9-91d7-978c75ac32f0"
          },
          {
            "reference": "Bundle/d7e2de86-eaed-4110-b150-ef8040e172f0"
          },
          {
            "reference": "Composition/96fd4fff-c467-4484-850f-42b18138ab86"
          },
          {
            "reference": "PractitionerRole/efd32e54-78d7-46f5-996f-37f0b2e86cde"
          },
          {
            "reference": "Practitioner/b4793ba8-1a8f-4616-87a7-ad4d8a848f18"
          },
          {
            "reference": "PractitionerRole/3b550456-b302-4738-92bf-e7ffd84f67f7"
          },
          {
            "reference": "Organization/842a8637-eaec-444c-931c-5e16b61e7aad"
          }
        ],
        "activity": {
          "text": "Synthetic Example Data Generation"
        },
        "policy": [
          "https://synderai.net/synderai-synthetic-data-policy"
        ],
        "agent": [
          {
            "type": {
              "text": "author"
            },
            "who": {
              "reference": "Device/1e644a51-85aa-4971-b435-957d2fe9eb38"
            }
          }
        ],
        "reason": [
          {
            "text": "Interoperability Testing and Training (non-clinical use)"
          }
        ],
        "text": {
          "status": "generated",
          "div": "<div xmlns=\"http://www.w3.org/1999/xhtml\">Provenance for SYNDERAI Synthetic Example Data Resource</div>"
        },
        "recorded": "2017-02-01T12:02:39Z"
      }
    },
    {
      "fullUrl": "urn:uuid:efd32e54-78d7-46f5-996f-37f0b2e86cde",
      "resource": {
        "resourceType": "PractitionerRole",
        "id": "efd32e54-78d7-46f5-996f-37f0b2e86cde",
        "meta": {
          "profile": [
            "http://hl7.eu/fhir/base/StructureDefinition/practitionerRole-eu"
          ]
        },
        "text": {
          "status": "generated",
          "div": "<div xmlns=\"http://www.w3.org/1999/xhtml\">Laboratory Role Id: efd32e54-78d7-46f5-996f-37f0b2e86cde</div>"
        },
        "practitioner": {
          "reference": "urn:uuid:b4793ba8-1a8f-4616-87a7-ad4d8a848f18"
        }
      }
    },
    {
      "fullUrl": "urn:uuid:b4793ba8-1a8f-4616-87a7-ad4d8a848f18",
      "resource": {
        "resourceType": "Practitioner",
        "id": "b4793ba8-1a8f-4616-87a7-ad4d8a848f18",
        "meta": {
          "profile": [
            "http://hl7.eu/fhir/base/StructureDefinition/practitioner-eu"
          ]
        },
        "identifier": [
          {
            "assigner": {
              "display": "HL7 Europe"
            },
            "system": "urn:oid:2.16.840.1.113883.2.51.999",
            "value": "c9e2abb7-7993-4dbb-946f-a595c27cd413"
          }
        ],
        "name": [
          {
            "prefix": [
              "dr"
            ],
            "given": [
              "Ex"
            ],
            "family": "Ample"
          }
        ],
        "address": [
          {
            "line": [
              "Laboratoire Central Européenne",
              "Boulevard du Jardin Botanique 32"
            ],
            "postalCode": "1000",
            "city": "Brussels",
            "country": "Belgium"
          }
        ],
        "text": {
          "status": "generated",
          "div": "<div xmlns=\"http://www.w3.org/1999/xhtml\">Laboratory: Laboratoire Central Européenne, 1000 Brussels, Belgium</div>"
        }
      }
    }
  ],
  "type": "document",
  "timestamp": "2017-02-01T12:02:39Z"
}
