{
  "resourceType": "Bundle",
  "id": "c075e150-6c95-4861-a30c-577b6ed4d693",
  "meta": {
    "profile": [
      "http://hl7.eu/fhir/laboratory/StructureDefinition/Bundle-eu-lab"
    ]
  },
  "identifier": {
    "assigner": {
      "display": "HL7 Europe"
    },
    "system": "urn:oid:2.16.840.1.113883.2.51.999",
    "value": "938bc50a-c690-41d8-b2c9-9c0195afbe37"
  },
  "entry": [
    {
      "fullUrl": "urn:uuid:fb0bb19a-19f9-43b1-b516-651f6bb5f498",
      "resource": {
        "resourceType": "Composition",
        "id": "fb0bb19a-19f9-43b1-b516-651f6bb5f498",
        "meta": {
          "profile": [
            "http://hl7.eu/fhir/laboratory/StructureDefinition/Composition-eu-lab"
          ]
        },
        "identifier": {
          "assigner": {
            "display": "HL7 Europe"
          },
          "system": "urn:oid:2.16.840.1.113883.2.51.999",
          "value": "96709f53-1635-45b9-8df1-f0d3baf2f9fe"
        },
        "author": [
          {
            "reference": "urn:uuid:f5fae65d-8c7f-4771-99fe-511106c7eddb"
          }
        ],
        "category": [
          {
            "coding": [
              {
                "code": "26436-6",
                "system": "http://loinc.org",
                "display": "Laboratory studies (set)"
              }
            ]
          }
        ],
        "type": {
          "coding": [
            {
              "code": "11502-2",
              "system": "http://loinc.org",
              "display": "Laboratory report"
            }
          ],
          "text": "Laboratory Report"
        },
        "section": [
          {
            "code": {
              "coding": [
                {
                  "code": "26436-6",
                  "system": "http://loinc.org",
                  "display": "Laboratory studies (set)"
                }
              ],
              "text": "Laboratory studies"
            },
            "section": [
              {
                "code": {
                  "coding": [
                    {
                      "code": "$18723-7",
                      "system": "http://loinc.org",
                      "display": "Hematology studies (set)"
                    }
                  ],
                  "text": "Hematology"
                },
                "entry": [
                  {
                    "reference": "urn:uuid:676f1e08-3195-4a26-bda5-a243f7b0da8a"
                  },
                  {
                    "reference": "urn:uuid:3690bff9-7ec4-471a-b2b9-2a9b03d57a4e"
                  },
                  {
                    "reference": "urn:uuid:acb114f0-bb90-41ab-9317-024daad823b4"
                  },
                  {
                    "reference": "urn:uuid:3f804228-fb48-4cbb-8c2c-1a105b8ddac5"
                  },
                  {
                    "reference": "urn:uuid:6684570e-fbb3-4174-9100-80ed185fefdd"
                  },
                  {
                    "reference": "urn:uuid:b5fa3929-10c4-43b0-9fd8-78e4e615a9c5"
                  },
                  {
                    "reference": "urn:uuid:5acb9b15-d65f-4155-975a-0f2247b6b85a"
                  },
                  {
                    "reference": "urn:uuid:c3e427f0-19bb-404f-9da3-6c891a974dcb"
                  },
                  {
                    "reference": "urn:uuid:7f3b355e-2a99-4d10-9834-5e93819cc1ee"
                  },
                  {
                    "reference": "urn:uuid:590c4f48-8756-4aa0-98fa-e7512f766f3f"
                  },
                  {
                    "reference": "urn:uuid:1e6043a1-2f61-440c-a5bd-0cd06a735dd6"
                  }
                ],
                "text": {
                  "status": "generated",
                  "div": "<div xmlns=\"http://www.w3.org/1999/xhtml\"><h3>Hematology</h3><table class=\"hl7__eu__lab__report\"><thead><tr><th>Test</th><th>04-MAY-2016</th><th>Reference&#xA0;Range</th><th>Unit</th></tr></thead><tbody><tr><td>Leukocytes [#/volume] in Blood by Automated count</td><td><strong>3.9 L</strong></td><td>4 - 11</td><td>10*3/uL</td></tr><tr><td>Erythrocytes [#/volume] in Blood by Automated count</td><td>4.7</td><td>4.2 - 5.8</td><td>10*6/uL</td></tr><tr><td>Hemoglobin [Mass/volume] in Blood</td><td>12.7</td><td>12 - 16</td><td>g/dL</td></tr><tr><td>Hematocrit [Volume Fraction] of Blood by Automated count</td><td>38.0</td><td>36 - 48</td><td>%</td></tr><tr><td>MCV [Entitic volume] by Automated count</td><td>93.5</td><td>78 - 98</td><td>fL</td></tr><tr><td>MCH [Entitic mass] by Automated count</td><td>29.8</td><td>27 - 34.5</td><td>pg</td></tr><tr><td>MCHC [Mass/volume] by Automated count</td><td>35.4</td><td>31.5 - 35.5</td><td>g/dL</td></tr><tr><td>Erythrocyte distribution width [Entitic volume] by Automated count</td><td>39.1</td><td>36 - 56</td><td>fL</td></tr><tr><td>Platelets [#/volume] in Blood by Automated count</td><td>168.1</td><td>150 - 350</td><td>10*3/uL</td></tr><tr><td>Platelet distribution width [Entitic volume] in Blood by Automated count</td><td><strong>186.2 H</strong></td><td>13.4 - 17.4</td><td>fL</td></tr><tr><td>Platelet mean volume [Entitic volume] in Blood by Automated count</td><td>10.7</td><td>9.8 - 13.8</td><td>fL</td></tr></tbody></table></div>"
                },
                "title": "Hematology"
              },
              {
                "code": {
                  "coding": [
                    {
                      "code": "$18719-5",
                      "system": "http://loinc.org",
                      "display": "Chemistry studies (set)"
                    }
                  ],
                  "text": "Chemistry"
                },
                "entry": [
                  {
                    "reference": "urn:uuid:5797f065-c8f3-44f1-8672-2c0870839f6c"
                  },
                  {
                    "reference": "urn:uuid:08512d53-006e-41cd-bd5b-c54d62bb711d"
                  },
                  {
                    "reference": "urn:uuid:7fa498cc-1985-48ab-b728-cd68658ce79a"
                  },
                  {
                    "reference": "urn:uuid:619a71fd-4cd2-4fd9-aaeb-119d070208fc"
                  },
                  {
                    "reference": "urn:uuid:44889424-50f8-4af3-9e1b-176b158d6871"
                  },
                  {
                    "reference": "urn:uuid:a51f5309-1fad-4ba6-9073-3b4f8098e637"
                  },
                  {
                    "reference": "urn:uuid:194c5b7c-e201-42e7-a491-dde0c134d802"
                  },
                  {
                    "reference": "urn:uuid:348adf5f-de4d-4096-9f78-bee78562bd93"
                  },
                  {
                    "reference": "urn:uuid:e2180968-a50a-4a80-ba7c-fc034b079736"
                  }
                ],
                "text": {
                  "status": "generated",
                  "div": "<div xmlns=\"http://www.w3.org/1999/xhtml\"><h3>Chemistry</h3><table class=\"hl7__eu__lab__report\"><thead><tr><th>Test</th><th>04-MAY-2016</th><th>Reference&#xA0;Range</th><th>Unit</th></tr></thead><tbody><tr><td>Hemoglobin A1c/Hemoglobin.total in Blood</td><td>6.1</td><td>4.5 - 6.4</td><td>%</td></tr><tr><td>Glucose [Mass/volume] in Blood</td><td>92.0</td><td>70 - 140</td><td>mg/dL</td></tr><tr><td>Urea nitrogen [Mass/volume] in Blood</td><td>7.9</td><td>7 - 20</td><td>mg/dL</td></tr><tr><td>Creatinine [Mass/volume] in Blood</td><td>0.6</td><td>0.6 - 1.1</td><td>mg/dL</td></tr><tr><td>Calcium [Mass/volume] in Blood</td><td>10.2</td><td>8.5 - 10.4</td><td>mg/dL</td></tr><tr><td>Sodium [Moles/volume] in Blood</td><td>139.0</td><td>135 - 145</td><td>mmol/L</td></tr><tr><td>Potassium [Moles/volume] in Blood</td><td>4.9</td><td>3.5 - 5.1</td><td>mmol/L</td></tr><tr><td>Chloride [Moles/volume] in Blood</td><td>104.0</td><td>98 - 107</td><td>mmol/L</td></tr><tr><td>Carbon dioxide, total [Moles/volume] in Blood</td><td>27.0</td><td>22 - 29</td><td>mmol/L</td></tr></tbody></table></div>"
                },
                "title": "Chemistry"
              }
            ],
            "title": "Laboratory Report"
          },
          {
            "text": {
              "status": "generated",
              "div": "<div xmlns=\"http://www.w3.org/1999/xhtml\"><h3>Annotation</h3><table class=\"hl7__eu__lab__report\"><tr><th>Conclusion and Recommendations based on this report and previous findings known to us</th></tr><tr><td>All results are within or close to normal limits, except for mild leukopenia (slightly low white blood cells) and a markedly elevated platelet distribution width, which may indicate increased platelet size variability. No acute abnormalities are evident. Mild leukopenia may warrant monitoring, especially if there are clinical symptoms or risk factors for infection. Overall, results are stable.</td></tr></table></div>"
            },
            "code": {
              "coding": [
                {
                  "system": "http://loinc.org",
                  "code": "48767-8",
                  "display": "Annotation comment"
                }
              ]
            },
            "title": "Annotation comment"
          }
        ],
        "status": "final",
        "subject": {
          "reference": "urn:uuid:f67b71a7-0251-4038-9da8-b577f9bd4885",
          "display": "Magdolna Balog"
        },
        "date": "2016-05-04T15:34:16Z",
        "title": "Laboratory Report",
        "confidentiality": "N"
      }
    },
    {
      "fullUrl": "urn:uuid:dcbb563a-27e5-4eb4-a48c-fa508f0787a8",
      "resource": {
        "resourceType": "DiagnosticReport",
        "id": "dcbb563a-27e5-4eb4-a48c-fa508f0787a8",
        "meta": {
          "profile": [
            "http://hl7.eu/fhir/laboratory/StructureDefinition/DiagnosticReport-eu-lab"
          ]
        },
        "identifier": [
          {
            "assigner": {
              "display": "HL7 Europe"
            },
            "system": "urn:oid:2.16.840.1.113883.2.51.999",
            "value": "c3eaa0a5-47ab-4729-91fc-90c795af98ec"
          }
        ],
        "extension": [
          {
            "url": "http://hl7.org/fhir/5.0/StructureDefinition/extension-DiagnosticReport.composition",
            "valueReference": {
              "reference": "urn:uuid:96709f53-1635-45b9-8df1-f0d3baf2f9fe"
            }
          }
        ],
        "category": [
          {
            "coding": [
              {
                "code": "26436-6",
                "system": "http://loinc.org",
                "display": "Laboratory studies (set)"
              }
            ]
          }
        ],
        "specimen": [
          {
            "reference": "urn:uuid:da37120c-dd7d-4c9b-b2fb-d2393ba461cf"
          },
          {
            "reference": "urn:uuid:da37120c-dd7d-4c9b-b2fb-d2393ba461cf"
          }
        ],
        "result": [
          {
            "reference": "urn:uuid:5797f065-c8f3-44f1-8672-2c0870839f6c"
          },
          {
            "reference": "urn:uuid:08512d53-006e-41cd-bd5b-c54d62bb711d"
          },
          {
            "reference": "urn:uuid:7fa498cc-1985-48ab-b728-cd68658ce79a"
          },
          {
            "reference": "urn:uuid:619a71fd-4cd2-4fd9-aaeb-119d070208fc"
          },
          {
            "reference": "urn:uuid:44889424-50f8-4af3-9e1b-176b158d6871"
          },
          {
            "reference": "urn:uuid:a51f5309-1fad-4ba6-9073-3b4f8098e637"
          },
          {
            "reference": "urn:uuid:194c5b7c-e201-42e7-a491-dde0c134d802"
          },
          {
            "reference": "urn:uuid:348adf5f-de4d-4096-9f78-bee78562bd93"
          },
          {
            "reference": "urn:uuid:e2180968-a50a-4a80-ba7c-fc034b079736"
          },
          {
            "reference": "urn:uuid:676f1e08-3195-4a26-bda5-a243f7b0da8a"
          },
          {
            "reference": "urn:uuid:3690bff9-7ec4-471a-b2b9-2a9b03d57a4e"
          },
          {
            "reference": "urn:uuid:acb114f0-bb90-41ab-9317-024daad823b4"
          },
          {
            "reference": "urn:uuid:3f804228-fb48-4cbb-8c2c-1a105b8ddac5"
          },
          {
            "reference": "urn:uuid:6684570e-fbb3-4174-9100-80ed185fefdd"
          },
          {
            "reference": "urn:uuid:b5fa3929-10c4-43b0-9fd8-78e4e615a9c5"
          },
          {
            "reference": "urn:uuid:5acb9b15-d65f-4155-975a-0f2247b6b85a"
          },
          {
            "reference": "urn:uuid:c3e427f0-19bb-404f-9da3-6c891a974dcb"
          },
          {
            "reference": "urn:uuid:7f3b355e-2a99-4d10-9834-5e93819cc1ee"
          },
          {
            "reference": "urn:uuid:590c4f48-8756-4aa0-98fa-e7512f766f3f"
          },
          {
            "reference": "urn:uuid:1e6043a1-2f61-440c-a5bd-0cd06a735dd6"
          }
        ],
        "status": "registered",
        "code": {
          "coding": [
            {
              "code": "11502-2",
              "system": "http://loinc.org",
              "display": "Laboratory report"
            }
          ]
        },
        "subject": {
          "reference": "urn:uuid:f67b71a7-0251-4038-9da8-b577f9bd4885",
          "display": "Magdolna Balog"
        }
      }
    },
    {
      "fullUrl": "urn:uuid:f67b71a7-0251-4038-9da8-b577f9bd4885",
      "resource": {
        "resourceType": "Patient",
        "id": "f67b71a7-0251-4038-9da8-b577f9bd4885",
        "meta": {
          "security": [
            {
              "system": "http://terminology.hl7.org/CodeSystem/v3-ActReason",
              "code": "HTEST"
            },
            {
              "system": "http://terminology.hl7.org/CodeSystem/v3-ActReason",
              "code": "TRAIN"
            }
          ],
          "tag": [
            {
              "system": "https://synderai.net/fhir/CodeSystem/tags",
              "code": "synthetic",
              "display": "SYNDERAI Synthetic data"
            }
          ],
          "profile": [
            "http://hl7.eu/fhir/base/StructureDefinition/patient-eu-core"
          ]
        },
        "identifier": [
          {
            "type": {
              "coding": [
                {
                  "code": "PT",
                  "system": "http://terminology.hl7.org/CodeSystem/v2-0203"
                }
              ]
            },
            "system": "http://ec.europa.eu/identifier/eci",
            "value": "2437-386280-4"
          },
          {
            "type": {
              "coding": [
                {
                  "code": "MR",
                  "system": "http://terminology.hl7.org/CodeSystem/v2-0203"
                }
              ]
            },
            "system": "http://local.setting.eu/identifier",
            "value": "1d8dc8c5-3a85-b1b5-4101-cca776d0be28"
          }
        ],
        "name": [
          {
            "family": "Balog"
          },
          {
            "given": [
              "Magdolna"
            ]
          },
          {
            "text": "Magdolna Balog"
          }
        ],
        "address": [
          {
            "line": [
              "Ady endre utca 160."
            ],
            "use": "home",
            "type": "physical",
            "postalCode": "3989",
            "city": "Némethídfa",
            "country": "Hungary"
          }
        ],
        "telecom": [
          {
            "system": "phone",
            "value": "+36 46 091-2914"
          }
        ],
        "extension": [
          {
            "url": "http://hl7.org/fhir/StructureDefinition/patient-nationality",
            "valueCodeableConcept": {
              "coding": [
                {
                  "code": "HU",
                  "system": "http://hl7.org/fhir/ValueSet/country"
                }
              ]
            }
          }
        ],
        "text": {
          "status": "generated",
          "div": "<div xmlns=\"http://www.w3.org/1999/xhtml\"><table class=\"hl7__ips\"><tr><td>Magdolna Balog</td><td>female</td><td>21-May-1946</td></tr></table></div>"
        },
        "gender": "female",
        "birthDate": "1946-05-21"
      }
    },
    {
      "fullUrl": "urn:uuid:a55697d8-eb7e-4d23-976e-5aeeacfb2d9b",
      "resource": {
        "resourceType": "ServiceRequest",
        "id": "a55697d8-eb7e-4d23-976e-5aeeacfb2d9b",
        "meta": {
          "profile": [
            "http://hl7.eu/fhir/laboratory/StructureDefinition/ServiceRequest-eu-lab"
          ]
        },
        "identifier": [
          {
            "system": "http://example.org",
            "value": "92eb3675-f46c-4176-8188-b30f371484e3"
          }
        ],
        "specimen": [
          {
            "reference": "urn:uuid:da37120c-dd7d-4c9b-b2fb-d2393ba461cf"
          }
        ],
        "reasonCode": [
          {
            "coding": [
              {
                "code": "26929004",
                "system": "http://snomed.info/sct",
                "display": "Alzheimer&#039;s disease"
              }
            ]
          },
          {
            "coding": [
              {
                "code": "414545008",
                "system": "http://snomed.info/sct",
                "display": "Ischemic heart disease"
              }
            ]
          },
          {
            "coding": [
              {
                "code": "49436004",
                "system": "http://snomed.info/sct",
                "display": "Atrial fibrillation"
              }
            ]
          },
          {
            "coding": [
              {
                "code": "64859006",
                "system": "http://snomed.info/sct",
                "display": "Osteoporosis"
              }
            ]
          },
          {
            "coding": [
              {
                "code": "15777000",
                "system": "http://snomed.info/sct",
                "display": "Prediabetes"
              }
            ]
          },
          {
            "coding": [
              {
                "code": "271737000",
                "system": "http://snomed.info/sct",
                "display": "Anemia"
              }
            ]
          }
        ],
        "status": "active",
        "intent": "order",
        "code": {
          "coding": [
            {
              "code": "108252007",
              "system": "http://snomed.info/sct",
              "display": "Laboratory procedure"
            }
          ]
        },
        "subject": {
          "reference": "urn:uuid:f67b71a7-0251-4038-9da8-b577f9bd4885",
          "display": "Magdolna Balog"
        },
        "requester": {
          "reference": "urn:uuid:42e511a3-b261-4774-8f7d-36a20aaece36"
        }
      }
    },
    {
      "fullUrl": "urn:uuid:42e511a3-b261-4774-8f7d-36a20aaece36",
      "resource": {
        "resourceType": "PractitionerRole",
        "id": "42e511a3-b261-4774-8f7d-36a20aaece36",
        "meta": {
          "profile": [
            "http://hl7.eu/fhir/base/StructureDefinition/practitionerRole-eu"
          ]
        },
        "text": {
          "status": "generated",
          "div": "<div xmlns=\"http://www.w3.org/1999/xhtml\">Provider Role Id: 42e511a3-b261-4774-8f7d-36a20aaece36</div>"
        },
        "organization": {
          "reference": "urn:uuid:d9026abe-b5ba-48d5-9b89-21aa73fa5bb2"
        }
      }
    },
    {
      "fullUrl": "urn:uuid:d9026abe-b5ba-48d5-9b89-21aa73fa5bb2",
      "resource": {
        "resourceType": "Organization",
        "id": "d9026abe-b5ba-48d5-9b89-21aa73fa5bb2",
        "meta": {
          "profile": [
            "http://hl7.eu/fhir/base/StructureDefinition/organization-eu"
          ]
        },
        "identifier": [
          {
            "assigner": {
              "display": "HL7 Europe"
            },
            "system": "urn:oid:2.16.840.1.113883.2.51.999",
            "value": "eff5c557-ad56-4f3a-a2ab-c8afc824b506"
          }
        ],
        "address": [
          {
            "line": [
              "Csabai kapu 9-11"
            ],
            "city": "Miskolc",
            "postalCode": "3529",
            "country": "Hungary"
          }
        ],
        "text": {
          "status": "generated",
          "div": "<div xmlns=\"http://www.w3.org/1999/xhtml\">Provider Organization: Semmelweis Ignác Egészségügyi Központ és Egyetemi Oktató Kórház</div>"
        },
        "name": "Semmelweis Ignác Egészségügyi Központ és Egyetemi Oktató Kórház"
      }
    },
    {
      "fullUrl": "urn:uuid:da37120c-dd7d-4c9b-b2fb-d2393ba461cf",
      "resource": {
        "resourceType": "Specimen",
        "id": "da37120c-dd7d-4c9b-b2fb-d2393ba461cf",
        "meta": {
          "profile": [
            "http://hl7.eu/fhir/laboratory/StructureDefinition/Specimen-eu-lab"
          ]
        },
        "collection": {
          "collectedDateTime": "2016-05-04"
        },
        "text": {
          "status": "generated",
          "div": "<div xmlns=\"http://www.w3.org/1999/xhtml\"><table class=\"hl7__eu__lab__report\"><tr><th>Specimen</th><th>Collection Date</th></tr><tr><td>Whole blood specimen (specimen)</td><td><span class=\"nb\">04-May-2016</span></td></tr></table></div>"
        },
        "type": {
          "coding": [
            {
              "code": "258580003",
              "system": "http://snomed.info/sct",
              "display": "Whole blood specimen (specimen)"
            }
          ]
        }
      }
    },
    {
      "fullUrl": "urn:uuid:da37120c-dd7d-4c9b-b2fb-d2393ba461cf",
      "resource": {
        "resourceType": "Specimen",
        "id": "da37120c-dd7d-4c9b-b2fb-d2393ba461cf",
        "meta": {
          "profile": [
            "http://hl7.eu/fhir/laboratory/StructureDefinition/Specimen-eu-lab"
          ]
        },
        "collection": {
          "collectedDateTime": "2016-05-04"
        },
        "text": {
          "status": "generated",
          "div": "<div xmlns=\"http://www.w3.org/1999/xhtml\"><table class=\"hl7__eu__lab__report\"><tr><th>Specimen</th><th>Collection Date</th></tr><tr><td>Whole blood specimen (specimen)</td><td><span class=\"nb\">04-May-2016</span></td></tr></table></div>"
        },
        "type": {
          "coding": [
            {
              "code": "258580003",
              "system": "http://snomed.info/sct",
              "display": "Whole blood specimen (specimen)"
            }
          ]
        }
      }
    },
    {
      "fullUrl": "urn:uuid:5797f065-c8f3-44f1-8672-2c0870839f6c",
      "resource": {
        "resourceType": "Observation",
        "id": "5797f065-c8f3-44f1-8672-2c0870839f6c",
        "meta": {
          "profile": [
            "http://hl7.eu/fhir/laboratory/StructureDefinition/Observation-resultslab-eu-lab"
          ]
        },
        "performer": [
          {
            "display": "The Central European Lab"
          }
        ],
        "category": [
          {
            "coding": [
              {
                "system": "http://terminology.hl7.org/CodeSystem/observation-category",
                "code": "laboratory"
              }
            ]
          }
        ],
        "code": {
          "coding": [
            {
              "code": "4548-4",
              "system": "http://loinc.org",
              "display": "Hemoglobin A1c/Hemoglobin.total in Blood"
            }
          ],
          "text": "Hemoglobin A1c/Hemoglobin.total in Blood"
        },
        "valueQuantity": {
          "system": "http://unitsofmeasure.org",
          "value": 6.1,
          "unit": "%",
          "code": "%"
        },
        "referenceRange": [
          {
            "low": {
              "value": 4.5,
              "code": "%",
              "system": "http://unitsofmeasure.org"
            }
          },
          {
            "high": {
              "value": 6.4,
              "code": "%",
              "system": "http://unitsofmeasure.org"
            }
          }
        ],
        "text": {
          "status": "generated",
          "div": "<div xmlns=\"http://www.w3.org/1999/xhtml\"><table class=\"hl7__eu__lab__report\"><tr><th>Test</th><th>04-May-2016</th><th>Reference&#xA0;Range</th><th>Unit</th></tr><tr><td>Hemoglobin A1c/Hemoglobin.total in Blood</td><td>6.1</td><td>4.5 - 6.4</td><td></td><td>%</td></tr></table></div>"
        },
        "status": "final",
        "subject": {
          "reference": "urn:uuid:f67b71a7-0251-4038-9da8-b577f9bd4885",
          "display": "Magdolna Balog"
        },
        "effectiveDateTime": "2016-05-04T13:34:16Z",
        "specimen": {
          "reference": "urn:uuid:da37120c-dd7d-4c9b-b2fb-d2393ba461cf"
        }
      }
    },
    {
      "fullUrl": "urn:uuid:08512d53-006e-41cd-bd5b-c54d62bb711d",
      "resource": {
        "resourceType": "Observation",
        "id": "08512d53-006e-41cd-bd5b-c54d62bb711d",
        "meta": {
          "profile": [
            "http://hl7.eu/fhir/laboratory/StructureDefinition/Observation-resultslab-eu-lab"
          ]
        },
        "performer": [
          {
            "display": "The Central European Lab"
          }
        ],
        "category": [
          {
            "coding": [
              {
                "system": "http://terminology.hl7.org/CodeSystem/observation-category",
                "code": "laboratory"
              }
            ]
          }
        ],
        "code": {
          "coding": [
            {
              "code": "2339-0",
              "system": "http://loinc.org",
              "display": "Glucose [Mass/volume] in Blood"
            }
          ],
          "text": "Glucose [Mass/volume] in Blood"
        },
        "valueQuantity": {
          "system": "http://unitsofmeasure.org",
          "value": 92,
          "unit": "mg/dL",
          "code": "mg/dL"
        },
        "referenceRange": [
          {
            "low": {
              "value": 70,
              "code": "mg/dL",
              "system": "http://unitsofmeasure.org"
            }
          },
          {
            "high": {
              "value": 140,
              "code": "mg/dL",
              "system": "http://unitsofmeasure.org"
            }
          }
        ],
        "text": {
          "status": "generated",
          "div": "<div xmlns=\"http://www.w3.org/1999/xhtml\"><table class=\"hl7__eu__lab__report\"><tr><th>Test</th><th>04-May-2016</th><th>Reference&#xA0;Range</th><th>Unit</th></tr><tr><td>Glucose [Mass/volume] in Blood</td><td>92.0</td><td>70 - 140</td><td></td><td>mg/dL</td></tr></table></div>"
        },
        "status": "final",
        "subject": {
          "reference": "urn:uuid:f67b71a7-0251-4038-9da8-b577f9bd4885",
          "display": "Magdolna Balog"
        },
        "effectiveDateTime": "2016-05-04T13:34:16Z",
        "specimen": {
          "reference": "urn:uuid:da37120c-dd7d-4c9b-b2fb-d2393ba461cf"
        }
      }
    },
    {
      "fullUrl": "urn:uuid:7fa498cc-1985-48ab-b728-cd68658ce79a",
      "resource": {
        "resourceType": "Observation",
        "id": "7fa498cc-1985-48ab-b728-cd68658ce79a",
        "meta": {
          "profile": [
            "http://hl7.eu/fhir/laboratory/StructureDefinition/Observation-resultslab-eu-lab"
          ]
        },
        "performer": [
          {
            "display": "The Central European Lab"
          }
        ],
        "category": [
          {
            "coding": [
              {
                "system": "http://terminology.hl7.org/CodeSystem/observation-category",
                "code": "laboratory"
              }
            ]
          }
        ],
        "code": {
          "coding": [
            {
              "code": "6299-2",
              "system": "http://loinc.org",
              "display": "Urea nitrogen [Mass/volume] in Blood"
            }
          ],
          "text": "Urea nitrogen [Mass/volume] in Blood"
        },
        "valueQuantity": {
          "system": "http://unitsofmeasure.org",
          "value": 7.9,
          "unit": "mg/dL",
          "code": "mg/dL"
        },
        "referenceRange": [
          {
            "low": {
              "value": 7,
              "code": "mg/dL",
              "system": "http://unitsofmeasure.org"
            }
          },
          {
            "high": {
              "value": 20,
              "code": "mg/dL",
              "system": "http://unitsofmeasure.org"
            }
          }
        ],
        "text": {
          "status": "generated",
          "div": "<div xmlns=\"http://www.w3.org/1999/xhtml\"><table class=\"hl7__eu__lab__report\"><tr><th>Test</th><th>04-May-2016</th><th>Reference&#xA0;Range</th><th>Unit</th></tr><tr><td>Urea nitrogen [Mass/volume] in Blood</td><td>7.9</td><td>7 - 20</td><td></td><td>mg/dL</td></tr></table></div>"
        },
        "status": "final",
        "subject": {
          "reference": "urn:uuid:f67b71a7-0251-4038-9da8-b577f9bd4885",
          "display": "Magdolna Balog"
        },
        "effectiveDateTime": "2016-05-04T13:34:16Z",
        "specimen": {
          "reference": "urn:uuid:da37120c-dd7d-4c9b-b2fb-d2393ba461cf"
        }
      }
    },
    {
      "fullUrl": "urn:uuid:619a71fd-4cd2-4fd9-aaeb-119d070208fc",
      "resource": {
        "resourceType": "Observation",
        "id": "619a71fd-4cd2-4fd9-aaeb-119d070208fc",
        "meta": {
          "profile": [
            "http://hl7.eu/fhir/laboratory/StructureDefinition/Observation-resultslab-eu-lab"
          ]
        },
        "performer": [
          {
            "display": "The Central European Lab"
          }
        ],
        "category": [
          {
            "coding": [
              {
                "system": "http://terminology.hl7.org/CodeSystem/observation-category",
                "code": "laboratory"
              }
            ]
          }
        ],
        "code": {
          "coding": [
            {
              "code": "38483-4",
              "system": "http://loinc.org",
              "display": "Creatinine [Mass/volume] in Blood"
            }
          ],
          "text": "Creatinine [Mass/volume] in Blood"
        },
        "valueQuantity": {
          "system": "http://unitsofmeasure.org",
          "value": 0.6,
          "unit": "mg/dL",
          "code": "mg/dL"
        },
        "referenceRange": [
          {
            "low": {
              "value": 0.6,
              "code": "mg/dL",
              "system": "http://unitsofmeasure.org"
            }
          },
          {
            "high": {
              "value": 1.1,
              "code": "mg/dL",
              "system": "http://unitsofmeasure.org"
            }
          }
        ],
        "text": {
          "status": "generated",
          "div": "<div xmlns=\"http://www.w3.org/1999/xhtml\"><table class=\"hl7__eu__lab__report\"><tr><th>Test</th><th>04-May-2016</th><th>Reference&#xA0;Range</th><th>Unit</th></tr><tr><td>Creatinine [Mass/volume] in Blood</td><td>0.6</td><td>0.6 - 1.1</td><td></td><td>mg/dL</td></tr></table></div>"
        },
        "status": "final",
        "subject": {
          "reference": "urn:uuid:f67b71a7-0251-4038-9da8-b577f9bd4885",
          "display": "Magdolna Balog"
        },
        "effectiveDateTime": "2016-05-04T13:34:16Z",
        "specimen": {
          "reference": "urn:uuid:da37120c-dd7d-4c9b-b2fb-d2393ba461cf"
        }
      }
    },
    {
      "fullUrl": "urn:uuid:44889424-50f8-4af3-9e1b-176b158d6871",
      "resource": {
        "resourceType": "Observation",
        "id": "44889424-50f8-4af3-9e1b-176b158d6871",
        "meta": {
          "profile": [
            "http://hl7.eu/fhir/laboratory/StructureDefinition/Observation-resultslab-eu-lab"
          ]
        },
        "performer": [
          {
            "display": "The Central European Lab"
          }
        ],
        "category": [
          {
            "coding": [
              {
                "system": "http://terminology.hl7.org/CodeSystem/observation-category",
                "code": "laboratory"
              }
            ]
          }
        ],
        "code": {
          "coding": [
            {
              "code": "49765-1",
              "system": "http://loinc.org",
              "display": "Calcium [Mass/volume] in Blood"
            }
          ],
          "text": "Calcium [Mass/volume] in Blood"
        },
        "valueQuantity": {
          "system": "http://unitsofmeasure.org",
          "value": 10.2,
          "unit": "mg/dL",
          "code": "mg/dL"
        },
        "referenceRange": [
          {
            "low": {
              "value": 8.5,
              "code": "mg/dL",
              "system": "http://unitsofmeasure.org"
            }
          },
          {
            "high": {
              "value": 10.4,
              "code": "mg/dL",
              "system": "http://unitsofmeasure.org"
            }
          }
        ],
        "text": {
          "status": "generated",
          "div": "<div xmlns=\"http://www.w3.org/1999/xhtml\"><table class=\"hl7__eu__lab__report\"><tr><th>Test</th><th>04-May-2016</th><th>Reference&#xA0;Range</th><th>Unit</th></tr><tr><td>Calcium [Mass/volume] in Blood</td><td>10.2</td><td>8.5 - 10.4</td><td></td><td>mg/dL</td></tr></table></div>"
        },
        "status": "final",
        "subject": {
          "reference": "urn:uuid:f67b71a7-0251-4038-9da8-b577f9bd4885",
          "display": "Magdolna Balog"
        },
        "effectiveDateTime": "2016-05-04T13:34:16Z",
        "specimen": {
          "reference": "urn:uuid:da37120c-dd7d-4c9b-b2fb-d2393ba461cf"
        }
      }
    },
    {
      "fullUrl": "urn:uuid:a51f5309-1fad-4ba6-9073-3b4f8098e637",
      "resource": {
        "resourceType": "Observation",
        "id": "a51f5309-1fad-4ba6-9073-3b4f8098e637",
        "meta": {
          "profile": [
            "http://hl7.eu/fhir/laboratory/StructureDefinition/Observation-resultslab-eu-lab"
          ]
        },
        "performer": [
          {
            "display": "The Central European Lab"
          }
        ],
        "category": [
          {
            "coding": [
              {
                "system": "http://terminology.hl7.org/CodeSystem/observation-category",
                "code": "laboratory"
              }
            ]
          }
        ],
        "code": {
          "coding": [
            {
              "code": "2947-0",
              "system": "http://loinc.org",
              "display": "Sodium [Moles/volume] in Blood"
            }
          ],
          "text": "Sodium [Moles/volume] in Blood"
        },
        "valueQuantity": {
          "system": "http://unitsofmeasure.org",
          "value": 139,
          "unit": "mmol/L",
          "code": "mmol/L"
        },
        "referenceRange": [
          {
            "low": {
              "value": 135,
              "code": "mmol/L",
              "system": "http://unitsofmeasure.org"
            }
          },
          {
            "high": {
              "value": 145,
              "code": "mmol/L",
              "system": "http://unitsofmeasure.org"
            }
          }
        ],
        "text": {
          "status": "generated",
          "div": "<div xmlns=\"http://www.w3.org/1999/xhtml\"><table class=\"hl7__eu__lab__report\"><tr><th>Test</th><th>04-May-2016</th><th>Reference&#xA0;Range</th><th>Unit</th></tr><tr><td>Sodium [Moles/volume] in Blood</td><td>139.0</td><td>135 - 145</td><td></td><td>mmol/L</td></tr></table></div>"
        },
        "status": "final",
        "subject": {
          "reference": "urn:uuid:f67b71a7-0251-4038-9da8-b577f9bd4885",
          "display": "Magdolna Balog"
        },
        "effectiveDateTime": "2016-05-04T13:34:16Z",
        "specimen": {
          "reference": "urn:uuid:da37120c-dd7d-4c9b-b2fb-d2393ba461cf"
        }
      }
    },
    {
      "fullUrl": "urn:uuid:194c5b7c-e201-42e7-a491-dde0c134d802",
      "resource": {
        "resourceType": "Observation",
        "id": "194c5b7c-e201-42e7-a491-dde0c134d802",
        "meta": {
          "profile": [
            "http://hl7.eu/fhir/laboratory/StructureDefinition/Observation-resultslab-eu-lab"
          ]
        },
        "performer": [
          {
            "display": "The Central European Lab"
          }
        ],
        "category": [
          {
            "coding": [
              {
                "system": "http://terminology.hl7.org/CodeSystem/observation-category",
                "code": "laboratory"
              }
            ]
          }
        ],
        "code": {
          "coding": [
            {
              "code": "6298-4",
              "system": "http://loinc.org",
              "display": "Potassium [Moles/volume] in Blood"
            }
          ],
          "text": "Potassium [Moles/volume] in Blood"
        },
        "valueQuantity": {
          "system": "http://unitsofmeasure.org",
          "value": 4.9,
          "unit": "mmol/L",
          "code": "mmol/L"
        },
        "referenceRange": [
          {
            "low": {
              "value": 3.5,
              "code": "mmol/L",
              "system": "http://unitsofmeasure.org"
            }
          },
          {
            "high": {
              "value": 5.1,
              "code": "mmol/L",
              "system": "http://unitsofmeasure.org"
            }
          }
        ],
        "text": {
          "status": "generated",
          "div": "<div xmlns=\"http://www.w3.org/1999/xhtml\"><table class=\"hl7__eu__lab__report\"><tr><th>Test</th><th>04-May-2016</th><th>Reference&#xA0;Range</th><th>Unit</th></tr><tr><td>Potassium [Moles/volume] in Blood</td><td>4.9</td><td>3.5 - 5.1</td><td></td><td>mmol/L</td></tr></table></div>"
        },
        "status": "final",
        "subject": {
          "reference": "urn:uuid:f67b71a7-0251-4038-9da8-b577f9bd4885",
          "display": "Magdolna Balog"
        },
        "effectiveDateTime": "2016-05-04T13:34:16Z",
        "specimen": {
          "reference": "urn:uuid:da37120c-dd7d-4c9b-b2fb-d2393ba461cf"
        }
      }
    },
    {
      "fullUrl": "urn:uuid:348adf5f-de4d-4096-9f78-bee78562bd93",
      "resource": {
        "resourceType": "Observation",
        "id": "348adf5f-de4d-4096-9f78-bee78562bd93",
        "meta": {
          "profile": [
            "http://hl7.eu/fhir/laboratory/StructureDefinition/Observation-resultslab-eu-lab"
          ]
        },
        "performer": [
          {
            "display": "The Central European Lab"
          }
        ],
        "category": [
          {
            "coding": [
              {
                "system": "http://terminology.hl7.org/CodeSystem/observation-category",
                "code": "laboratory"
              }
            ]
          }
        ],
        "code": {
          "coding": [
            {
              "code": "2069-3",
              "system": "http://loinc.org",
              "display": "Chloride [Moles/volume] in Blood"
            }
          ],
          "text": "Chloride [Moles/volume] in Blood"
        },
        "valueQuantity": {
          "system": "http://unitsofmeasure.org",
          "value": 104,
          "unit": "mmol/L",
          "code": "mmol/L"
        },
        "referenceRange": [
          {
            "low": {
              "value": 98,
              "code": "mmol/L",
              "system": "http://unitsofmeasure.org"
            }
          },
          {
            "high": {
              "value": 107,
              "code": "mmol/L",
              "system": "http://unitsofmeasure.org"
            }
          }
        ],
        "text": {
          "status": "generated",
          "div": "<div xmlns=\"http://www.w3.org/1999/xhtml\"><table class=\"hl7__eu__lab__report\"><tr><th>Test</th><th>04-May-2016</th><th>Reference&#xA0;Range</th><th>Unit</th></tr><tr><td>Chloride [Moles/volume] in Blood</td><td>104.0</td><td>98 - 107</td><td></td><td>mmol/L</td></tr></table></div>"
        },
        "status": "final",
        "subject": {
          "reference": "urn:uuid:f67b71a7-0251-4038-9da8-b577f9bd4885",
          "display": "Magdolna Balog"
        },
        "effectiveDateTime": "2016-05-04T13:34:16Z",
        "specimen": {
          "reference": "urn:uuid:da37120c-dd7d-4c9b-b2fb-d2393ba461cf"
        }
      }
    },
    {
      "fullUrl": "urn:uuid:e2180968-a50a-4a80-ba7c-fc034b079736",
      "resource": {
        "resourceType": "Observation",
        "id": "e2180968-a50a-4a80-ba7c-fc034b079736",
        "meta": {
          "profile": [
            "http://hl7.eu/fhir/laboratory/StructureDefinition/Observation-resultslab-eu-lab"
          ]
        },
        "performer": [
          {
            "display": "The Central European Lab"
          }
        ],
        "category": [
          {
            "coding": [
              {
                "system": "http://terminology.hl7.org/CodeSystem/observation-category",
                "code": "laboratory"
              }
            ]
          }
        ],
        "code": {
          "coding": [
            {
              "code": "20565-8",
              "system": "http://loinc.org",
              "display": "Carbon dioxide, total [Moles/volume] in Blood"
            }
          ],
          "text": "Carbon dioxide, total [Moles/volume] in Blood"
        },
        "valueQuantity": {
          "system": "http://unitsofmeasure.org",
          "value": 27,
          "unit": "mmol/L",
          "code": "mmol/L"
        },
        "referenceRange": [
          {
            "low": {
              "value": 22,
              "code": "mmol/L",
              "system": "http://unitsofmeasure.org"
            }
          },
          {
            "high": {
              "value": 29,
              "code": "mmol/L",
              "system": "http://unitsofmeasure.org"
            }
          }
        ],
        "text": {
          "status": "generated",
          "div": "<div xmlns=\"http://www.w3.org/1999/xhtml\"><table class=\"hl7__eu__lab__report\"><tr><th>Test</th><th>04-May-2016</th><th>Reference&#xA0;Range</th><th>Unit</th></tr><tr><td>Carbon dioxide, total [Moles/volume] in Blood</td><td>27.0</td><td>22 - 29</td><td></td><td>mmol/L</td></tr></table></div>"
        },
        "status": "final",
        "subject": {
          "reference": "urn:uuid:f67b71a7-0251-4038-9da8-b577f9bd4885",
          "display": "Magdolna Balog"
        },
        "effectiveDateTime": "2016-05-04T13:34:16Z",
        "specimen": {
          "reference": "urn:uuid:da37120c-dd7d-4c9b-b2fb-d2393ba461cf"
        }
      }
    },
    {
      "fullUrl": "urn:uuid:676f1e08-3195-4a26-bda5-a243f7b0da8a",
      "resource": {
        "resourceType": "Observation",
        "id": "676f1e08-3195-4a26-bda5-a243f7b0da8a",
        "meta": {
          "profile": [
            "http://hl7.eu/fhir/laboratory/StructureDefinition/Observation-resultslab-eu-lab"
          ]
        },
        "performer": [
          {
            "display": "The Central European Lab"
          }
        ],
        "category": [
          {
            "coding": [
              {
                "system": "http://terminology.hl7.org/CodeSystem/observation-category",
                "code": "laboratory"
              }
            ]
          }
        ],
        "code": {
          "coding": [
            {
              "code": "6690-2",
              "system": "http://loinc.org",
              "display": "Leukocytes [#/volume] in Blood by Automated count"
            }
          ],
          "text": "Leukocytes [#/volume] in Blood by Automated count"
        },
        "valueQuantity": {
          "system": "http://unitsofmeasure.org",
          "value": 3.9,
          "unit": "10*3/uL",
          "code": "10*3/uL"
        },
        "referenceRange": [
          {
            "low": {
              "value": 4,
              "code": "10*3/uL",
              "system": "http://unitsofmeasure.org"
            }
          },
          {
            "high": {
              "value": 11,
              "code": "10*3/uL",
              "system": "http://unitsofmeasure.org"
            }
          }
        ],
        "interpretation": [
          {
            "coding": [
              {
                "code": "L",
                "system": "http://terminology.hl7.org/CodeSystem/v3-ObservationInterpretation",
                "display": "Low"
              }
            ]
          }
        ],
        "text": {
          "status": "generated",
          "div": "<div xmlns=\"http://www.w3.org/1999/xhtml\"><table class=\"hl7__eu__lab__report\"><tr><th>Test</th><th>04-May-2016</th><th>Reference&#xA0;Range</th><th>Unit</th></tr><tr><td>Leukocytes [#/volume] in Blood by Automated count</td><td>3.9</td><td>4 - 11</td><td>L</td><td>10*3/uL</td></tr></table></div>"
        },
        "status": "final",
        "subject": {
          "reference": "urn:uuid:f67b71a7-0251-4038-9da8-b577f9bd4885",
          "display": "Magdolna Balog"
        },
        "effectiveDateTime": "2016-05-04T13:34:16Z",
        "specimen": {
          "reference": "urn:uuid:da37120c-dd7d-4c9b-b2fb-d2393ba461cf"
        }
      }
    },
    {
      "fullUrl": "urn:uuid:3690bff9-7ec4-471a-b2b9-2a9b03d57a4e",
      "resource": {
        "resourceType": "Observation",
        "id": "3690bff9-7ec4-471a-b2b9-2a9b03d57a4e",
        "meta": {
          "profile": [
            "http://hl7.eu/fhir/laboratory/StructureDefinition/Observation-resultslab-eu-lab"
          ]
        },
        "performer": [
          {
            "display": "The Central European Lab"
          }
        ],
        "category": [
          {
            "coding": [
              {
                "system": "http://terminology.hl7.org/CodeSystem/observation-category",
                "code": "laboratory"
              }
            ]
          }
        ],
        "code": {
          "coding": [
            {
              "code": "789-8",
              "system": "http://loinc.org",
              "display": "Erythrocytes [#/volume] in Blood by Automated count"
            }
          ],
          "text": "Erythrocytes [#/volume] in Blood by Automated count"
        },
        "valueQuantity": {
          "system": "http://unitsofmeasure.org",
          "value": 4.7,
          "unit": "10*6/uL",
          "code": "10*6/uL"
        },
        "referenceRange": [
          {
            "low": {
              "value": 4.2,
              "code": "10*6/uL",
              "system": "http://unitsofmeasure.org"
            }
          },
          {
            "high": {
              "value": 5.8,
              "code": "10*6/uL",
              "system": "http://unitsofmeasure.org"
            }
          }
        ],
        "text": {
          "status": "generated",
          "div": "<div xmlns=\"http://www.w3.org/1999/xhtml\"><table class=\"hl7__eu__lab__report\"><tr><th>Test</th><th>04-May-2016</th><th>Reference&#xA0;Range</th><th>Unit</th></tr><tr><td>Erythrocytes [#/volume] in Blood by Automated count</td><td>4.7</td><td>4.2 - 5.8</td><td></td><td>10*6/uL</td></tr></table></div>"
        },
        "status": "final",
        "subject": {
          "reference": "urn:uuid:f67b71a7-0251-4038-9da8-b577f9bd4885",
          "display": "Magdolna Balog"
        },
        "effectiveDateTime": "2016-05-04T13:34:16Z",
        "specimen": {
          "reference": "urn:uuid:da37120c-dd7d-4c9b-b2fb-d2393ba461cf"
        }
      }
    },
    {
      "fullUrl": "urn:uuid:acb114f0-bb90-41ab-9317-024daad823b4",
      "resource": {
        "resourceType": "Observation",
        "id": "acb114f0-bb90-41ab-9317-024daad823b4",
        "meta": {
          "profile": [
            "http://hl7.eu/fhir/laboratory/StructureDefinition/Observation-resultslab-eu-lab"
          ]
        },
        "performer": [
          {
            "display": "The Central European Lab"
          }
        ],
        "category": [
          {
            "coding": [
              {
                "system": "http://terminology.hl7.org/CodeSystem/observation-category",
                "code": "laboratory"
              }
            ]
          }
        ],
        "code": {
          "coding": [
            {
              "code": "718-7",
              "system": "http://loinc.org",
              "display": "Hemoglobin [Mass/volume] in Blood"
            }
          ],
          "text": "Hemoglobin [Mass/volume] in Blood"
        },
        "valueQuantity": {
          "system": "http://unitsofmeasure.org",
          "value": 12.7,
          "unit": "g/dL",
          "code": "g/dL"
        },
        "referenceRange": [
          {
            "low": {
              "value": 12,
              "code": "g/dL",
              "system": "http://unitsofmeasure.org"
            }
          },
          {
            "high": {
              "value": 16,
              "code": "g/dL",
              "system": "http://unitsofmeasure.org"
            }
          }
        ],
        "text": {
          "status": "generated",
          "div": "<div xmlns=\"http://www.w3.org/1999/xhtml\"><table class=\"hl7__eu__lab__report\"><tr><th>Test</th><th>04-May-2016</th><th>Reference&#xA0;Range</th><th>Unit</th></tr><tr><td>Hemoglobin [Mass/volume] in Blood</td><td>12.7</td><td>12 - 16</td><td></td><td>g/dL</td></tr></table></div>"
        },
        "status": "final",
        "subject": {
          "reference": "urn:uuid:f67b71a7-0251-4038-9da8-b577f9bd4885",
          "display": "Magdolna Balog"
        },
        "effectiveDateTime": "2016-05-04T13:34:16Z",
        "specimen": {
          "reference": "urn:uuid:da37120c-dd7d-4c9b-b2fb-d2393ba461cf"
        }
      }
    },
    {
      "fullUrl": "urn:uuid:3f804228-fb48-4cbb-8c2c-1a105b8ddac5",
      "resource": {
        "resourceType": "Observation",
        "id": "3f804228-fb48-4cbb-8c2c-1a105b8ddac5",
        "meta": {
          "profile": [
            "http://hl7.eu/fhir/laboratory/StructureDefinition/Observation-resultslab-eu-lab"
          ]
        },
        "performer": [
          {
            "display": "The Central European Lab"
          }
        ],
        "category": [
          {
            "coding": [
              {
                "system": "http://terminology.hl7.org/CodeSystem/observation-category",
                "code": "laboratory"
              }
            ]
          }
        ],
        "code": {
          "coding": [
            {
              "code": "4544-3",
              "system": "http://loinc.org",
              "display": "Hematocrit [Volume Fraction] of Blood by Automated count"
            }
          ],
          "text": "Hematocrit [Volume Fraction] of Blood by Automated count"
        },
        "valueQuantity": {
          "system": "http://unitsofmeasure.org",
          "value": 38,
          "unit": "%",
          "code": "%"
        },
        "referenceRange": [
          {
            "low": {
              "value": 36,
              "code": "%",
              "system": "http://unitsofmeasure.org"
            }
          },
          {
            "high": {
              "value": 48,
              "code": "%",
              "system": "http://unitsofmeasure.org"
            }
          }
        ],
        "text": {
          "status": "generated",
          "div": "<div xmlns=\"http://www.w3.org/1999/xhtml\"><table class=\"hl7__eu__lab__report\"><tr><th>Test</th><th>04-May-2016</th><th>Reference&#xA0;Range</th><th>Unit</th></tr><tr><td>Hematocrit [Volume Fraction] of Blood by Automated count</td><td>38.0</td><td>36 - 48</td><td></td><td>%</td></tr></table></div>"
        },
        "status": "final",
        "subject": {
          "reference": "urn:uuid:f67b71a7-0251-4038-9da8-b577f9bd4885",
          "display": "Magdolna Balog"
        },
        "effectiveDateTime": "2016-05-04T13:34:16Z",
        "specimen": {
          "reference": "urn:uuid:da37120c-dd7d-4c9b-b2fb-d2393ba461cf"
        }
      }
    },
    {
      "fullUrl": "urn:uuid:6684570e-fbb3-4174-9100-80ed185fefdd",
      "resource": {
        "resourceType": "Observation",
        "id": "6684570e-fbb3-4174-9100-80ed185fefdd",
        "meta": {
          "profile": [
            "http://hl7.eu/fhir/laboratory/StructureDefinition/Observation-resultslab-eu-lab"
          ]
        },
        "performer": [
          {
            "display": "The Central European Lab"
          }
        ],
        "category": [
          {
            "coding": [
              {
                "system": "http://terminology.hl7.org/CodeSystem/observation-category",
                "code": "laboratory"
              }
            ]
          }
        ],
        "code": {
          "coding": [
            {
              "code": "787-2",
              "system": "http://loinc.org",
              "display": "MCV [Entitic volume] by Automated count"
            }
          ],
          "text": "MCV [Entitic volume] by Automated count"
        },
        "valueQuantity": {
          "system": "http://unitsofmeasure.org",
          "value": 93.5,
          "unit": "fL",
          "code": "fL"
        },
        "referenceRange": [
          {
            "low": {
              "value": 78,
              "code": "fL",
              "system": "http://unitsofmeasure.org"
            }
          },
          {
            "high": {
              "value": 98,
              "code": "fL",
              "system": "http://unitsofmeasure.org"
            }
          }
        ],
        "text": {
          "status": "generated",
          "div": "<div xmlns=\"http://www.w3.org/1999/xhtml\"><table class=\"hl7__eu__lab__report\"><tr><th>Test</th><th>04-May-2016</th><th>Reference&#xA0;Range</th><th>Unit</th></tr><tr><td>MCV [Entitic volume] by Automated count</td><td>93.5</td><td>78 - 98</td><td></td><td>fL</td></tr></table></div>"
        },
        "status": "final",
        "subject": {
          "reference": "urn:uuid:f67b71a7-0251-4038-9da8-b577f9bd4885",
          "display": "Magdolna Balog"
        },
        "effectiveDateTime": "2016-05-04T13:34:16Z",
        "specimen": {
          "reference": "urn:uuid:da37120c-dd7d-4c9b-b2fb-d2393ba461cf"
        }
      }
    },
    {
      "fullUrl": "urn:uuid:b5fa3929-10c4-43b0-9fd8-78e4e615a9c5",
      "resource": {
        "resourceType": "Observation",
        "id": "b5fa3929-10c4-43b0-9fd8-78e4e615a9c5",
        "meta": {
          "profile": [
            "http://hl7.eu/fhir/laboratory/StructureDefinition/Observation-resultslab-eu-lab"
          ]
        },
        "performer": [
          {
            "display": "The Central European Lab"
          }
        ],
        "category": [
          {
            "coding": [
              {
                "system": "http://terminology.hl7.org/CodeSystem/observation-category",
                "code": "laboratory"
              }
            ]
          }
        ],
        "code": {
          "coding": [
            {
              "code": "785-6",
              "system": "http://loinc.org",
              "display": "MCH [Entitic mass] by Automated count"
            }
          ],
          "text": "MCH [Entitic mass] by Automated count"
        },
        "valueQuantity": {
          "system": "http://unitsofmeasure.org",
          "value": 29.8,
          "unit": "pg",
          "code": "pg"
        },
        "referenceRange": [
          {
            "low": {
              "value": 27,
              "code": "pg",
              "system": "http://unitsofmeasure.org"
            }
          },
          {
            "high": {
              "value": 34.5,
              "code": "pg",
              "system": "http://unitsofmeasure.org"
            }
          }
        ],
        "text": {
          "status": "generated",
          "div": "<div xmlns=\"http://www.w3.org/1999/xhtml\"><table class=\"hl7__eu__lab__report\"><tr><th>Test</th><th>04-May-2016</th><th>Reference&#xA0;Range</th><th>Unit</th></tr><tr><td>MCH [Entitic mass] by Automated count</td><td>29.8</td><td>27 - 34.5</td><td></td><td>pg</td></tr></table></div>"
        },
        "status": "final",
        "subject": {
          "reference": "urn:uuid:f67b71a7-0251-4038-9da8-b577f9bd4885",
          "display": "Magdolna Balog"
        },
        "effectiveDateTime": "2016-05-04T13:34:16Z",
        "specimen": {
          "reference": "urn:uuid:da37120c-dd7d-4c9b-b2fb-d2393ba461cf"
        }
      }
    },
    {
      "fullUrl": "urn:uuid:5acb9b15-d65f-4155-975a-0f2247b6b85a",
      "resource": {
        "resourceType": "Observation",
        "id": "5acb9b15-d65f-4155-975a-0f2247b6b85a",
        "meta": {
          "profile": [
            "http://hl7.eu/fhir/laboratory/StructureDefinition/Observation-resultslab-eu-lab"
          ]
        },
        "performer": [
          {
            "display": "The Central European Lab"
          }
        ],
        "category": [
          {
            "coding": [
              {
                "system": "http://terminology.hl7.org/CodeSystem/observation-category",
                "code": "laboratory"
              }
            ]
          }
        ],
        "code": {
          "coding": [
            {
              "code": "786-4",
              "system": "http://loinc.org",
              "display": "MCHC [Mass/volume] by Automated count"
            }
          ],
          "text": "MCHC [Mass/volume] by Automated count"
        },
        "valueQuantity": {
          "system": "http://unitsofmeasure.org",
          "value": 35.4,
          "unit": "g/dL",
          "code": "g/dL"
        },
        "referenceRange": [
          {
            "low": {
              "value": 31.5,
              "code": "g/dL",
              "system": "http://unitsofmeasure.org"
            }
          },
          {
            "high": {
              "value": 35.5,
              "code": "g/dL",
              "system": "http://unitsofmeasure.org"
            }
          }
        ],
        "text": {
          "status": "generated",
          "div": "<div xmlns=\"http://www.w3.org/1999/xhtml\"><table class=\"hl7__eu__lab__report\"><tr><th>Test</th><th>04-May-2016</th><th>Reference&#xA0;Range</th><th>Unit</th></tr><tr><td>MCHC [Mass/volume] by Automated count</td><td>35.4</td><td>31.5 - 35.5</td><td></td><td>g/dL</td></tr></table></div>"
        },
        "status": "final",
        "subject": {
          "reference": "urn:uuid:f67b71a7-0251-4038-9da8-b577f9bd4885",
          "display": "Magdolna Balog"
        },
        "effectiveDateTime": "2016-05-04T13:34:16Z",
        "specimen": {
          "reference": "urn:uuid:da37120c-dd7d-4c9b-b2fb-d2393ba461cf"
        }
      }
    },
    {
      "fullUrl": "urn:uuid:c3e427f0-19bb-404f-9da3-6c891a974dcb",
      "resource": {
        "resourceType": "Observation",
        "id": "c3e427f0-19bb-404f-9da3-6c891a974dcb",
        "meta": {
          "profile": [
            "http://hl7.eu/fhir/laboratory/StructureDefinition/Observation-resultslab-eu-lab"
          ]
        },
        "performer": [
          {
            "display": "The Central European Lab"
          }
        ],
        "category": [
          {
            "coding": [
              {
                "system": "http://terminology.hl7.org/CodeSystem/observation-category",
                "code": "laboratory"
              }
            ]
          }
        ],
        "code": {
          "coding": [
            {
              "code": "21000-5",
              "system": "http://loinc.org",
              "display": "Erythrocyte distribution width [Entitic volume] by Automated count"
            }
          ],
          "text": "Erythrocyte distribution width [Entitic volume] by Automated count"
        },
        "valueQuantity": {
          "system": "http://unitsofmeasure.org",
          "value": 39.1,
          "unit": "fL",
          "code": "fL"
        },
        "referenceRange": [
          {
            "low": {
              "value": 36,
              "code": "fL",
              "system": "http://unitsofmeasure.org"
            }
          },
          {
            "high": {
              "value": 56,
              "code": "fL",
              "system": "http://unitsofmeasure.org"
            }
          }
        ],
        "text": {
          "status": "generated",
          "div": "<div xmlns=\"http://www.w3.org/1999/xhtml\"><table class=\"hl7__eu__lab__report\"><tr><th>Test</th><th>04-May-2016</th><th>Reference&#xA0;Range</th><th>Unit</th></tr><tr><td>Erythrocyte distribution width [Entitic volume] by Automated count</td><td>39.1</td><td>36 - 56</td><td></td><td>fL</td></tr></table></div>"
        },
        "status": "final",
        "subject": {
          "reference": "urn:uuid:f67b71a7-0251-4038-9da8-b577f9bd4885",
          "display": "Magdolna Balog"
        },
        "effectiveDateTime": "2016-05-04T13:34:16Z",
        "specimen": {
          "reference": "urn:uuid:da37120c-dd7d-4c9b-b2fb-d2393ba461cf"
        }
      }
    },
    {
      "fullUrl": "urn:uuid:7f3b355e-2a99-4d10-9834-5e93819cc1ee",
      "resource": {
        "resourceType": "Observation",
        "id": "7f3b355e-2a99-4d10-9834-5e93819cc1ee",
        "meta": {
          "profile": [
            "http://hl7.eu/fhir/laboratory/StructureDefinition/Observation-resultslab-eu-lab"
          ]
        },
        "performer": [
          {
            "display": "The Central European Lab"
          }
        ],
        "category": [
          {
            "coding": [
              {
                "system": "http://terminology.hl7.org/CodeSystem/observation-category",
                "code": "laboratory"
              }
            ]
          }
        ],
        "code": {
          "coding": [
            {
              "code": "777-3",
              "system": "http://loinc.org",
              "display": "Platelets [#/volume] in Blood by Automated count"
            }
          ],
          "text": "Platelets [#/volume] in Blood by Automated count"
        },
        "valueQuantity": {
          "system": "http://unitsofmeasure.org",
          "value": 168.1,
          "unit": "10*3/uL",
          "code": "10*3/uL"
        },
        "referenceRange": [
          {
            "low": {
              "value": 150,
              "code": "10*3/uL",
              "system": "http://unitsofmeasure.org"
            }
          },
          {
            "high": {
              "value": 350,
              "code": "10*3/uL",
              "system": "http://unitsofmeasure.org"
            }
          }
        ],
        "text": {
          "status": "generated",
          "div": "<div xmlns=\"http://www.w3.org/1999/xhtml\"><table class=\"hl7__eu__lab__report\"><tr><th>Test</th><th>04-May-2016</th><th>Reference&#xA0;Range</th><th>Unit</th></tr><tr><td>Platelets [#/volume] in Blood by Automated count</td><td>168.1</td><td>150 - 350</td><td></td><td>10*3/uL</td></tr></table></div>"
        },
        "status": "final",
        "subject": {
          "reference": "urn:uuid:f67b71a7-0251-4038-9da8-b577f9bd4885",
          "display": "Magdolna Balog"
        },
        "effectiveDateTime": "2016-05-04T13:34:16Z",
        "specimen": {
          "reference": "urn:uuid:da37120c-dd7d-4c9b-b2fb-d2393ba461cf"
        }
      }
    },
    {
      "fullUrl": "urn:uuid:590c4f48-8756-4aa0-98fa-e7512f766f3f",
      "resource": {
        "resourceType": "Observation",
        "id": "590c4f48-8756-4aa0-98fa-e7512f766f3f",
        "meta": {
          "profile": [
            "http://hl7.eu/fhir/laboratory/StructureDefinition/Observation-resultslab-eu-lab"
          ]
        },
        "performer": [
          {
            "display": "The Central European Lab"
          }
        ],
        "category": [
          {
            "coding": [
              {
                "system": "http://terminology.hl7.org/CodeSystem/observation-category",
                "code": "laboratory"
              }
            ]
          }
        ],
        "code": {
          "coding": [
            {
              "code": "32207-3",
              "system": "http://loinc.org",
              "display": "Platelet distribution width [Entitic volume] in Blood by Automated count"
            }
          ],
          "text": "Platelet distribution width [Entitic volume] in Blood by Automated count"
        },
        "valueQuantity": {
          "system": "http://unitsofmeasure.org",
          "value": 186.2,
          "unit": "fL",
          "code": "fL"
        },
        "referenceRange": [
          {
            "low": {
              "value": 13.4,
              "code": "fL",
              "system": "http://unitsofmeasure.org"
            }
          },
          {
            "high": {
              "value": 17.4,
              "code": "fL",
              "system": "http://unitsofmeasure.org"
            }
          }
        ],
        "interpretation": [
          {
            "coding": [
              {
                "code": "H",
                "system": "http://terminology.hl7.org/CodeSystem/v3-ObservationInterpretation",
                "display": "High"
              }
            ]
          }
        ],
        "text": {
          "status": "generated",
          "div": "<div xmlns=\"http://www.w3.org/1999/xhtml\"><table class=\"hl7__eu__lab__report\"><tr><th>Test</th><th>04-May-2016</th><th>Reference&#xA0;Range</th><th>Unit</th></tr><tr><td>Platelet distribution width [Entitic volume] in Blood by Automated count</td><td>186.2</td><td>13.4 - 17.4</td><td>H</td><td>fL</td></tr></table></div>"
        },
        "status": "final",
        "subject": {
          "reference": "urn:uuid:f67b71a7-0251-4038-9da8-b577f9bd4885",
          "display": "Magdolna Balog"
        },
        "effectiveDateTime": "2016-05-04T13:34:16Z",
        "specimen": {
          "reference": "urn:uuid:da37120c-dd7d-4c9b-b2fb-d2393ba461cf"
        }
      }
    },
    {
      "fullUrl": "urn:uuid:1e6043a1-2f61-440c-a5bd-0cd06a735dd6",
      "resource": {
        "resourceType": "Observation",
        "id": "1e6043a1-2f61-440c-a5bd-0cd06a735dd6",
        "meta": {
          "profile": [
            "http://hl7.eu/fhir/laboratory/StructureDefinition/Observation-resultslab-eu-lab"
          ]
        },
        "performer": [
          {
            "display": "The Central European Lab"
          }
        ],
        "category": [
          {
            "coding": [
              {
                "system": "http://terminology.hl7.org/CodeSystem/observation-category",
                "code": "laboratory"
              }
            ]
          }
        ],
        "code": {
          "coding": [
            {
              "code": "32623-1",
              "system": "http://loinc.org",
              "display": "Platelet mean volume [Entitic volume] in Blood by Automated count"
            }
          ],
          "text": "Platelet mean volume [Entitic volume] in Blood by Automated count"
        },
        "valueQuantity": {
          "system": "http://unitsofmeasure.org",
          "value": 10.7,
          "unit": "fL",
          "code": "fL"
        },
        "referenceRange": [
          {
            "low": {
              "value": 9.8,
              "code": "fL",
              "system": "http://unitsofmeasure.org"
            }
          },
          {
            "high": {
              "value": 13.8,
              "code": "fL",
              "system": "http://unitsofmeasure.org"
            }
          }
        ],
        "text": {
          "status": "generated",
          "div": "<div xmlns=\"http://www.w3.org/1999/xhtml\"><table class=\"hl7__eu__lab__report\"><tr><th>Test</th><th>04-May-2016</th><th>Reference&#xA0;Range</th><th>Unit</th></tr><tr><td>Platelet mean volume [Entitic volume] in Blood by Automated count</td><td>10.7</td><td>9.8 - 13.8</td><td></td><td>fL</td></tr></table></div>"
        },
        "status": "final",
        "subject": {
          "reference": "urn:uuid:f67b71a7-0251-4038-9da8-b577f9bd4885",
          "display": "Magdolna Balog"
        },
        "effectiveDateTime": "2016-05-04T13:34:16Z",
        "specimen": {
          "reference": "urn:uuid:da37120c-dd7d-4c9b-b2fb-d2393ba461cf"
        }
      }
    },
    {
      "fullUrl": "urn:uuid:44e7dfd2-a419-4803-9123-2cb4eb273a76",
      "resource": {
        "resourceType": "Device",
        "id": "44e7dfd2-a419-4803-9123-2cb4eb273a76",
        "deviceName": [
          {
            "name": "SYNDERAI Synthetic Generator",
            "type": "manufacturer-name"
          }
        ],
        "version": [
          {
            "value": "5.0"
          }
        ],
        "text": {
          "status": "generated",
          "div": "<div xmlns=\"http://www.w3.org/1999/xhtml\">SYNDERAI Synthetic Generator v5.0</div>"
        },
        "status": "active\"",
        "distinctIdentifier": "synderai-generator-50",
        "manufacturer": "SYNDERAI Project"
      }
    },
    {
      "fullUrl": "urn:uuid:fe2a5660-1c2e-4026-8b24-49d6b000fa9a",
      "resource": {
        "resourceType": "Provenance",
        "id": "fe2a5660-1c2e-4026-8b24-49d6b000fa9a",
        "target": [
          {
            "reference": "Patient/f67b71a7-0251-4038-9da8-b577f9bd4885"
          },
          {
            "reference": "Bundle/c075e150-6c95-4861-a30c-577b6ed4d693"
          },
          {
            "reference": "Composition/fb0bb19a-19f9-43b1-b516-651f6bb5f498"
          },
          {
            "reference": "PractitionerRole/f5fae65d-8c7f-4771-99fe-511106c7eddb"
          },
          {
            "reference": "Practitioner/fd8a8673-f41a-4d4b-a3ad-68d966128690"
          },
          {
            "reference": "PractitionerRole/42e511a3-b261-4774-8f7d-36a20aaece36"
          },
          {
            "reference": "Organization/d9026abe-b5ba-48d5-9b89-21aa73fa5bb2"
          }
        ],
        "activity": {
          "text": "Synthetic Example Data Generation"
        },
        "policy": [
          "https://synderai.net/synderai-synthetic-data-policy"
        ],
        "agent": [
          {
            "type": {
              "text": "author"
            },
            "who": {
              "reference": "Device/44e7dfd2-a419-4803-9123-2cb4eb273a76"
            }
          }
        ],
        "reason": [
          {
            "text": "Interoperability Testing and Training (non-clinical use)"
          }
        ],
        "text": {
          "status": "generated",
          "div": "<div xmlns=\"http://www.w3.org/1999/xhtml\">Provenance for SYNDERAI Synthetic Example Data Resource</div>"
        },
        "recorded": "2016-05-04T15:34:16Z"
      }
    },
    {
      "fullUrl": "urn:uuid:f5fae65d-8c7f-4771-99fe-511106c7eddb",
      "resource": {
        "resourceType": "PractitionerRole",
        "id": "f5fae65d-8c7f-4771-99fe-511106c7eddb",
        "meta": {
          "profile": [
            "http://hl7.eu/fhir/base/StructureDefinition/practitionerRole-eu"
          ]
        },
        "text": {
          "status": "generated",
          "div": "<div xmlns=\"http://www.w3.org/1999/xhtml\">Laboratory Role Id: f5fae65d-8c7f-4771-99fe-511106c7eddb</div>"
        },
        "practitioner": {
          "reference": "urn:uuid:fd8a8673-f41a-4d4b-a3ad-68d966128690"
        }
      }
    },
    {
      "fullUrl": "urn:uuid:fd8a8673-f41a-4d4b-a3ad-68d966128690",
      "resource": {
        "resourceType": "Practitioner",
        "id": "fd8a8673-f41a-4d4b-a3ad-68d966128690",
        "meta": {
          "profile": [
            "http://hl7.eu/fhir/base/StructureDefinition/practitioner-eu"
          ]
        },
        "identifier": [
          {
            "assigner": {
              "display": "HL7 Europe"
            },
            "system": "urn:oid:2.16.840.1.113883.2.51.999",
            "value": "8b967893-dbaa-433d-a3a8-8f4065540c15"
          }
        ],
        "name": [
          {
            "prefix": [
              "dr"
            ],
            "given": [
              "Ex"
            ],
            "family": "Ample"
          }
        ],
        "address": [
          {
            "line": [
              "Laboratoire Central Européenne",
              "Boulevard du Jardin Botanique 32"
            ],
            "postalCode": "1000",
            "city": "Brussels",
            "country": "Belgium"
          }
        ],
        "text": {
          "status": "generated",
          "div": "<div xmlns=\"http://www.w3.org/1999/xhtml\">Laboratory: Laboratoire Central Européenne, 1000 Brussels, Belgium</div>"
        }
      }
    }
  ],
  "type": "document",
  "timestamp": "2016-05-04T15:34:16Z"
}
