{
  "resourceType": "Bundle",
  "id": "df3eb9af-3c33-4d59-93f3-e61e6d93cd9d",
  "meta": {
    "profile": [
      "http://hl7.eu/fhir/laboratory/StructureDefinition/Bundle-eu-lab"
    ]
  },
  "identifier": {
    "assigner": {
      "display": "HL7 Europe"
    },
    "system": "urn:oid:2.16.840.1.113883.2.51.999",
    "value": "0eebf1f4-ad48-4020-b983-db0e9cf24f3c"
  },
  "entry": [
    {
      "fullUrl": "urn:uuid:41a1c5c1-7657-4d19-8d77-2d670efa102e",
      "resource": {
        "resourceType": "Composition",
        "id": "41a1c5c1-7657-4d19-8d77-2d670efa102e",
        "meta": {
          "profile": [
            "http://hl7.eu/fhir/laboratory/StructureDefinition/Composition-eu-lab"
          ]
        },
        "identifier": {
          "assigner": {
            "display": "HL7 Europe"
          },
          "system": "urn:oid:2.16.840.1.113883.2.51.999",
          "value": "9e55a2c7-94c6-4b31-a387-18f29679acc6"
        },
        "author": [
          {
            "reference": "urn:uuid:31c3b7dd-6318-4b38-9b22-eade1f9fc5a0"
          }
        ],
        "category": [
          {
            "coding": [
              {
                "code": "26436-6",
                "system": "http://loinc.org",
                "display": "Laboratory studies (set)"
              }
            ]
          }
        ],
        "type": {
          "coding": [
            {
              "code": "11502-2",
              "system": "http://loinc.org",
              "display": "Laboratory report"
            }
          ],
          "text": "Laboratory Report"
        },
        "section": [
          {
            "code": {
              "coding": [
                {
                  "code": "26436-6",
                  "system": "http://loinc.org",
                  "display": "Laboratory studies (set)"
                }
              ],
              "text": "Laboratory studies"
            },
            "section": [
              {
                "code": {
                  "coding": [
                    {
                      "code": "$18719-5",
                      "system": "http://loinc.org",
                      "display": "Chemistry studies (set)"
                    }
                  ],
                  "text": "Chemistry"
                },
                "entry": [
                  {
                    "reference": "urn:uuid:cbda1282-3479-4f52-bef9-cd19b907c063"
                  },
                  {
                    "reference": "urn:uuid:01ef78b0-f829-4ee2-bf27-bd8f6020df34"
                  },
                  {
                    "reference": "urn:uuid:d16aed02-37ad-4fbb-a713-21a08206a879"
                  },
                  {
                    "reference": "urn:uuid:04e9de12-ed4f-42a4-ba31-2b59501d663d"
                  },
                  {
                    "reference": "urn:uuid:8b575f6f-64f6-4e33-be02-8d0502c94021"
                  },
                  {
                    "reference": "urn:uuid:1976dbbe-a193-4ef6-84e4-8efa6e1d62be"
                  },
                  {
                    "reference": "urn:uuid:00a302f0-d5ee-4286-baff-fde9ea09df6a"
                  },
                  {
                    "reference": "urn:uuid:7a379590-04dd-4796-ba90-460a28ebcb87"
                  },
                  {
                    "reference": "urn:uuid:855acc5c-5797-4d18-aa90-83093fa6fa47"
                  }
                ],
                "text": {
                  "status": "generated",
                  "div": "<div xmlns=\"http://www.w3.org/1999/xhtml\"><h3>Chemistry</h3><table class=\"hl7__eu__lab__report\"><thead><tr><th>Test</th><th>17-MAR-2019</th><th>Reference&#xA0;Range</th><th>Unit</th></tr></thead><tbody><tr><td>Hemoglobin A1c/Hemoglobin.total in Blood</td><td><strong>6.2 H</strong></td><td>4.8 - 5.7</td><td>%</td></tr><tr><td>Glucose [Mass/volume] in Blood</td><td>75.7</td><td>70 - 140</td><td>mg/dL</td></tr><tr><td>Urea nitrogen [Mass/volume] in Blood</td><td>17.2</td><td>7 - 20</td><td>mg/dL</td></tr><tr><td>Creatinine [Mass/volume] in Blood</td><td>1.0</td><td>0.6 - 1.2</td><td>mg/dL</td></tr><tr><td>Calcium [Mass/volume] in Blood</td><td>9.7</td><td>8.5 - 10.4</td><td>mg/dL</td></tr><tr><td>Sodium [Moles/volume] in Blood</td><td>142.3</td><td>135 - 145</td><td>mmol/L</td></tr><tr><td>Potassium [Moles/volume] in Blood</td><td>4.0</td><td>3.5 - 5.1</td><td>mmol/L</td></tr><tr><td>Chloride [Moles/volume] in Blood</td><td>105.2</td><td>98 - 107</td><td>mmol/L</td></tr><tr><td>Carbon dioxide, total [Moles/volume] in Blood</td><td>25.5</td><td>22 - 29</td><td>mmol/L</td></tr></tbody></table></div>"
                },
                "title": "Chemistry"
              }
            ],
            "title": "Laboratory Report"
          },
          {
            "text": {
              "status": "generated",
              "div": "<div xmlns=\"http://www.w3.org/1999/xhtml\"><h3>Annotation</h3><table class=\"hl7__eu__lab__report\"><tr><th>Conclusion and Recommendations based on this report and previous findings known to us</th></tr><tr><td>All parameters are within normal limits except for a mildly elevated HbA1c (6.2%), indicating impaired glucose metabolism or possible prediabetes. Recommend clinical correlation and consideration of further evaluation or lifestyle intervention to prevent progression to diabetes. No evidence of renal or electrolyte disturbances.</td></tr></table></div>"
            },
            "code": {
              "coding": [
                {
                  "system": "http://loinc.org",
                  "code": "48767-8",
                  "display": "Annotation comment"
                }
              ]
            },
            "title": "Annotation comment"
          }
        ],
        "status": "final",
        "subject": {
          "reference": "urn:uuid:8c493fd7-eb1b-4572-8aad-535c68f44fcc",
          "display": "Katy Johnston"
        },
        "date": "2019-03-17T10:58:49Z",
        "title": "Laboratory Report",
        "confidentiality": "N"
      }
    },
    {
      "fullUrl": "urn:uuid:93300334-ec2f-44b2-89c3-c44e6551c89f",
      "resource": {
        "resourceType": "DiagnosticReport",
        "id": "93300334-ec2f-44b2-89c3-c44e6551c89f",
        "meta": {
          "profile": [
            "http://hl7.eu/fhir/laboratory/StructureDefinition/DiagnosticReport-eu-lab"
          ]
        },
        "identifier": [
          {
            "assigner": {
              "display": "HL7 Europe"
            },
            "system": "urn:oid:2.16.840.1.113883.2.51.999",
            "value": "d9098976-ac5c-4c29-92f6-fa5c0987f352"
          }
        ],
        "extension": [
          {
            "url": "http://hl7.org/fhir/5.0/StructureDefinition/extension-DiagnosticReport.composition",
            "valueReference": {
              "reference": "urn:uuid:9e55a2c7-94c6-4b31-a387-18f29679acc6"
            }
          }
        ],
        "category": [
          {
            "coding": [
              {
                "code": "26436-6",
                "system": "http://loinc.org",
                "display": "Laboratory studies (set)"
              }
            ]
          }
        ],
        "specimen": [
          {
            "reference": "urn:uuid:49f83f6c-57bc-4772-b37a-b3fc740de8a6"
          }
        ],
        "result": [
          {
            "reference": "urn:uuid:cbda1282-3479-4f52-bef9-cd19b907c063"
          },
          {
            "reference": "urn:uuid:01ef78b0-f829-4ee2-bf27-bd8f6020df34"
          },
          {
            "reference": "urn:uuid:d16aed02-37ad-4fbb-a713-21a08206a879"
          },
          {
            "reference": "urn:uuid:04e9de12-ed4f-42a4-ba31-2b59501d663d"
          },
          {
            "reference": "urn:uuid:8b575f6f-64f6-4e33-be02-8d0502c94021"
          },
          {
            "reference": "urn:uuid:1976dbbe-a193-4ef6-84e4-8efa6e1d62be"
          },
          {
            "reference": "urn:uuid:00a302f0-d5ee-4286-baff-fde9ea09df6a"
          },
          {
            "reference": "urn:uuid:7a379590-04dd-4796-ba90-460a28ebcb87"
          },
          {
            "reference": "urn:uuid:855acc5c-5797-4d18-aa90-83093fa6fa47"
          }
        ],
        "status": "registered",
        "code": {
          "coding": [
            {
              "code": "11502-2",
              "system": "http://loinc.org",
              "display": "Laboratory report"
            }
          ]
        },
        "subject": {
          "reference": "urn:uuid:8c493fd7-eb1b-4572-8aad-535c68f44fcc",
          "display": "Katy Johnston"
        }
      }
    },
    {
      "fullUrl": "urn:uuid:8c493fd7-eb1b-4572-8aad-535c68f44fcc",
      "resource": {
        "resourceType": "Patient",
        "id": "8c493fd7-eb1b-4572-8aad-535c68f44fcc",
        "meta": {
          "security": [
            {
              "system": "http://terminology.hl7.org/CodeSystem/v3-ActReason",
              "code": "HTEST"
            },
            {
              "system": "http://terminology.hl7.org/CodeSystem/v3-ActReason",
              "code": "TRAIN"
            }
          ],
          "tag": [
            {
              "system": "https://synderai.net/fhir/CodeSystem/tags",
              "code": "synthetic",
              "display": "SYNDERAI Synthetic data"
            }
          ],
          "profile": [
            "http://hl7.eu/fhir/base/StructureDefinition/patient-eu-core"
          ]
        },
        "identifier": [
          {
            "type": {
              "coding": [
                {
                  "code": "PT",
                  "system": "http://terminology.hl7.org/CodeSystem/v2-0203"
                }
              ]
            },
            "system": "http://ec.europa.eu/identifier/eci",
            "value": "1854-452946-6"
          },
          {
            "type": {
              "coding": [
                {
                  "code": "MR",
                  "system": "http://terminology.hl7.org/CodeSystem/v2-0203"
                }
              ]
            },
            "system": "http://local.setting.eu/identifier",
            "value": "f94741cf-8405-9657-1aec-b3bd1788b46e"
          }
        ],
        "name": [
          {
            "family": "Johnston"
          },
          {
            "given": [
              "Katy"
            ]
          },
          {
            "text": "Katy Johnston"
          }
        ],
        "address": [
          {
            "line": [
              "Flat 16f",
              "Stokes roads"
            ],
            "use": "home",
            "type": "physical",
            "postalCode": "E1",
            "city": "London",
            "country": "United Kingdom"
          }
        ],
        "telecom": [
          {
            "system": "phone",
            "value": "+44808 1570256"
          }
        ],
        "extension": [
          {
            "url": "http://hl7.org/fhir/StructureDefinition/patient-nationality",
            "valueCodeableConcept": {
              "coding": [
                {
                  "code": "GB",
                  "system": "http://hl7.org/fhir/ValueSet/country"
                }
              ]
            }
          }
        ],
        "text": {
          "status": "generated",
          "div": "<div xmlns=\"http://www.w3.org/1999/xhtml\"><table class=\"hl7__ips\"><tr><td>Katy Johnston</td><td>female</td><td>19-Sep-1988</td></tr></table></div>"
        },
        "gender": "female",
        "birthDate": "1988-09-19"
      }
    },
    {
      "fullUrl": "urn:uuid:d24f9d67-7e33-4a9d-9ae6-57039087f7b3",
      "resource": {
        "resourceType": "ServiceRequest",
        "id": "d24f9d67-7e33-4a9d-9ae6-57039087f7b3",
        "meta": {
          "profile": [
            "http://hl7.eu/fhir/laboratory/StructureDefinition/ServiceRequest-eu-lab"
          ]
        },
        "identifier": [
          {
            "system": "http://example.org",
            "value": "3f0d6ee3-c2bc-430c-b456-1fc04db60eb2"
          }
        ],
        "specimen": [
          {
            "reference": "urn:uuid:49f83f6c-57bc-4772-b37a-b3fc740de8a6"
          }
        ],
        "reasonCode": [
          {
            "coding": [
              {
                "code": "284549007",
                "system": "http://snomed.info/sct",
                "display": "Laceration of hand"
              }
            ]
          },
          {
            "coding": [
              {
                "code": "312608009",
                "system": "http://snomed.info/sct",
                "display": "Laceration - injury"
              }
            ]
          },
          {
            "coding": [
              {
                "code": "15777000",
                "system": "http://snomed.info/sct",
                "display": "Prediabetes"
              }
            ]
          },
          {
            "coding": [
              {
                "code": "271737000",
                "system": "http://snomed.info/sct",
                "display": "Anemia"
              }
            ]
          },
          {
            "coding": [
              {
                "code": "203082005",
                "system": "http://snomed.info/sct",
                "display": "Fibromyalgia"
              }
            ]
          },
          {
            "coding": [
              {
                "code": "6525002",
                "system": "http://snomed.info/sct",
                "display": "Dependent drug abuse"
              }
            ]
          },
          {
            "coding": [
              {
                "code": "124171000119105",
                "system": "http://snomed.info/sct",
                "display": "Chronic intractable migraine without aura"
              }
            ]
          },
          {
            "coding": [
              {
                "code": "196416002",
                "system": "http://snomed.info/sct",
                "display": "Impacted molars"
              }
            ]
          }
        ],
        "status": "active",
        "intent": "order",
        "code": {
          "coding": [
            {
              "code": "108252007",
              "system": "http://snomed.info/sct",
              "display": "Laboratory procedure"
            }
          ]
        },
        "subject": {
          "reference": "urn:uuid:8c493fd7-eb1b-4572-8aad-535c68f44fcc",
          "display": "Katy Johnston"
        },
        "requester": {
          "reference": "urn:uuid:6ad95c37-13f8-44ad-a584-8df237b9b863"
        }
      }
    },
    {
      "fullUrl": "urn:uuid:6ad95c37-13f8-44ad-a584-8df237b9b863",
      "resource": {
        "resourceType": "PractitionerRole",
        "id": "6ad95c37-13f8-44ad-a584-8df237b9b863",
        "meta": {
          "profile": [
            "http://hl7.eu/fhir/base/StructureDefinition/practitionerRole-eu"
          ]
        },
        "text": {
          "status": "generated",
          "div": "<div xmlns=\"http://www.w3.org/1999/xhtml\">Provider Role Id: 6ad95c37-13f8-44ad-a584-8df237b9b863</div>"
        },
        "organization": {
          "reference": "urn:uuid:dbd761bb-2513-49b5-b356-7ebcb141a133"
        }
      }
    },
    {
      "fullUrl": "urn:uuid:dbd761bb-2513-49b5-b356-7ebcb141a133",
      "resource": {
        "resourceType": "Organization",
        "id": "dbd761bb-2513-49b5-b356-7ebcb141a133",
        "meta": {
          "profile": [
            "http://hl7.eu/fhir/base/StructureDefinition/organization-eu"
          ]
        },
        "identifier": [
          {
            "assigner": {
              "display": "HL7 Europe"
            },
            "system": "urn:oid:2.16.840.1.113883.2.51.999",
            "value": "a60af948-290e-4bf0-a982-438571d22b9a"
          }
        ],
        "address": [
          {
            "city": "London",
            "postalCode": "SE1 7",
            "country": "United Kingdom"
          }
        ],
        "text": {
          "status": "generated",
          "div": "<div xmlns=\"http://www.w3.org/1999/xhtml\">Provider Organization: Evelina Children&#039;s Hospital</div>"
        },
        "name": "Evelina Children&#039;s Hospital"
      }
    },
    {
      "fullUrl": "urn:uuid:49f83f6c-57bc-4772-b37a-b3fc740de8a6",
      "resource": {
        "resourceType": "Specimen",
        "id": "49f83f6c-57bc-4772-b37a-b3fc740de8a6",
        "meta": {
          "profile": [
            "http://hl7.eu/fhir/laboratory/StructureDefinition/Specimen-eu-lab"
          ]
        },
        "collection": {
          "collectedDateTime": "2019-03-17"
        },
        "text": {
          "status": "generated",
          "div": "<div xmlns=\"http://www.w3.org/1999/xhtml\"><table class=\"hl7__eu__lab__report\"><tr><th>Specimen</th><th>Collection Date</th></tr><tr><td>Whole blood specimen (specimen)</td><td><span class=\"nb\">17-Mar-2019</span></td></tr></table></div>"
        },
        "type": {
          "coding": [
            {
              "code": "258580003",
              "system": "http://snomed.info/sct",
              "display": "Whole blood specimen (specimen)"
            }
          ]
        }
      }
    },
    {
      "fullUrl": "urn:uuid:cbda1282-3479-4f52-bef9-cd19b907c063",
      "resource": {
        "resourceType": "Observation",
        "id": "cbda1282-3479-4f52-bef9-cd19b907c063",
        "meta": {
          "profile": [
            "http://hl7.eu/fhir/laboratory/StructureDefinition/Observation-resultslab-eu-lab"
          ]
        },
        "performer": [
          {
            "display": "The Central European Lab"
          }
        ],
        "category": [
          {
            "coding": [
              {
                "system": "http://terminology.hl7.org/CodeSystem/observation-category",
                "code": "laboratory"
              }
            ]
          }
        ],
        "code": {
          "coding": [
            {
              "code": "4548-4",
              "system": "http://loinc.org",
              "display": "Hemoglobin A1c/Hemoglobin.total in Blood"
            }
          ],
          "text": "Hemoglobin A1c/Hemoglobin.total in Blood"
        },
        "valueQuantity": {
          "system": "http://unitsofmeasure.org",
          "value": 6.2,
          "unit": "%",
          "code": "%"
        },
        "referenceRange": [
          {
            "low": {
              "value": 4.8,
              "code": "%",
              "system": "http://unitsofmeasure.org"
            }
          },
          {
            "high": {
              "value": 5.7,
              "code": "%",
              "system": "http://unitsofmeasure.org"
            }
          }
        ],
        "interpretation": [
          {
            "coding": [
              {
                "code": "H",
                "system": "http://terminology.hl7.org/CodeSystem/v3-ObservationInterpretation",
                "display": "High"
              }
            ]
          }
        ],
        "text": {
          "status": "generated",
          "div": "<div xmlns=\"http://www.w3.org/1999/xhtml\"><table class=\"hl7__eu__lab__report\"><tr><th>Test</th><th>17-Mar-2019</th><th>Reference&#xA0;Range</th><th>Unit</th></tr><tr><td>Hemoglobin A1c/Hemoglobin.total in Blood</td><td>6.2</td><td>4.8 - 5.7</td><td>H</td><td>%</td></tr></table></div>"
        },
        "status": "final",
        "subject": {
          "reference": "urn:uuid:8c493fd7-eb1b-4572-8aad-535c68f44fcc",
          "display": "Katy Johnston"
        },
        "effectiveDateTime": "2019-03-17T09:58:49Z",
        "specimen": {
          "reference": "urn:uuid:49f83f6c-57bc-4772-b37a-b3fc740de8a6"
        }
      }
    },
    {
      "fullUrl": "urn:uuid:01ef78b0-f829-4ee2-bf27-bd8f6020df34",
      "resource": {
        "resourceType": "Observation",
        "id": "01ef78b0-f829-4ee2-bf27-bd8f6020df34",
        "meta": {
          "profile": [
            "http://hl7.eu/fhir/laboratory/StructureDefinition/Observation-resultslab-eu-lab"
          ]
        },
        "performer": [
          {
            "display": "The Central European Lab"
          }
        ],
        "category": [
          {
            "coding": [
              {
                "system": "http://terminology.hl7.org/CodeSystem/observation-category",
                "code": "laboratory"
              }
            ]
          }
        ],
        "code": {
          "coding": [
            {
              "code": "2339-0",
              "system": "http://loinc.org",
              "display": "Glucose [Mass/volume] in Blood"
            }
          ],
          "text": "Glucose [Mass/volume] in Blood"
        },
        "valueQuantity": {
          "system": "http://unitsofmeasure.org",
          "value": 75.7,
          "unit": "mg/dL",
          "code": "mg/dL"
        },
        "referenceRange": [
          {
            "low": {
              "value": 70,
              "code": "mg/dL",
              "system": "http://unitsofmeasure.org"
            }
          },
          {
            "high": {
              "value": 140,
              "code": "mg/dL",
              "system": "http://unitsofmeasure.org"
            }
          }
        ],
        "text": {
          "status": "generated",
          "div": "<div xmlns=\"http://www.w3.org/1999/xhtml\"><table class=\"hl7__eu__lab__report\"><tr><th>Test</th><th>17-Mar-2019</th><th>Reference&#xA0;Range</th><th>Unit</th></tr><tr><td>Glucose [Mass/volume] in Blood</td><td>75.7</td><td>70 - 140</td><td></td><td>mg/dL</td></tr></table></div>"
        },
        "status": "final",
        "subject": {
          "reference": "urn:uuid:8c493fd7-eb1b-4572-8aad-535c68f44fcc",
          "display": "Katy Johnston"
        },
        "effectiveDateTime": "2019-03-17T09:58:49Z",
        "specimen": {
          "reference": "urn:uuid:49f83f6c-57bc-4772-b37a-b3fc740de8a6"
        }
      }
    },
    {
      "fullUrl": "urn:uuid:d16aed02-37ad-4fbb-a713-21a08206a879",
      "resource": {
        "resourceType": "Observation",
        "id": "d16aed02-37ad-4fbb-a713-21a08206a879",
        "meta": {
          "profile": [
            "http://hl7.eu/fhir/laboratory/StructureDefinition/Observation-resultslab-eu-lab"
          ]
        },
        "performer": [
          {
            "display": "The Central European Lab"
          }
        ],
        "category": [
          {
            "coding": [
              {
                "system": "http://terminology.hl7.org/CodeSystem/observation-category",
                "code": "laboratory"
              }
            ]
          }
        ],
        "code": {
          "coding": [
            {
              "code": "6299-2",
              "system": "http://loinc.org",
              "display": "Urea nitrogen [Mass/volume] in Blood"
            }
          ],
          "text": "Urea nitrogen [Mass/volume] in Blood"
        },
        "valueQuantity": {
          "system": "http://unitsofmeasure.org",
          "value": 17.2,
          "unit": "mg/dL",
          "code": "mg/dL"
        },
        "referenceRange": [
          {
            "low": {
              "value": 7,
              "code": "mg/dL",
              "system": "http://unitsofmeasure.org"
            }
          },
          {
            "high": {
              "value": 20,
              "code": "mg/dL",
              "system": "http://unitsofmeasure.org"
            }
          }
        ],
        "text": {
          "status": "generated",
          "div": "<div xmlns=\"http://www.w3.org/1999/xhtml\"><table class=\"hl7__eu__lab__report\"><tr><th>Test</th><th>17-Mar-2019</th><th>Reference&#xA0;Range</th><th>Unit</th></tr><tr><td>Urea nitrogen [Mass/volume] in Blood</td><td>17.2</td><td>7 - 20</td><td></td><td>mg/dL</td></tr></table></div>"
        },
        "status": "final",
        "subject": {
          "reference": "urn:uuid:8c493fd7-eb1b-4572-8aad-535c68f44fcc",
          "display": "Katy Johnston"
        },
        "effectiveDateTime": "2019-03-17T09:58:49Z",
        "specimen": {
          "reference": "urn:uuid:49f83f6c-57bc-4772-b37a-b3fc740de8a6"
        }
      }
    },
    {
      "fullUrl": "urn:uuid:04e9de12-ed4f-42a4-ba31-2b59501d663d",
      "resource": {
        "resourceType": "Observation",
        "id": "04e9de12-ed4f-42a4-ba31-2b59501d663d",
        "meta": {
          "profile": [
            "http://hl7.eu/fhir/laboratory/StructureDefinition/Observation-resultslab-eu-lab"
          ]
        },
        "performer": [
          {
            "display": "The Central European Lab"
          }
        ],
        "category": [
          {
            "coding": [
              {
                "system": "http://terminology.hl7.org/CodeSystem/observation-category",
                "code": "laboratory"
              }
            ]
          }
        ],
        "code": {
          "coding": [
            {
              "code": "38483-4",
              "system": "http://loinc.org",
              "display": "Creatinine [Mass/volume] in Blood"
            }
          ],
          "text": "Creatinine [Mass/volume] in Blood"
        },
        "valueQuantity": {
          "system": "http://unitsofmeasure.org",
          "value": 1,
          "unit": "mg/dL",
          "code": "mg/dL"
        },
        "referenceRange": [
          {
            "low": {
              "value": 0.6,
              "code": "mg/dL",
              "system": "http://unitsofmeasure.org"
            }
          },
          {
            "high": {
              "value": 1.2,
              "code": "mg/dL",
              "system": "http://unitsofmeasure.org"
            }
          }
        ],
        "text": {
          "status": "generated",
          "div": "<div xmlns=\"http://www.w3.org/1999/xhtml\"><table class=\"hl7__eu__lab__report\"><tr><th>Test</th><th>17-Mar-2019</th><th>Reference&#xA0;Range</th><th>Unit</th></tr><tr><td>Creatinine [Mass/volume] in Blood</td><td>1.0</td><td>0.6 - 1.2</td><td></td><td>mg/dL</td></tr></table></div>"
        },
        "status": "final",
        "subject": {
          "reference": "urn:uuid:8c493fd7-eb1b-4572-8aad-535c68f44fcc",
          "display": "Katy Johnston"
        },
        "effectiveDateTime": "2019-03-17T09:58:49Z",
        "specimen": {
          "reference": "urn:uuid:49f83f6c-57bc-4772-b37a-b3fc740de8a6"
        }
      }
    },
    {
      "fullUrl": "urn:uuid:8b575f6f-64f6-4e33-be02-8d0502c94021",
      "resource": {
        "resourceType": "Observation",
        "id": "8b575f6f-64f6-4e33-be02-8d0502c94021",
        "meta": {
          "profile": [
            "http://hl7.eu/fhir/laboratory/StructureDefinition/Observation-resultslab-eu-lab"
          ]
        },
        "performer": [
          {
            "display": "The Central European Lab"
          }
        ],
        "category": [
          {
            "coding": [
              {
                "system": "http://terminology.hl7.org/CodeSystem/observation-category",
                "code": "laboratory"
              }
            ]
          }
        ],
        "code": {
          "coding": [
            {
              "code": "49765-1",
              "system": "http://loinc.org",
              "display": "Calcium [Mass/volume] in Blood"
            }
          ],
          "text": "Calcium [Mass/volume] in Blood"
        },
        "valueQuantity": {
          "system": "http://unitsofmeasure.org",
          "value": 9.7,
          "unit": "mg/dL",
          "code": "mg/dL"
        },
        "referenceRange": [
          {
            "low": {
              "value": 8.5,
              "code": "mg/dL",
              "system": "http://unitsofmeasure.org"
            }
          },
          {
            "high": {
              "value": 10.4,
              "code": "mg/dL",
              "system": "http://unitsofmeasure.org"
            }
          }
        ],
        "text": {
          "status": "generated",
          "div": "<div xmlns=\"http://www.w3.org/1999/xhtml\"><table class=\"hl7__eu__lab__report\"><tr><th>Test</th><th>17-Mar-2019</th><th>Reference&#xA0;Range</th><th>Unit</th></tr><tr><td>Calcium [Mass/volume] in Blood</td><td>9.7</td><td>8.5 - 10.4</td><td></td><td>mg/dL</td></tr></table></div>"
        },
        "status": "final",
        "subject": {
          "reference": "urn:uuid:8c493fd7-eb1b-4572-8aad-535c68f44fcc",
          "display": "Katy Johnston"
        },
        "effectiveDateTime": "2019-03-17T09:58:49Z",
        "specimen": {
          "reference": "urn:uuid:49f83f6c-57bc-4772-b37a-b3fc740de8a6"
        }
      }
    },
    {
      "fullUrl": "urn:uuid:1976dbbe-a193-4ef6-84e4-8efa6e1d62be",
      "resource": {
        "resourceType": "Observation",
        "id": "1976dbbe-a193-4ef6-84e4-8efa6e1d62be",
        "meta": {
          "profile": [
            "http://hl7.eu/fhir/laboratory/StructureDefinition/Observation-resultslab-eu-lab"
          ]
        },
        "performer": [
          {
            "display": "The Central European Lab"
          }
        ],
        "category": [
          {
            "coding": [
              {
                "system": "http://terminology.hl7.org/CodeSystem/observation-category",
                "code": "laboratory"
              }
            ]
          }
        ],
        "code": {
          "coding": [
            {
              "code": "2947-0",
              "system": "http://loinc.org",
              "display": "Sodium [Moles/volume] in Blood"
            }
          ],
          "text": "Sodium [Moles/volume] in Blood"
        },
        "valueQuantity": {
          "system": "http://unitsofmeasure.org",
          "value": 142.3,
          "unit": "mmol/L",
          "code": "mmol/L"
        },
        "referenceRange": [
          {
            "low": {
              "value": 135,
              "code": "mmol/L",
              "system": "http://unitsofmeasure.org"
            }
          },
          {
            "high": {
              "value": 145,
              "code": "mmol/L",
              "system": "http://unitsofmeasure.org"
            }
          }
        ],
        "text": {
          "status": "generated",
          "div": "<div xmlns=\"http://www.w3.org/1999/xhtml\"><table class=\"hl7__eu__lab__report\"><tr><th>Test</th><th>17-Mar-2019</th><th>Reference&#xA0;Range</th><th>Unit</th></tr><tr><td>Sodium [Moles/volume] in Blood</td><td>142.3</td><td>135 - 145</td><td></td><td>mmol/L</td></tr></table></div>"
        },
        "status": "final",
        "subject": {
          "reference": "urn:uuid:8c493fd7-eb1b-4572-8aad-535c68f44fcc",
          "display": "Katy Johnston"
        },
        "effectiveDateTime": "2019-03-17T09:58:49Z",
        "specimen": {
          "reference": "urn:uuid:49f83f6c-57bc-4772-b37a-b3fc740de8a6"
        }
      }
    },
    {
      "fullUrl": "urn:uuid:00a302f0-d5ee-4286-baff-fde9ea09df6a",
      "resource": {
        "resourceType": "Observation",
        "id": "00a302f0-d5ee-4286-baff-fde9ea09df6a",
        "meta": {
          "profile": [
            "http://hl7.eu/fhir/laboratory/StructureDefinition/Observation-resultslab-eu-lab"
          ]
        },
        "performer": [
          {
            "display": "The Central European Lab"
          }
        ],
        "category": [
          {
            "coding": [
              {
                "system": "http://terminology.hl7.org/CodeSystem/observation-category",
                "code": "laboratory"
              }
            ]
          }
        ],
        "code": {
          "coding": [
            {
              "code": "6298-4",
              "system": "http://loinc.org",
              "display": "Potassium [Moles/volume] in Blood"
            }
          ],
          "text": "Potassium [Moles/volume] in Blood"
        },
        "valueQuantity": {
          "system": "http://unitsofmeasure.org",
          "value": 4,
          "unit": "mmol/L",
          "code": "mmol/L"
        },
        "referenceRange": [
          {
            "low": {
              "value": 3.5,
              "code": "mmol/L",
              "system": "http://unitsofmeasure.org"
            }
          },
          {
            "high": {
              "value": 5.1,
              "code": "mmol/L",
              "system": "http://unitsofmeasure.org"
            }
          }
        ],
        "text": {
          "status": "generated",
          "div": "<div xmlns=\"http://www.w3.org/1999/xhtml\"><table class=\"hl7__eu__lab__report\"><tr><th>Test</th><th>17-Mar-2019</th><th>Reference&#xA0;Range</th><th>Unit</th></tr><tr><td>Potassium [Moles/volume] in Blood</td><td>4.0</td><td>3.5 - 5.1</td><td></td><td>mmol/L</td></tr></table></div>"
        },
        "status": "final",
        "subject": {
          "reference": "urn:uuid:8c493fd7-eb1b-4572-8aad-535c68f44fcc",
          "display": "Katy Johnston"
        },
        "effectiveDateTime": "2019-03-17T09:58:49Z",
        "specimen": {
          "reference": "urn:uuid:49f83f6c-57bc-4772-b37a-b3fc740de8a6"
        }
      }
    },
    {
      "fullUrl": "urn:uuid:7a379590-04dd-4796-ba90-460a28ebcb87",
      "resource": {
        "resourceType": "Observation",
        "id": "7a379590-04dd-4796-ba90-460a28ebcb87",
        "meta": {
          "profile": [
            "http://hl7.eu/fhir/laboratory/StructureDefinition/Observation-resultslab-eu-lab"
          ]
        },
        "performer": [
          {
            "display": "The Central European Lab"
          }
        ],
        "category": [
          {
            "coding": [
              {
                "system": "http://terminology.hl7.org/CodeSystem/observation-category",
                "code": "laboratory"
              }
            ]
          }
        ],
        "code": {
          "coding": [
            {
              "code": "2069-3",
              "system": "http://loinc.org",
              "display": "Chloride [Moles/volume] in Blood"
            }
          ],
          "text": "Chloride [Moles/volume] in Blood"
        },
        "valueQuantity": {
          "system": "http://unitsofmeasure.org",
          "value": 105.2,
          "unit": "mmol/L",
          "code": "mmol/L"
        },
        "referenceRange": [
          {
            "low": {
              "value": 98,
              "code": "mmol/L",
              "system": "http://unitsofmeasure.org"
            }
          },
          {
            "high": {
              "value": 107,
              "code": "mmol/L",
              "system": "http://unitsofmeasure.org"
            }
          }
        ],
        "text": {
          "status": "generated",
          "div": "<div xmlns=\"http://www.w3.org/1999/xhtml\"><table class=\"hl7__eu__lab__report\"><tr><th>Test</th><th>17-Mar-2019</th><th>Reference&#xA0;Range</th><th>Unit</th></tr><tr><td>Chloride [Moles/volume] in Blood</td><td>105.2</td><td>98 - 107</td><td></td><td>mmol/L</td></tr></table></div>"
        },
        "status": "final",
        "subject": {
          "reference": "urn:uuid:8c493fd7-eb1b-4572-8aad-535c68f44fcc",
          "display": "Katy Johnston"
        },
        "effectiveDateTime": "2019-03-17T09:58:49Z",
        "specimen": {
          "reference": "urn:uuid:49f83f6c-57bc-4772-b37a-b3fc740de8a6"
        }
      }
    },
    {
      "fullUrl": "urn:uuid:855acc5c-5797-4d18-aa90-83093fa6fa47",
      "resource": {
        "resourceType": "Observation",
        "id": "855acc5c-5797-4d18-aa90-83093fa6fa47",
        "meta": {
          "profile": [
            "http://hl7.eu/fhir/laboratory/StructureDefinition/Observation-resultslab-eu-lab"
          ]
        },
        "performer": [
          {
            "display": "The Central European Lab"
          }
        ],
        "category": [
          {
            "coding": [
              {
                "system": "http://terminology.hl7.org/CodeSystem/observation-category",
                "code": "laboratory"
              }
            ]
          }
        ],
        "code": {
          "coding": [
            {
              "code": "20565-8",
              "system": "http://loinc.org",
              "display": "Carbon dioxide, total [Moles/volume] in Blood"
            }
          ],
          "text": "Carbon dioxide, total [Moles/volume] in Blood"
        },
        "valueQuantity": {
          "system": "http://unitsofmeasure.org",
          "value": 25.5,
          "unit": "mmol/L",
          "code": "mmol/L"
        },
        "referenceRange": [
          {
            "low": {
              "value": 22,
              "code": "mmol/L",
              "system": "http://unitsofmeasure.org"
            }
          },
          {
            "high": {
              "value": 29,
              "code": "mmol/L",
              "system": "http://unitsofmeasure.org"
            }
          }
        ],
        "text": {
          "status": "generated",
          "div": "<div xmlns=\"http://www.w3.org/1999/xhtml\"><table class=\"hl7__eu__lab__report\"><tr><th>Test</th><th>17-Mar-2019</th><th>Reference&#xA0;Range</th><th>Unit</th></tr><tr><td>Carbon dioxide, total [Moles/volume] in Blood</td><td>25.5</td><td>22 - 29</td><td></td><td>mmol/L</td></tr></table></div>"
        },
        "status": "final",
        "subject": {
          "reference": "urn:uuid:8c493fd7-eb1b-4572-8aad-535c68f44fcc",
          "display": "Katy Johnston"
        },
        "effectiveDateTime": "2019-03-17T09:58:49Z",
        "specimen": {
          "reference": "urn:uuid:49f83f6c-57bc-4772-b37a-b3fc740de8a6"
        }
      }
    },
    {
      "fullUrl": "urn:uuid:5c7cb19d-6486-4eeb-b0af-e610b9c0eaa4",
      "resource": {
        "resourceType": "Device",
        "id": "5c7cb19d-6486-4eeb-b0af-e610b9c0eaa4",
        "deviceName": [
          {
            "name": "SYNDERAI Synthetic Generator",
            "type": "manufacturer-name"
          }
        ],
        "version": [
          {
            "value": "5.0"
          }
        ],
        "text": {
          "status": "generated",
          "div": "<div xmlns=\"http://www.w3.org/1999/xhtml\">SYNDERAI Synthetic Generator v5.0</div>"
        },
        "status": "active\"",
        "distinctIdentifier": "synderai-generator-50",
        "manufacturer": "SYNDERAI Project"
      }
    },
    {
      "fullUrl": "urn:uuid:48df6097-f8b9-49af-897b-3e487a0b0053",
      "resource": {
        "resourceType": "Provenance",
        "id": "48df6097-f8b9-49af-897b-3e487a0b0053",
        "target": [
          {
            "reference": "Patient/8c493fd7-eb1b-4572-8aad-535c68f44fcc"
          },
          {
            "reference": "Bundle/df3eb9af-3c33-4d59-93f3-e61e6d93cd9d"
          },
          {
            "reference": "Composition/41a1c5c1-7657-4d19-8d77-2d670efa102e"
          },
          {
            "reference": "PractitionerRole/31c3b7dd-6318-4b38-9b22-eade1f9fc5a0"
          },
          {
            "reference": "Practitioner/31ea0ceb-192a-4156-a25b-d360b7bf4639"
          },
          {
            "reference": "PractitionerRole/6ad95c37-13f8-44ad-a584-8df237b9b863"
          },
          {
            "reference": "Organization/dbd761bb-2513-49b5-b356-7ebcb141a133"
          }
        ],
        "activity": {
          "text": "Synthetic Example Data Generation"
        },
        "policy": [
          "https://synderai.net/synderai-synthetic-data-policy"
        ],
        "agent": [
          {
            "type": {
              "text": "author"
            },
            "who": {
              "reference": "Device/5c7cb19d-6486-4eeb-b0af-e610b9c0eaa4"
            }
          }
        ],
        "reason": [
          {
            "text": "Interoperability Testing and Training (non-clinical use)"
          }
        ],
        "text": {
          "status": "generated",
          "div": "<div xmlns=\"http://www.w3.org/1999/xhtml\">Provenance for SYNDERAI Synthetic Example Data Resource</div>"
        },
        "recorded": "2019-03-17T10:58:49Z"
      }
    },
    {
      "fullUrl": "urn:uuid:31c3b7dd-6318-4b38-9b22-eade1f9fc5a0",
      "resource": {
        "resourceType": "PractitionerRole",
        "id": "31c3b7dd-6318-4b38-9b22-eade1f9fc5a0",
        "meta": {
          "profile": [
            "http://hl7.eu/fhir/base/StructureDefinition/practitionerRole-eu"
          ]
        },
        "text": {
          "status": "generated",
          "div": "<div xmlns=\"http://www.w3.org/1999/xhtml\">Laboratory Role Id: 31c3b7dd-6318-4b38-9b22-eade1f9fc5a0</div>"
        },
        "practitioner": {
          "reference": "urn:uuid:31ea0ceb-192a-4156-a25b-d360b7bf4639"
        }
      }
    },
    {
      "fullUrl": "urn:uuid:31ea0ceb-192a-4156-a25b-d360b7bf4639",
      "resource": {
        "resourceType": "Practitioner",
        "id": "31ea0ceb-192a-4156-a25b-d360b7bf4639",
        "meta": {
          "profile": [
            "http://hl7.eu/fhir/base/StructureDefinition/practitioner-eu"
          ]
        },
        "identifier": [
          {
            "assigner": {
              "display": "HL7 Europe"
            },
            "system": "urn:oid:2.16.840.1.113883.2.51.999",
            "value": "5081b67e-74f6-4ef0-938f-7ed0a4cc5f3a"
          }
        ],
        "name": [
          {
            "prefix": [
              "dr"
            ],
            "given": [
              "Ex"
            ],
            "family": "Ample"
          }
        ],
        "address": [
          {
            "line": [
              "Laboratoire Central Européenne",
              "Boulevard du Jardin Botanique 32"
            ],
            "postalCode": "1000",
            "city": "Brussels",
            "country": "Belgium"
          }
        ],
        "text": {
          "status": "generated",
          "div": "<div xmlns=\"http://www.w3.org/1999/xhtml\">Laboratory: Laboratoire Central Européenne, 1000 Brussels, Belgium</div>"
        }
      }
    }
  ],
  "type": "document",
  "timestamp": "2019-03-17T10:58:49Z"
}
