{
  "resourceType": "Bundle",
  "id": "01136713-6013-4d9b-a77a-823feebfaf09",
  "meta": {
    "profile": [
      "http://hl7.eu/fhir/laboratory/StructureDefinition/Bundle-eu-lab"
    ]
  },
  "identifier": {
    "assigner": {
      "display": "HL7 Europe"
    },
    "system": "urn:oid:2.16.840.1.113883.2.51.999",
    "value": "48b82f37-643f-4450-9cd4-9fea6eafcfe6"
  },
  "entry": [
    {
      "fullUrl": "urn:uuid:ce4fe2cc-71e6-4f48-bb06-4b3cbeda9d65",
      "resource": {
        "resourceType": "Composition",
        "id": "ce4fe2cc-71e6-4f48-bb06-4b3cbeda9d65",
        "meta": {
          "profile": [
            "http://hl7.eu/fhir/laboratory/StructureDefinition/Composition-eu-lab"
          ]
        },
        "identifier": {
          "assigner": {
            "display": "HL7 Europe"
          },
          "system": "urn:oid:2.16.840.1.113883.2.51.999",
          "value": "79b83dcc-c27c-492e-93be-c83c73dfb2c1"
        },
        "author": [
          {
            "reference": "urn:uuid:7158224c-faad-4d04-bfc8-d758a67cdb4e"
          }
        ],
        "category": [
          {
            "coding": [
              {
                "code": "26436-6",
                "system": "http://loinc.org",
                "display": "Laboratory studies (set)"
              }
            ]
          }
        ],
        "type": {
          "coding": [
            {
              "code": "11502-2",
              "system": "http://loinc.org",
              "display": "Laboratory report"
            }
          ],
          "text": "Laboratory Report"
        },
        "section": [
          {
            "code": {
              "coding": [
                {
                  "code": "26436-6",
                  "system": "http://loinc.org",
                  "display": "Laboratory studies (set)"
                }
              ],
              "text": "Laboratory studies"
            },
            "section": [
              {
                "code": {
                  "coding": [
                    {
                      "code": "$18719-5",
                      "system": "http://loinc.org",
                      "display": "Chemistry studies (set)"
                    }
                  ],
                  "text": "Chemistry"
                },
                "entry": [
                  {
                    "reference": "urn:uuid:e2daf25b-ed5a-4b2c-afc9-53b8c2542a47"
                  },
                  {
                    "reference": "urn:uuid:c6505e65-cd0b-4119-994c-3ac01b88bafa"
                  },
                  {
                    "reference": "urn:uuid:7b60c8f3-2888-4a22-b689-f8df3bcbd6b0"
                  },
                  {
                    "reference": "urn:uuid:8253d58b-4728-411e-bbc8-a0696b1c923e"
                  },
                  {
                    "reference": "urn:uuid:1f3de2eb-0885-4ece-80f7-6fb0522dfb13"
                  },
                  {
                    "reference": "urn:uuid:a9add3a8-7b15-4f19-9074-8664ff9f2304"
                  },
                  {
                    "reference": "urn:uuid:e73b1f80-c70d-4296-8220-0e775fda09a6"
                  },
                  {
                    "reference": "urn:uuid:6fbae862-2a4d-49c4-96ed-a7cde7c3e2f9"
                  },
                  {
                    "reference": "urn:uuid:7c64ef23-c692-437b-a010-2b0c3cfad365"
                  },
                  {
                    "reference": "urn:uuid:1cc47d76-f90e-4732-8539-e9bf272d1d45"
                  },
                  {
                    "reference": "urn:uuid:86c0d6a6-3f91-49f8-96c3-735c87a310c9"
                  },
                  {
                    "reference": "urn:uuid:cfc953e1-3b0a-4ad7-aa90-badb3c2e23f4"
                  },
                  {
                    "reference": "urn:uuid:d9c30b0f-48d7-41f9-a89f-dc3c84161b2f"
                  },
                  {
                    "reference": "urn:uuid:8cebea46-7c57-4aa9-9d4a-aa93f7fbe412"
                  },
                  {
                    "reference": "urn:uuid:a9389829-5357-4b55-ac4c-7a2109fd177c"
                  },
                  {
                    "reference": "urn:uuid:ee3293da-743f-4f72-b64f-bcebb47ad9be"
                  },
                  {
                    "reference": "urn:uuid:b1c21584-2c21-45e9-9b35-0bff5e8b300b"
                  },
                  {
                    "reference": "urn:uuid:7fe718db-b5c6-458d-9a89-9f3e7757a320"
                  }
                ],
                "text": {
                  "status": "generated",
                  "div": "<div xmlns=\"http://www.w3.org/1999/xhtml\"><h3>Chemistry</h3><table class=\"hl7__eu__lab__report\"><thead><tr><th>Test</th><th>22-MAY-2022</th><th>Reference&#xA0;Range</th><th>Unit</th></tr></thead><tbody><tr><td>Glucose [Mass/volume] in Serum or Plasma</td><td><strong>99.4 H</strong></td><td>70 - 99</td><td>mg/dL</td></tr><tr><td>Urea nitrogen [Mass/volume] in Serum or Plasma</td><td>8.3</td><td>7 - 20</td><td>mg/dL</td></tr><tr><td>Creatinine [Mass/volume] in Serum or Plasma</td><td><strong>1.9 H</strong></td><td>0.6 - 1.3</td><td>mg/dL</td></tr><tr><td>Calcium [Mass/volume] in Serum or Plasma</td><td>10.1</td><td>8.6 - 10.4</td><td>mg/dL</td></tr><tr><td>Sodium [Moles/volume] in Serum or Plasma</td><td>137.6</td><td>135 - 145</td><td>mmol/L</td></tr><tr><td>Potassium [Moles/volume] in Serum or Plasma</td><td>4.7</td><td>3.5 - 5</td><td>mmol/L</td></tr><tr><td>Chloride [Moles/volume] in Serum or Plasma</td><td><strong>110.3 H</strong></td><td>98 - 106</td><td>mmol/L</td></tr><tr><td>Carbon dioxide, total [Moles/volume] in Serum or Plasma</td><td>23.1</td><td>22 - 29</td><td>mmol/L</td></tr><tr><td>Ketones [Presence] in Urine by Test strip</td><td>Urine ketone test = +</td><td></td><td></td></tr><tr><td>Hemoglobin A1c/Hemoglobin.total in Blood</td><td><strong>3.2 L</strong></td><td>4 - 6</td><td>%</td></tr><tr><td>Glucose [Mass/volume] in Blood</td><td>99.4</td><td>70 - 140</td><td>mg/dL</td></tr><tr><td>Urea nitrogen [Mass/volume] in Blood</td><td>8.3</td><td>7 - 25</td><td>mg/dL</td></tr><tr><td>Creatinine [Mass/volume] in Blood</td><td><strong>1.8 H</strong></td><td>0.6 - 1.1</td><td>mg/dL</td></tr><tr><td>Calcium [Mass/volume] in Blood</td><td>10.1</td><td>8.6 - 10.4</td><td>mg/dL</td></tr><tr><td>Sodium [Moles/volume] in Blood</td><td>137.6</td><td>135 - 145</td><td>mmol/L</td></tr><tr><td>Potassium [Moles/volume] in Blood</td><td>4.7</td><td>3.5 - 5.1</td><td>mmol/L</td></tr><tr><td>Chloride [Moles/volume] in Blood</td><td><strong>110.3 H</strong></td><td>98 - 110</td><td>mmol/L</td></tr><tr><td>Carbon dioxide, total [Moles/volume] in Blood</td><td>23.1</td><td>22 - 29</td><td>mmol/L</td></tr></tbody></table></div>"
                },
                "title": "Chemistry"
              },
              {
                "code": {
                  "coding": [
                    {
                      "code": "$18729-4",
                      "system": "http://loinc.org",
                      "display": "Urinalysis studies (set)"
                    }
                  ],
                  "text": "Urinalysis"
                },
                "entry": [
                  {
                    "reference": "urn:uuid:a78ed613-eeab-4324-9fb5-d2b5054a7a50"
                  },
                  {
                    "reference": "urn:uuid:7f8dd1bc-950a-4ade-b546-269c6a374e33"
                  },
                  {
                    "reference": "urn:uuid:7b989dd3-baf5-47cf-bf7c-f3852c60d89c"
                  },
                  {
                    "reference": "urn:uuid:797956b0-3fc3-4d28-9741-361f51534079"
                  },
                  {
                    "reference": "urn:uuid:c0e57f73-f89f-4848-a518-22b860a6808e"
                  },
                  {
                    "reference": "urn:uuid:a57c7024-de8e-428e-afec-bea8426b4c95"
                  },
                  {
                    "reference": "urn:uuid:9ea6a492-c86f-4b83-a75e-0f8a05027cff"
                  },
                  {
                    "reference": "urn:uuid:d90aaa2e-d913-48ba-9d42-c9b366761752"
                  },
                  {
                    "reference": "urn:uuid:1e57c9bd-de1d-40e4-9395-cab735832599"
                  },
                  {
                    "reference": "urn:uuid:7c82db0f-af95-445c-904e-4f822d1ff3e4"
                  },
                  {
                    "reference": "urn:uuid:7239dff8-a6c1-4de1-8d4c-45b614c8d357"
                  },
                  {
                    "reference": "urn:uuid:af1321da-5a04-4d1a-b9f6-1e011452157a"
                  }
                ],
                "text": {
                  "status": "generated",
                  "div": "<div xmlns=\"http://www.w3.org/1999/xhtml\"><h3>Urinalysis</h3><table class=\"hl7__eu__lab__report\"><thead><tr><th>Test</th><th>22-MAY-2022</th><th>Reference&#xA0;Range</th><th>Unit</th></tr></thead><tbody><tr><td>Glucose [Mass/volume] in Urine by Test strip</td><td><strong>2.2 H</strong></td><td>0 - 0.8</td><td>mg/dL</td></tr><tr><td>Glucose [Presence] in Urine by Test strip</td><td>++</td><td></td><td></td></tr><tr><td>Bilirubin.total [Mass/volume] in Urine by Test strip</td><td>0.8</td><td>0 - 1</td><td>mg/dL</td></tr><tr><td>Bilirubin.total [Presence] in Urine by Test strip</td><td>Finding of bilirubin in urine</td><td></td><td></td></tr><tr><td>Ketones [Mass/volume] in Urine by Test strip</td><td>2.9</td><td>0 - 4</td><td>mg/dL</td></tr><tr><td>Specific gravity of Urine by Test strip</td><td><strong>1.0 L</strong></td><td>1.005 - 1.03</td><td>{nominal}</td></tr><tr><td>pH of Urine by Test strip</td><td>5.4</td><td>4.5 - 7</td><td>pH</td></tr><tr><td>Protein [Mass/volume] in Urine by Test strip</td><td><strong>217.9 H</strong></td><td>0 - 145</td><td>mg/dL</td></tr><tr><td>Protein [Presence] in Urine by Test strip</td><td>Urine protein test = ++</td><td></td><td></td></tr><tr><td>Nitrite [Presence] in Urine by Test strip</td><td>Urine nitrite negative</td><td></td><td></td></tr><tr><td>Hemoglobin [Presence] in Urine by Test strip</td><td>Urine blood test = negative</td><td></td><td></td></tr><tr><td>Leukocyte esterase [Presence] in Urine by Test strip</td><td>Urine leukocyte test negative</td><td></td><td></td></tr></tbody></table></div>"
                },
                "title": "Urinalysis"
              },
              {
                "code": {
                  "coding": [
                    {
                      "code": "$LP7846-1",
                      "system": "http://loinc.org",
                      "display": "Specimen information"
                    }
                  ],
                  "text": "Specimen information"
                },
                "entry": [
                  {
                    "reference": "urn:uuid:a9d2d462-266e-4433-a84f-bd6f3c67d89d"
                  },
                  {
                    "reference": "urn:uuid:d12d031d-e5ad-44f3-b751-600cb5c9f064"
                  },
                  {
                    "reference": "urn:uuid:16f3a949-5da4-4a4d-af4f-b2fc9e1a8dee"
                  },
                  {
                    "reference": "urn:uuid:5591b2ac-c782-4273-85d9-f5d3a0be4041"
                  }
                ],
                "text": {
                  "status": "generated",
                  "div": "<div xmlns=\"http://www.w3.org/1999/xhtml\"><h3>Specimen information</h3><table class=\"hl7__eu__lab__report\"><thead><tr><th>Test</th><th>22-MAY-2022</th><th>Specimen</th><th></th></tr></thead><tbody><tr><td>Appearance of Urine</td><td>Cloudy urine</td><td>Urine</td><td></td></tr><tr><td>Odor of Urine</td><td>Urine smell ammoniacal</td><td>Urine</td><td></td></tr><tr><td>Clarity of Urine</td><td>Translucent</td><td>Urine</td><td></td></tr><tr><td>Color of Urine</td><td>Brown color</td><td>Urine</td><td></td></tr></tbody></table></div>"
                },
                "title": "Specimen information"
              }
            ],
            "title": "Laboratory Report"
          },
          {
            "text": {
              "status": "generated",
              "div": "<div xmlns=\"http://www.w3.org/1999/xhtml\"><h3>Annotation</h3><table class=\"hl7__eu__lab__report\"><tr><th>Conclusion and Recommendations based on this report and previous findings known to us</th></tr><tr><td>The patient shows mildly elevated serum and blood creatinine, suggesting possible renal impairment. Urinalysis reveals proteinuria, glucosuria, low specific gravity, and abnormal appearance, indicating possible renal dysfunction or tubular damage. Blood glucose is borderline high, but HbA1c is unexpectedly low, possibly due to analytical or clinical factors. No evidence of urinary infection. Recommend further renal evaluation and correlation with clinical findings.</td></tr></table></div>"
            },
            "code": {
              "coding": [
                {
                  "system": "http://loinc.org",
                  "code": "48767-8",
                  "display": "Annotation comment"
                }
              ]
            },
            "title": "Annotation comment"
          }
        ],
        "status": "final",
        "subject": {
          "reference": "urn:uuid:808dd8f5-d645-4f31-82ba-3b401793ef29",
          "display": "Iva Kratochvílová"
        },
        "date": "2022-05-22T18:10:29Z",
        "title": "Laboratory Report",
        "confidentiality": "N"
      }
    },
    {
      "fullUrl": "urn:uuid:27ced43e-0563-46cf-94f6-3cbc95c3c371",
      "resource": {
        "resourceType": "DiagnosticReport",
        "id": "27ced43e-0563-46cf-94f6-3cbc95c3c371",
        "meta": {
          "profile": [
            "http://hl7.eu/fhir/laboratory/StructureDefinition/DiagnosticReport-eu-lab"
          ]
        },
        "identifier": [
          {
            "assigner": {
              "display": "HL7 Europe"
            },
            "system": "urn:oid:2.16.840.1.113883.2.51.999",
            "value": "8c0868f6-1ee7-46df-ad78-1acb6573428c"
          }
        ],
        "extension": [
          {
            "url": "http://hl7.org/fhir/5.0/StructureDefinition/extension-DiagnosticReport.composition",
            "valueReference": {
              "reference": "urn:uuid:79b83dcc-c27c-492e-93be-c83c73dfb2c1"
            }
          }
        ],
        "category": [
          {
            "coding": [
              {
                "code": "26436-6",
                "system": "http://loinc.org",
                "display": "Laboratory studies (set)"
              }
            ]
          }
        ],
        "specimen": [
          {
            "reference": "urn:uuid:35ef8c06-c2f3-4fe1-9433-63cdc187bf9d"
          },
          {
            "reference": "urn:uuid:fd904072-2819-4067-8e40-fc7b5e14281c"
          },
          {
            "reference": "urn:uuid:b2846f0b-cfe3-4069-95b9-c34dceb848f1"
          }
        ],
        "result": [
          {
            "reference": "urn:uuid:e2daf25b-ed5a-4b2c-afc9-53b8c2542a47"
          },
          {
            "reference": "urn:uuid:c6505e65-cd0b-4119-994c-3ac01b88bafa"
          },
          {
            "reference": "urn:uuid:7b60c8f3-2888-4a22-b689-f8df3bcbd6b0"
          },
          {
            "reference": "urn:uuid:8253d58b-4728-411e-bbc8-a0696b1c923e"
          },
          {
            "reference": "urn:uuid:1f3de2eb-0885-4ece-80f7-6fb0522dfb13"
          },
          {
            "reference": "urn:uuid:a9add3a8-7b15-4f19-9074-8664ff9f2304"
          },
          {
            "reference": "urn:uuid:e73b1f80-c70d-4296-8220-0e775fda09a6"
          },
          {
            "reference": "urn:uuid:6fbae862-2a4d-49c4-96ed-a7cde7c3e2f9"
          },
          {
            "reference": "urn:uuid:a9d2d462-266e-4433-a84f-bd6f3c67d89d"
          },
          {
            "reference": "urn:uuid:d12d031d-e5ad-44f3-b751-600cb5c9f064"
          },
          {
            "reference": "urn:uuid:16f3a949-5da4-4a4d-af4f-b2fc9e1a8dee"
          },
          {
            "reference": "urn:uuid:5591b2ac-c782-4273-85d9-f5d3a0be4041"
          },
          {
            "reference": "urn:uuid:a78ed613-eeab-4324-9fb5-d2b5054a7a50"
          },
          {
            "reference": "urn:uuid:7f8dd1bc-950a-4ade-b546-269c6a374e33"
          },
          {
            "reference": "urn:uuid:7b989dd3-baf5-47cf-bf7c-f3852c60d89c"
          },
          {
            "reference": "urn:uuid:797956b0-3fc3-4d28-9741-361f51534079"
          },
          {
            "reference": "urn:uuid:c0e57f73-f89f-4848-a518-22b860a6808e"
          },
          {
            "reference": "urn:uuid:7c64ef23-c692-437b-a010-2b0c3cfad365"
          },
          {
            "reference": "urn:uuid:a57c7024-de8e-428e-afec-bea8426b4c95"
          },
          {
            "reference": "urn:uuid:9ea6a492-c86f-4b83-a75e-0f8a05027cff"
          },
          {
            "reference": "urn:uuid:d90aaa2e-d913-48ba-9d42-c9b366761752"
          },
          {
            "reference": "urn:uuid:1e57c9bd-de1d-40e4-9395-cab735832599"
          },
          {
            "reference": "urn:uuid:7c82db0f-af95-445c-904e-4f822d1ff3e4"
          },
          {
            "reference": "urn:uuid:7239dff8-a6c1-4de1-8d4c-45b614c8d357"
          },
          {
            "reference": "urn:uuid:af1321da-5a04-4d1a-b9f6-1e011452157a"
          },
          {
            "reference": "urn:uuid:1cc47d76-f90e-4732-8539-e9bf272d1d45"
          },
          {
            "reference": "urn:uuid:86c0d6a6-3f91-49f8-96c3-735c87a310c9"
          },
          {
            "reference": "urn:uuid:cfc953e1-3b0a-4ad7-aa90-badb3c2e23f4"
          },
          {
            "reference": "urn:uuid:d9c30b0f-48d7-41f9-a89f-dc3c84161b2f"
          },
          {
            "reference": "urn:uuid:8cebea46-7c57-4aa9-9d4a-aa93f7fbe412"
          },
          {
            "reference": "urn:uuid:a9389829-5357-4b55-ac4c-7a2109fd177c"
          },
          {
            "reference": "urn:uuid:ee3293da-743f-4f72-b64f-bcebb47ad9be"
          },
          {
            "reference": "urn:uuid:b1c21584-2c21-45e9-9b35-0bff5e8b300b"
          },
          {
            "reference": "urn:uuid:7fe718db-b5c6-458d-9a89-9f3e7757a320"
          }
        ],
        "status": "registered",
        "code": {
          "coding": [
            {
              "code": "11502-2",
              "system": "http://loinc.org",
              "display": "Laboratory report"
            }
          ]
        },
        "subject": {
          "reference": "urn:uuid:808dd8f5-d645-4f31-82ba-3b401793ef29",
          "display": "Iva Kratochvílová"
        }
      }
    },
    {
      "fullUrl": "urn:uuid:808dd8f5-d645-4f31-82ba-3b401793ef29",
      "resource": {
        "resourceType": "Patient",
        "id": "808dd8f5-d645-4f31-82ba-3b401793ef29",
        "meta": {
          "security": [
            {
              "system": "http://terminology.hl7.org/CodeSystem/v3-ActReason",
              "code": "HTEST"
            },
            {
              "system": "http://terminology.hl7.org/CodeSystem/v3-ActReason",
              "code": "TRAIN"
            }
          ],
          "tag": [
            {
              "system": "https://synderai.net/fhir/CodeSystem/tags",
              "code": "synthetic",
              "display": "SYNDERAI Synthetic data"
            }
          ],
          "profile": [
            "http://hl7.eu/fhir/base/StructureDefinition/patient-eu-core"
          ]
        },
        "identifier": [
          {
            "type": {
              "coding": [
                {
                  "code": "PT",
                  "system": "http://terminology.hl7.org/CodeSystem/v2-0203"
                }
              ]
            },
            "system": "http://ec.europa.eu/identifier/eci",
            "value": "4380-389488-0"
          },
          {
            "type": {
              "coding": [
                {
                  "code": "MR",
                  "system": "http://terminology.hl7.org/CodeSystem/v2-0203"
                }
              ]
            },
            "system": "http://local.setting.eu/identifier",
            "value": "f8f9ebdc-03dd-2fc0-819c-affa4ffd7f67"
          }
        ],
        "name": [
          {
            "family": "Kratochvílová"
          },
          {
            "given": [
              "Iva"
            ]
          },
          {
            "text": "Iva Kratochvílová"
          }
        ],
        "address": [
          {
            "line": [
              "Žofie Podlipské 4"
            ],
            "use": "home",
            "type": "physical",
            "postalCode": "27324",
            "city": "Postoloprty",
            "country": "Czechia"
          }
        ],
        "telecom": [
          {
            "system": "phone",
            "value": "00420 607 985 072"
          }
        ],
        "extension": [
          {
            "url": "http://hl7.org/fhir/StructureDefinition/patient-nationality",
            "valueCodeableConcept": {
              "coding": [
                {
                  "code": "CZ",
                  "system": "http://hl7.org/fhir/ValueSet/country"
                }
              ]
            }
          }
        ],
        "text": {
          "status": "generated",
          "div": "<div xmlns=\"http://www.w3.org/1999/xhtml\"><table class=\"hl7__ips\"><tr><td>Iva Kratochvílová</td><td>female</td><td>17-Sep-1964</td></tr></table></div>"
        },
        "gender": "female",
        "birthDate": "1964-09-17"
      }
    },
    {
      "fullUrl": "urn:uuid:d055e61c-66fc-417a-8418-de45cfee8e92",
      "resource": {
        "resourceType": "ServiceRequest",
        "id": "d055e61c-66fc-417a-8418-de45cfee8e92",
        "meta": {
          "profile": [
            "http://hl7.eu/fhir/laboratory/StructureDefinition/ServiceRequest-eu-lab"
          ]
        },
        "identifier": [
          {
            "system": "http://example.org",
            "value": "62f2ba08-d36b-47d4-8de8-e22ad2f2d578"
          }
        ],
        "specimen": [
          {
            "reference": "urn:uuid:35ef8c06-c2f3-4fe1-9433-63cdc187bf9d"
          },
          {
            "reference": "urn:uuid:fd904072-2819-4067-8e40-fc7b5e14281c"
          },
          {
            "reference": "urn:uuid:b2846f0b-cfe3-4069-95b9-c34dceb848f1"
          }
        ],
        "reasonCode": [
          {
            "coding": [
              {
                "code": "431856006",
                "system": "http://snomed.info/sct",
                "display": "Chronic kidney disease stage 2"
              }
            ]
          },
          {
            "coding": [
              {
                "code": "431855005",
                "system": "http://snomed.info/sct",
                "display": "Chronic kidney disease stage 1"
              }
            ]
          },
          {
            "coding": [
              {
                "code": "237602007",
                "system": "http://snomed.info/sct",
                "display": "Metabolic syndrome X"
              }
            ]
          },
          {
            "coding": [
              {
                "code": "91302008",
                "system": "http://snomed.info/sct",
                "display": "Sepsis"
              }
            ]
          },
          {
            "coding": [
              {
                "code": "271737000",
                "system": "http://snomed.info/sct",
                "display": "Anemia"
              }
            ]
          },
          {
            "coding": [
              {
                "code": "15777000",
                "system": "http://snomed.info/sct",
                "display": "Prediabetes"
              }
            ]
          },
          {
            "coding": [
              {
                "code": "157141000119108",
                "system": "http://snomed.info/sct",
                "display": "Proteinuria due to type 2 diabetes mellitus"
              }
            ]
          },
          {
            "coding": [
              {
                "code": "90781000119102",
                "system": "http://snomed.info/sct",
                "display": "Microalbuminuria due to type 2 diabetes mellitus"
              }
            ]
          },
          {
            "coding": [
              {
                "code": "239872002",
                "system": "http://snomed.info/sct",
                "display": "Osteoarthritis of hip"
              }
            ]
          },
          {
            "coding": [
              {
                "code": "40055000",
                "system": "http://snomed.info/sct",
                "display": "Chronic sinusitis"
              }
            ]
          },
          {
            "coding": [
              {
                "code": "127013003",
                "system": "http://snomed.info/sct",
                "display": "Disorder of kidney due to diabetes mellitus"
              }
            ]
          },
          {
            "coding": [
              {
                "code": "59621000",
                "system": "http://snomed.info/sct",
                "display": "Essential hypertension"
              }
            ]
          }
        ],
        "status": "active",
        "intent": "order",
        "code": {
          "coding": [
            {
              "code": "108252007",
              "system": "http://snomed.info/sct",
              "display": "Laboratory procedure"
            }
          ]
        },
        "subject": {
          "reference": "urn:uuid:808dd8f5-d645-4f31-82ba-3b401793ef29",
          "display": "Iva Kratochvílová"
        },
        "requester": {
          "reference": "urn:uuid:3ff27d95-54db-401f-a1e0-6927997caf7e"
        }
      }
    },
    {
      "fullUrl": "urn:uuid:3ff27d95-54db-401f-a1e0-6927997caf7e",
      "resource": {
        "resourceType": "PractitionerRole",
        "id": "3ff27d95-54db-401f-a1e0-6927997caf7e",
        "meta": {
          "profile": [
            "http://hl7.eu/fhir/base/StructureDefinition/practitionerRole-eu"
          ]
        },
        "text": {
          "status": "generated",
          "div": "<div xmlns=\"http://www.w3.org/1999/xhtml\">Provider Role Id: 3ff27d95-54db-401f-a1e0-6927997caf7e</div>"
        },
        "organization": {
          "reference": "urn:uuid:7958764b-74f1-4a9e-9c95-40e18ded97c9"
        }
      }
    },
    {
      "fullUrl": "urn:uuid:7958764b-74f1-4a9e-9c95-40e18ded97c9",
      "resource": {
        "resourceType": "Organization",
        "id": "7958764b-74f1-4a9e-9c95-40e18ded97c9",
        "meta": {
          "profile": [
            "http://hl7.eu/fhir/base/StructureDefinition/organization-eu"
          ]
        },
        "identifier": [
          {
            "assigner": {
              "display": "HL7 Europe"
            },
            "system": "urn:oid:2.16.840.1.113883.2.51.999",
            "value": "47a9a1a9-ff6a-41bf-96a3-4bd77d1a5334"
          }
        ],
        "address": [
          {
            "city": "Kadaň",
            "postalCode": "432 01",
            "country": "Czechia"
          }
        ],
        "text": {
          "status": "generated",
          "div": "<div xmlns=\"http://www.w3.org/1999/xhtml\">Provider Organization: Nemocnice s poliklinikou Kadaň</div>"
        },
        "name": "Nemocnice s poliklinikou Kadaň"
      }
    },
    {
      "fullUrl": "urn:uuid:35ef8c06-c2f3-4fe1-9433-63cdc187bf9d",
      "resource": {
        "resourceType": "Specimen",
        "id": "35ef8c06-c2f3-4fe1-9433-63cdc187bf9d",
        "meta": {
          "profile": [
            "http://hl7.eu/fhir/laboratory/StructureDefinition/Specimen-eu-lab"
          ]
        },
        "collection": {
          "collectedDateTime": "2022-05-22"
        },
        "text": {
          "status": "generated",
          "div": "<div xmlns=\"http://www.w3.org/1999/xhtml\"><table class=\"hl7__eu__lab__report\"><tr><th>Specimen</th><th>Collection Date</th></tr><tr><td>Acellular blood (serum or plasma) specimen</td><td><span class=\"nb\">22-May-2022</span></td></tr></table></div>"
        },
        "type": {
          "coding": [
            {
              "code": "122592007",
              "system": "http://snomed.info/sct",
              "display": "Acellular blood (serum or plasma) specimen"
            }
          ]
        }
      }
    },
    {
      "fullUrl": "urn:uuid:fd904072-2819-4067-8e40-fc7b5e14281c",
      "resource": {
        "resourceType": "Specimen",
        "id": "fd904072-2819-4067-8e40-fc7b5e14281c",
        "meta": {
          "profile": [
            "http://hl7.eu/fhir/laboratory/StructureDefinition/Specimen-eu-lab"
          ]
        },
        "collection": {
          "collectedDateTime": "2022-05-22"
        },
        "text": {
          "status": "generated",
          "div": "<div xmlns=\"http://www.w3.org/1999/xhtml\"><table class=\"hl7__eu__lab__report\"><tr><th>Specimen</th><th>Collection Date</th></tr><tr><td>Urine specimen</td><td><span class=\"nb\">22-May-2022</span></td></tr></table></div>"
        },
        "type": {
          "coding": [
            {
              "code": "122575003",
              "system": "http://snomed.info/sct",
              "display": "Urine specimen"
            }
          ]
        }
      }
    },
    {
      "fullUrl": "urn:uuid:b2846f0b-cfe3-4069-95b9-c34dceb848f1",
      "resource": {
        "resourceType": "Specimen",
        "id": "b2846f0b-cfe3-4069-95b9-c34dceb848f1",
        "meta": {
          "profile": [
            "http://hl7.eu/fhir/laboratory/StructureDefinition/Specimen-eu-lab"
          ]
        },
        "collection": {
          "collectedDateTime": "2022-05-22"
        },
        "text": {
          "status": "generated",
          "div": "<div xmlns=\"http://www.w3.org/1999/xhtml\"><table class=\"hl7__eu__lab__report\"><tr><th>Specimen</th><th>Collection Date</th></tr><tr><td>Whole blood specimen (specimen)</td><td><span class=\"nb\">22-May-2022</span></td></tr></table></div>"
        },
        "type": {
          "coding": [
            {
              "code": "258580003",
              "system": "http://snomed.info/sct",
              "display": "Whole blood specimen (specimen)"
            }
          ]
        }
      }
    },
    {
      "fullUrl": "urn:uuid:e2daf25b-ed5a-4b2c-afc9-53b8c2542a47",
      "resource": {
        "resourceType": "Observation",
        "id": "e2daf25b-ed5a-4b2c-afc9-53b8c2542a47",
        "meta": {
          "profile": [
            "http://hl7.eu/fhir/laboratory/StructureDefinition/Observation-resultslab-eu-lab"
          ]
        },
        "performer": [
          {
            "display": "The Central European Lab"
          }
        ],
        "category": [
          {
            "coding": [
              {
                "system": "http://terminology.hl7.org/CodeSystem/observation-category",
                "code": "laboratory"
              }
            ]
          }
        ],
        "code": {
          "coding": [
            {
              "code": "2345-7",
              "system": "http://loinc.org",
              "display": "Glucose [Mass/volume] in Serum or Plasma"
            }
          ],
          "text": "Glucose [Mass/volume] in Serum or Plasma"
        },
        "valueQuantity": {
          "system": "http://unitsofmeasure.org",
          "value": 99.4,
          "unit": "mg/dL",
          "code": "mg/dL"
        },
        "referenceRange": [
          {
            "low": {
              "value": 70,
              "code": "mg/dL",
              "system": "http://unitsofmeasure.org"
            }
          },
          {
            "high": {
              "value": 99,
              "code": "mg/dL",
              "system": "http://unitsofmeasure.org"
            }
          }
        ],
        "interpretation": [
          {
            "coding": [
              {
                "code": "H",
                "system": "http://terminology.hl7.org/CodeSystem/v3-ObservationInterpretation",
                "display": "High"
              }
            ]
          }
        ],
        "text": {
          "status": "generated",
          "div": "<div xmlns=\"http://www.w3.org/1999/xhtml\"><table class=\"hl7__eu__lab__report\"><tr><th>Test</th><th>22-May-2022</th><th>Reference&#xA0;Range</th><th>Unit</th></tr><tr><td>Glucose [Mass/volume] in Serum or Plasma</td><td>99.4</td><td>70 - 99</td><td>H</td><td>mg/dL</td></tr></table></div>"
        },
        "status": "final",
        "subject": {
          "reference": "urn:uuid:808dd8f5-d645-4f31-82ba-3b401793ef29",
          "display": "Iva Kratochvílová"
        },
        "effectiveDateTime": "2022-05-22T16:10:29Z",
        "specimen": {
          "reference": "urn:uuid:35ef8c06-c2f3-4fe1-9433-63cdc187bf9d"
        }
      }
    },
    {
      "fullUrl": "urn:uuid:c6505e65-cd0b-4119-994c-3ac01b88bafa",
      "resource": {
        "resourceType": "Observation",
        "id": "c6505e65-cd0b-4119-994c-3ac01b88bafa",
        "meta": {
          "profile": [
            "http://hl7.eu/fhir/laboratory/StructureDefinition/Observation-resultslab-eu-lab"
          ]
        },
        "performer": [
          {
            "display": "The Central European Lab"
          }
        ],
        "category": [
          {
            "coding": [
              {
                "system": "http://terminology.hl7.org/CodeSystem/observation-category",
                "code": "laboratory"
              }
            ]
          }
        ],
        "code": {
          "coding": [
            {
              "code": "3094-0",
              "system": "http://loinc.org",
              "display": "Urea nitrogen [Mass/volume] in Serum or Plasma"
            }
          ],
          "text": "Urea nitrogen [Mass/volume] in Serum or Plasma"
        },
        "valueQuantity": {
          "system": "http://unitsofmeasure.org",
          "value": 8.3,
          "unit": "mg/dL",
          "code": "mg/dL"
        },
        "referenceRange": [
          {
            "low": {
              "value": 7,
              "code": "mg/dL",
              "system": "http://unitsofmeasure.org"
            }
          },
          {
            "high": {
              "value": 20,
              "code": "mg/dL",
              "system": "http://unitsofmeasure.org"
            }
          }
        ],
        "text": {
          "status": "generated",
          "div": "<div xmlns=\"http://www.w3.org/1999/xhtml\"><table class=\"hl7__eu__lab__report\"><tr><th>Test</th><th>22-May-2022</th><th>Reference&#xA0;Range</th><th>Unit</th></tr><tr><td>Urea nitrogen [Mass/volume] in Serum or Plasma</td><td>8.3</td><td>7 - 20</td><td></td><td>mg/dL</td></tr></table></div>"
        },
        "status": "final",
        "subject": {
          "reference": "urn:uuid:808dd8f5-d645-4f31-82ba-3b401793ef29",
          "display": "Iva Kratochvílová"
        },
        "effectiveDateTime": "2022-05-22T16:10:29Z",
        "specimen": {
          "reference": "urn:uuid:35ef8c06-c2f3-4fe1-9433-63cdc187bf9d"
        }
      }
    },
    {
      "fullUrl": "urn:uuid:7b60c8f3-2888-4a22-b689-f8df3bcbd6b0",
      "resource": {
        "resourceType": "Observation",
        "id": "7b60c8f3-2888-4a22-b689-f8df3bcbd6b0",
        "meta": {
          "profile": [
            "http://hl7.eu/fhir/laboratory/StructureDefinition/Observation-resultslab-eu-lab"
          ]
        },
        "performer": [
          {
            "display": "The Central European Lab"
          }
        ],
        "category": [
          {
            "coding": [
              {
                "system": "http://terminology.hl7.org/CodeSystem/observation-category",
                "code": "laboratory"
              }
            ]
          }
        ],
        "code": {
          "coding": [
            {
              "code": "2160-0",
              "system": "http://loinc.org",
              "display": "Creatinine [Mass/volume] in Serum or Plasma"
            }
          ],
          "text": "Creatinine [Mass/volume] in Serum or Plasma"
        },
        "valueQuantity": {
          "system": "http://unitsofmeasure.org",
          "value": 1.9,
          "unit": "mg/dL",
          "code": "mg/dL"
        },
        "referenceRange": [
          {
            "low": {
              "value": 0.6,
              "code": "mg/dL",
              "system": "http://unitsofmeasure.org"
            }
          },
          {
            "high": {
              "value": 1.3,
              "code": "mg/dL",
              "system": "http://unitsofmeasure.org"
            }
          }
        ],
        "interpretation": [
          {
            "coding": [
              {
                "code": "H",
                "system": "http://terminology.hl7.org/CodeSystem/v3-ObservationInterpretation",
                "display": "High"
              }
            ]
          }
        ],
        "text": {
          "status": "generated",
          "div": "<div xmlns=\"http://www.w3.org/1999/xhtml\"><table class=\"hl7__eu__lab__report\"><tr><th>Test</th><th>22-May-2022</th><th>Reference&#xA0;Range</th><th>Unit</th></tr><tr><td>Creatinine [Mass/volume] in Serum or Plasma</td><td>1.9</td><td>0.6 - 1.3</td><td>H</td><td>mg/dL</td></tr></table></div>"
        },
        "status": "final",
        "subject": {
          "reference": "urn:uuid:808dd8f5-d645-4f31-82ba-3b401793ef29",
          "display": "Iva Kratochvílová"
        },
        "effectiveDateTime": "2022-05-22T16:10:29Z",
        "specimen": {
          "reference": "urn:uuid:35ef8c06-c2f3-4fe1-9433-63cdc187bf9d"
        }
      }
    },
    {
      "fullUrl": "urn:uuid:8253d58b-4728-411e-bbc8-a0696b1c923e",
      "resource": {
        "resourceType": "Observation",
        "id": "8253d58b-4728-411e-bbc8-a0696b1c923e",
        "meta": {
          "profile": [
            "http://hl7.eu/fhir/laboratory/StructureDefinition/Observation-resultslab-eu-lab"
          ]
        },
        "performer": [
          {
            "display": "The Central European Lab"
          }
        ],
        "category": [
          {
            "coding": [
              {
                "system": "http://terminology.hl7.org/CodeSystem/observation-category",
                "code": "laboratory"
              }
            ]
          }
        ],
        "code": {
          "coding": [
            {
              "code": "17861-6",
              "system": "http://loinc.org",
              "display": "Calcium [Mass/volume] in Serum or Plasma"
            }
          ],
          "text": "Calcium [Mass/volume] in Serum or Plasma"
        },
        "valueQuantity": {
          "system": "http://unitsofmeasure.org",
          "value": 10.1,
          "unit": "mg/dL",
          "code": "mg/dL"
        },
        "referenceRange": [
          {
            "low": {
              "value": 8.6,
              "code": "mg/dL",
              "system": "http://unitsofmeasure.org"
            }
          },
          {
            "high": {
              "value": 10.4,
              "code": "mg/dL",
              "system": "http://unitsofmeasure.org"
            }
          }
        ],
        "text": {
          "status": "generated",
          "div": "<div xmlns=\"http://www.w3.org/1999/xhtml\"><table class=\"hl7__eu__lab__report\"><tr><th>Test</th><th>22-May-2022</th><th>Reference&#xA0;Range</th><th>Unit</th></tr><tr><td>Calcium [Mass/volume] in Serum or Plasma</td><td>10.1</td><td>8.6 - 10.4</td><td></td><td>mg/dL</td></tr></table></div>"
        },
        "status": "final",
        "subject": {
          "reference": "urn:uuid:808dd8f5-d645-4f31-82ba-3b401793ef29",
          "display": "Iva Kratochvílová"
        },
        "effectiveDateTime": "2022-05-22T16:10:29Z",
        "specimen": {
          "reference": "urn:uuid:35ef8c06-c2f3-4fe1-9433-63cdc187bf9d"
        }
      }
    },
    {
      "fullUrl": "urn:uuid:1f3de2eb-0885-4ece-80f7-6fb0522dfb13",
      "resource": {
        "resourceType": "Observation",
        "id": "1f3de2eb-0885-4ece-80f7-6fb0522dfb13",
        "meta": {
          "profile": [
            "http://hl7.eu/fhir/laboratory/StructureDefinition/Observation-resultslab-eu-lab"
          ]
        },
        "performer": [
          {
            "display": "The Central European Lab"
          }
        ],
        "category": [
          {
            "coding": [
              {
                "system": "http://terminology.hl7.org/CodeSystem/observation-category",
                "code": "laboratory"
              }
            ]
          }
        ],
        "code": {
          "coding": [
            {
              "code": "2951-2",
              "system": "http://loinc.org",
              "display": "Sodium [Moles/volume] in Serum or Plasma"
            }
          ],
          "text": "Sodium [Moles/volume] in Serum or Plasma"
        },
        "valueQuantity": {
          "system": "http://unitsofmeasure.org",
          "value": 137.6,
          "unit": "mmol/L",
          "code": "mmol/L"
        },
        "referenceRange": [
          {
            "low": {
              "value": 135,
              "code": "mmol/L",
              "system": "http://unitsofmeasure.org"
            }
          },
          {
            "high": {
              "value": 145,
              "code": "mmol/L",
              "system": "http://unitsofmeasure.org"
            }
          }
        ],
        "text": {
          "status": "generated",
          "div": "<div xmlns=\"http://www.w3.org/1999/xhtml\"><table class=\"hl7__eu__lab__report\"><tr><th>Test</th><th>22-May-2022</th><th>Reference&#xA0;Range</th><th>Unit</th></tr><tr><td>Sodium [Moles/volume] in Serum or Plasma</td><td>137.6</td><td>135 - 145</td><td></td><td>mmol/L</td></tr></table></div>"
        },
        "status": "final",
        "subject": {
          "reference": "urn:uuid:808dd8f5-d645-4f31-82ba-3b401793ef29",
          "display": "Iva Kratochvílová"
        },
        "effectiveDateTime": "2022-05-22T16:10:29Z",
        "specimen": {
          "reference": "urn:uuid:35ef8c06-c2f3-4fe1-9433-63cdc187bf9d"
        }
      }
    },
    {
      "fullUrl": "urn:uuid:a9add3a8-7b15-4f19-9074-8664ff9f2304",
      "resource": {
        "resourceType": "Observation",
        "id": "a9add3a8-7b15-4f19-9074-8664ff9f2304",
        "meta": {
          "profile": [
            "http://hl7.eu/fhir/laboratory/StructureDefinition/Observation-resultslab-eu-lab"
          ]
        },
        "performer": [
          {
            "display": "The Central European Lab"
          }
        ],
        "category": [
          {
            "coding": [
              {
                "system": "http://terminology.hl7.org/CodeSystem/observation-category",
                "code": "laboratory"
              }
            ]
          }
        ],
        "code": {
          "coding": [
            {
              "code": "2823-3",
              "system": "http://loinc.org",
              "display": "Potassium [Moles/volume] in Serum or Plasma"
            }
          ],
          "text": "Potassium [Moles/volume] in Serum or Plasma"
        },
        "valueQuantity": {
          "system": "http://unitsofmeasure.org",
          "value": 4.7,
          "unit": "mmol/L",
          "code": "mmol/L"
        },
        "referenceRange": [
          {
            "low": {
              "value": 3.5,
              "code": "mmol/L",
              "system": "http://unitsofmeasure.org"
            }
          },
          {
            "high": {
              "value": 5,
              "code": "mmol/L",
              "system": "http://unitsofmeasure.org"
            }
          }
        ],
        "text": {
          "status": "generated",
          "div": "<div xmlns=\"http://www.w3.org/1999/xhtml\"><table class=\"hl7__eu__lab__report\"><tr><th>Test</th><th>22-May-2022</th><th>Reference&#xA0;Range</th><th>Unit</th></tr><tr><td>Potassium [Moles/volume] in Serum or Plasma</td><td>4.7</td><td>3.5 - 5</td><td></td><td>mmol/L</td></tr></table></div>"
        },
        "status": "final",
        "subject": {
          "reference": "urn:uuid:808dd8f5-d645-4f31-82ba-3b401793ef29",
          "display": "Iva Kratochvílová"
        },
        "effectiveDateTime": "2022-05-22T16:10:29Z",
        "specimen": {
          "reference": "urn:uuid:35ef8c06-c2f3-4fe1-9433-63cdc187bf9d"
        }
      }
    },
    {
      "fullUrl": "urn:uuid:e73b1f80-c70d-4296-8220-0e775fda09a6",
      "resource": {
        "resourceType": "Observation",
        "id": "e73b1f80-c70d-4296-8220-0e775fda09a6",
        "meta": {
          "profile": [
            "http://hl7.eu/fhir/laboratory/StructureDefinition/Observation-resultslab-eu-lab"
          ]
        },
        "performer": [
          {
            "display": "The Central European Lab"
          }
        ],
        "category": [
          {
            "coding": [
              {
                "system": "http://terminology.hl7.org/CodeSystem/observation-category",
                "code": "laboratory"
              }
            ]
          }
        ],
        "code": {
          "coding": [
            {
              "code": "2075-0",
              "system": "http://loinc.org",
              "display": "Chloride [Moles/volume] in Serum or Plasma"
            }
          ],
          "text": "Chloride [Moles/volume] in Serum or Plasma"
        },
        "valueQuantity": {
          "system": "http://unitsofmeasure.org",
          "value": 110.3,
          "unit": "mmol/L",
          "code": "mmol/L"
        },
        "referenceRange": [
          {
            "low": {
              "value": 98,
              "code": "mmol/L",
              "system": "http://unitsofmeasure.org"
            }
          },
          {
            "high": {
              "value": 106,
              "code": "mmol/L",
              "system": "http://unitsofmeasure.org"
            }
          }
        ],
        "interpretation": [
          {
            "coding": [
              {
                "code": "H",
                "system": "http://terminology.hl7.org/CodeSystem/v3-ObservationInterpretation",
                "display": "High"
              }
            ]
          }
        ],
        "text": {
          "status": "generated",
          "div": "<div xmlns=\"http://www.w3.org/1999/xhtml\"><table class=\"hl7__eu__lab__report\"><tr><th>Test</th><th>22-May-2022</th><th>Reference&#xA0;Range</th><th>Unit</th></tr><tr><td>Chloride [Moles/volume] in Serum or Plasma</td><td>110.3</td><td>98 - 106</td><td>H</td><td>mmol/L</td></tr></table></div>"
        },
        "status": "final",
        "subject": {
          "reference": "urn:uuid:808dd8f5-d645-4f31-82ba-3b401793ef29",
          "display": "Iva Kratochvílová"
        },
        "effectiveDateTime": "2022-05-22T16:10:29Z",
        "specimen": {
          "reference": "urn:uuid:35ef8c06-c2f3-4fe1-9433-63cdc187bf9d"
        }
      }
    },
    {
      "fullUrl": "urn:uuid:6fbae862-2a4d-49c4-96ed-a7cde7c3e2f9",
      "resource": {
        "resourceType": "Observation",
        "id": "6fbae862-2a4d-49c4-96ed-a7cde7c3e2f9",
        "meta": {
          "profile": [
            "http://hl7.eu/fhir/laboratory/StructureDefinition/Observation-resultslab-eu-lab"
          ]
        },
        "performer": [
          {
            "display": "The Central European Lab"
          }
        ],
        "category": [
          {
            "coding": [
              {
                "system": "http://terminology.hl7.org/CodeSystem/observation-category",
                "code": "laboratory"
              }
            ]
          }
        ],
        "code": {
          "coding": [
            {
              "code": "2028-9",
              "system": "http://loinc.org",
              "display": "Carbon dioxide, total [Moles/volume] in Serum or Plasma"
            }
          ],
          "text": "Carbon dioxide, total [Moles/volume] in Serum or Plasma"
        },
        "valueQuantity": {
          "system": "http://unitsofmeasure.org",
          "value": 23.1,
          "unit": "mmol/L",
          "code": "mmol/L"
        },
        "referenceRange": [
          {
            "low": {
              "value": 22,
              "code": "mmol/L",
              "system": "http://unitsofmeasure.org"
            }
          },
          {
            "high": {
              "value": 29,
              "code": "mmol/L",
              "system": "http://unitsofmeasure.org"
            }
          }
        ],
        "text": {
          "status": "generated",
          "div": "<div xmlns=\"http://www.w3.org/1999/xhtml\"><table class=\"hl7__eu__lab__report\"><tr><th>Test</th><th>22-May-2022</th><th>Reference&#xA0;Range</th><th>Unit</th></tr><tr><td>Carbon dioxide, total [Moles/volume] in Serum or Plasma</td><td>23.1</td><td>22 - 29</td><td></td><td>mmol/L</td></tr></table></div>"
        },
        "status": "final",
        "subject": {
          "reference": "urn:uuid:808dd8f5-d645-4f31-82ba-3b401793ef29",
          "display": "Iva Kratochvílová"
        },
        "effectiveDateTime": "2022-05-22T16:10:29Z",
        "specimen": {
          "reference": "urn:uuid:35ef8c06-c2f3-4fe1-9433-63cdc187bf9d"
        }
      }
    },
    {
      "fullUrl": "urn:uuid:a9d2d462-266e-4433-a84f-bd6f3c67d89d",
      "resource": {
        "resourceType": "Observation",
        "id": "a9d2d462-266e-4433-a84f-bd6f3c67d89d",
        "meta": {
          "profile": [
            "http://hl7.eu/fhir/laboratory/StructureDefinition/Observation-resultslab-eu-lab"
          ]
        },
        "performer": [
          {
            "display": "The Central European Lab"
          }
        ],
        "category": [
          {
            "coding": [
              {
                "system": "http://terminology.hl7.org/CodeSystem/observation-category",
                "code": "laboratory"
              }
            ]
          }
        ],
        "code": {
          "coding": [
            {
              "code": "5767-9",
              "system": "http://loinc.org",
              "display": "Appearance of Urine"
            }
          ],
          "text": "Appearance of Urine"
        },
        "text": {
          "status": "generated",
          "div": "<div xmlns=\"http://www.w3.org/1999/xhtml\"><table class=\"hl7__eu__lab__report\"><tr><th>Test</th><th>22-May-2022</th><th>Reference&#xA0;Range</th><th>Unit</th></tr><tr><td>Appearance of Urine</td></tr></table></div>"
        },
        "status": "final",
        "subject": {
          "reference": "urn:uuid:808dd8f5-d645-4f31-82ba-3b401793ef29",
          "display": "Iva Kratochvílová"
        },
        "effectiveDateTime": "2022-05-22T16:10:29Z",
        "specimen": {
          "reference": "urn:uuid:fd904072-2819-4067-8e40-fc7b5e14281c"
        }
      }
    },
    {
      "fullUrl": "urn:uuid:d12d031d-e5ad-44f3-b751-600cb5c9f064",
      "resource": {
        "resourceType": "Observation",
        "id": "d12d031d-e5ad-44f3-b751-600cb5c9f064",
        "meta": {
          "profile": [
            "http://hl7.eu/fhir/laboratory/StructureDefinition/Observation-resultslab-eu-lab"
          ]
        },
        "performer": [
          {
            "display": "The Central European Lab"
          }
        ],
        "category": [
          {
            "coding": [
              {
                "system": "http://terminology.hl7.org/CodeSystem/observation-category",
                "code": "laboratory"
              }
            ]
          }
        ],
        "code": {
          "coding": [
            {
              "code": "34533-0",
              "system": "http://loinc.org",
              "display": "Odor of Urine"
            }
          ],
          "text": "Odor of Urine"
        },
        "text": {
          "status": "generated",
          "div": "<div xmlns=\"http://www.w3.org/1999/xhtml\"><table class=\"hl7__eu__lab__report\"><tr><th>Test</th><th>22-May-2022</th><th>Reference&#xA0;Range</th><th>Unit</th></tr><tr><td>Odor of Urine</td></tr></table></div>"
        },
        "status": "final",
        "subject": {
          "reference": "urn:uuid:808dd8f5-d645-4f31-82ba-3b401793ef29",
          "display": "Iva Kratochvílová"
        },
        "effectiveDateTime": "2022-05-22T16:10:29Z",
        "specimen": {
          "reference": "urn:uuid:fd904072-2819-4067-8e40-fc7b5e14281c"
        }
      }
    },
    {
      "fullUrl": "urn:uuid:16f3a949-5da4-4a4d-af4f-b2fc9e1a8dee",
      "resource": {
        "resourceType": "Observation",
        "id": "16f3a949-5da4-4a4d-af4f-b2fc9e1a8dee",
        "meta": {
          "profile": [
            "http://hl7.eu/fhir/laboratory/StructureDefinition/Observation-resultslab-eu-lab"
          ]
        },
        "performer": [
          {
            "display": "The Central European Lab"
          }
        ],
        "category": [
          {
            "coding": [
              {
                "system": "http://terminology.hl7.org/CodeSystem/observation-category",
                "code": "laboratory"
              }
            ]
          }
        ],
        "code": {
          "coding": [
            {
              "code": "32167-9",
              "system": "http://loinc.org",
              "display": "Clarity of Urine"
            }
          ],
          "text": "Clarity of Urine"
        },
        "text": {
          "status": "generated",
          "div": "<div xmlns=\"http://www.w3.org/1999/xhtml\"><table class=\"hl7__eu__lab__report\"><tr><th>Test</th><th>22-May-2022</th><th>Reference&#xA0;Range</th><th>Unit</th></tr><tr><td>Clarity of Urine</td></tr></table></div>"
        },
        "status": "final",
        "subject": {
          "reference": "urn:uuid:808dd8f5-d645-4f31-82ba-3b401793ef29",
          "display": "Iva Kratochvílová"
        },
        "effectiveDateTime": "2022-05-22T16:10:29Z",
        "specimen": {
          "reference": "urn:uuid:fd904072-2819-4067-8e40-fc7b5e14281c"
        }
      }
    },
    {
      "fullUrl": "urn:uuid:5591b2ac-c782-4273-85d9-f5d3a0be4041",
      "resource": {
        "resourceType": "Observation",
        "id": "5591b2ac-c782-4273-85d9-f5d3a0be4041",
        "meta": {
          "profile": [
            "http://hl7.eu/fhir/laboratory/StructureDefinition/Observation-resultslab-eu-lab"
          ]
        },
        "performer": [
          {
            "display": "The Central European Lab"
          }
        ],
        "category": [
          {
            "coding": [
              {
                "system": "http://terminology.hl7.org/CodeSystem/observation-category",
                "code": "laboratory"
              }
            ]
          }
        ],
        "code": {
          "coding": [
            {
              "code": "5778-6",
              "system": "http://loinc.org",
              "display": "Color of Urine"
            }
          ],
          "text": "Color of Urine"
        },
        "text": {
          "status": "generated",
          "div": "<div xmlns=\"http://www.w3.org/1999/xhtml\"><table class=\"hl7__eu__lab__report\"><tr><th>Test</th><th>22-May-2022</th><th>Reference&#xA0;Range</th><th>Unit</th></tr><tr><td>Color of Urine</td></tr></table></div>"
        },
        "status": "final",
        "subject": {
          "reference": "urn:uuid:808dd8f5-d645-4f31-82ba-3b401793ef29",
          "display": "Iva Kratochvílová"
        },
        "effectiveDateTime": "2022-05-22T16:10:29Z",
        "specimen": {
          "reference": "urn:uuid:fd904072-2819-4067-8e40-fc7b5e14281c"
        }
      }
    },
    {
      "fullUrl": "urn:uuid:a78ed613-eeab-4324-9fb5-d2b5054a7a50",
      "resource": {
        "resourceType": "Observation",
        "id": "a78ed613-eeab-4324-9fb5-d2b5054a7a50",
        "meta": {
          "profile": [
            "http://hl7.eu/fhir/laboratory/StructureDefinition/Observation-resultslab-eu-lab"
          ]
        },
        "performer": [
          {
            "display": "The Central European Lab"
          }
        ],
        "category": [
          {
            "coding": [
              {
                "system": "http://terminology.hl7.org/CodeSystem/observation-category",
                "code": "laboratory"
              }
            ]
          }
        ],
        "code": {
          "coding": [
            {
              "code": "5792-7",
              "system": "http://loinc.org",
              "display": "Glucose [Mass/volume] in Urine by Test strip"
            }
          ],
          "text": "Glucose [Mass/volume] in Urine by Test strip"
        },
        "valueQuantity": {
          "system": "http://unitsofmeasure.org",
          "value": 2.2,
          "unit": "mg/dL",
          "code": "mg/dL"
        },
        "referenceRange": [
          {
            "low": {
              "value": 0,
              "code": "mg/dL",
              "system": "http://unitsofmeasure.org"
            }
          },
          {
            "high": {
              "value": 0.8,
              "code": "mg/dL",
              "system": "http://unitsofmeasure.org"
            }
          }
        ],
        "interpretation": [
          {
            "coding": [
              {
                "code": "H",
                "system": "http://terminology.hl7.org/CodeSystem/v3-ObservationInterpretation",
                "display": "High"
              }
            ]
          }
        ],
        "text": {
          "status": "generated",
          "div": "<div xmlns=\"http://www.w3.org/1999/xhtml\"><table class=\"hl7__eu__lab__report\"><tr><th>Test</th><th>22-May-2022</th><th>Reference&#xA0;Range</th><th>Unit</th></tr><tr><td>Glucose [Mass/volume] in Urine by Test strip</td><td>2.2</td><td>0 - 0.8</td><td>H</td><td>mg/dL</td></tr></table></div>"
        },
        "status": "final",
        "subject": {
          "reference": "urn:uuid:808dd8f5-d645-4f31-82ba-3b401793ef29",
          "display": "Iva Kratochvílová"
        },
        "effectiveDateTime": "2022-05-22T16:10:29Z",
        "specimen": {
          "reference": "urn:uuid:fd904072-2819-4067-8e40-fc7b5e14281c"
        }
      }
    },
    {
      "fullUrl": "urn:uuid:7f8dd1bc-950a-4ade-b546-269c6a374e33",
      "resource": {
        "resourceType": "Observation",
        "id": "7f8dd1bc-950a-4ade-b546-269c6a374e33",
        "meta": {
          "profile": [
            "http://hl7.eu/fhir/laboratory/StructureDefinition/Observation-resultslab-eu-lab"
          ]
        },
        "performer": [
          {
            "display": "The Central European Lab"
          }
        ],
        "category": [
          {
            "coding": [
              {
                "system": "http://terminology.hl7.org/CodeSystem/observation-category",
                "code": "laboratory"
              }
            ]
          }
        ],
        "code": {
          "coding": [
            {
              "code": "25428-4",
              "system": "http://loinc.org",
              "display": "Glucose [Presence] in Urine by Test strip"
            }
          ],
          "text": "Glucose [Presence] in Urine by Test strip"
        },
        "text": {
          "status": "generated",
          "div": "<div xmlns=\"http://www.w3.org/1999/xhtml\"><table class=\"hl7__eu__lab__report\"><tr><th>Test</th><th>22-May-2022</th><th>Reference&#xA0;Range</th><th>Unit</th></tr><tr><td>Glucose [Presence] in Urine by Test strip</td></tr></table></div>"
        },
        "status": "final",
        "subject": {
          "reference": "urn:uuid:808dd8f5-d645-4f31-82ba-3b401793ef29",
          "display": "Iva Kratochvílová"
        },
        "effectiveDateTime": "2022-05-22T16:10:29Z",
        "specimen": {
          "reference": "urn:uuid:fd904072-2819-4067-8e40-fc7b5e14281c"
        }
      }
    },
    {
      "fullUrl": "urn:uuid:7b989dd3-baf5-47cf-bf7c-f3852c60d89c",
      "resource": {
        "resourceType": "Observation",
        "id": "7b989dd3-baf5-47cf-bf7c-f3852c60d89c",
        "meta": {
          "profile": [
            "http://hl7.eu/fhir/laboratory/StructureDefinition/Observation-resultslab-eu-lab"
          ]
        },
        "performer": [
          {
            "display": "The Central European Lab"
          }
        ],
        "category": [
          {
            "coding": [
              {
                "system": "http://terminology.hl7.org/CodeSystem/observation-category",
                "code": "laboratory"
              }
            ]
          }
        ],
        "code": {
          "coding": [
            {
              "code": "20505-4",
              "system": "http://loinc.org",
              "display": "Bilirubin.total [Mass/volume] in Urine by Test strip"
            }
          ],
          "text": "Bilirubin.total [Mass/volume] in Urine by Test strip"
        },
        "valueQuantity": {
          "system": "http://unitsofmeasure.org",
          "value": 0.8,
          "unit": "mg/dL",
          "code": "mg/dL"
        },
        "referenceRange": [
          {
            "low": {
              "value": 0,
              "code": "mg/dL",
              "system": "http://unitsofmeasure.org"
            }
          },
          {
            "high": {
              "value": 1,
              "code": "mg/dL",
              "system": "http://unitsofmeasure.org"
            }
          }
        ],
        "text": {
          "status": "generated",
          "div": "<div xmlns=\"http://www.w3.org/1999/xhtml\"><table class=\"hl7__eu__lab__report\"><tr><th>Test</th><th>22-May-2022</th><th>Reference&#xA0;Range</th><th>Unit</th></tr><tr><td>Bilirubin.total [Mass/volume] in Urine by Test strip</td><td>0.8</td><td>0 - 1</td><td></td><td>mg/dL</td></tr></table></div>"
        },
        "status": "final",
        "subject": {
          "reference": "urn:uuid:808dd8f5-d645-4f31-82ba-3b401793ef29",
          "display": "Iva Kratochvílová"
        },
        "effectiveDateTime": "2022-05-22T16:10:29Z",
        "specimen": {
          "reference": "urn:uuid:fd904072-2819-4067-8e40-fc7b5e14281c"
        }
      }
    },
    {
      "fullUrl": "urn:uuid:797956b0-3fc3-4d28-9741-361f51534079",
      "resource": {
        "resourceType": "Observation",
        "id": "797956b0-3fc3-4d28-9741-361f51534079",
        "meta": {
          "profile": [
            "http://hl7.eu/fhir/laboratory/StructureDefinition/Observation-resultslab-eu-lab"
          ]
        },
        "performer": [
          {
            "display": "The Central European Lab"
          }
        ],
        "category": [
          {
            "coding": [
              {
                "system": "http://terminology.hl7.org/CodeSystem/observation-category",
                "code": "laboratory"
              }
            ]
          }
        ],
        "code": {
          "coding": [
            {
              "code": "5770-3",
              "system": "http://loinc.org",
              "display": "Bilirubin.total [Presence] in Urine by Test strip"
            }
          ],
          "text": "Bilirubin.total [Presence] in Urine by Test strip"
        },
        "text": {
          "status": "generated",
          "div": "<div xmlns=\"http://www.w3.org/1999/xhtml\"><table class=\"hl7__eu__lab__report\"><tr><th>Test</th><th>22-May-2022</th><th>Reference&#xA0;Range</th><th>Unit</th></tr><tr><td>Bilirubin.total [Presence] in Urine by Test strip</td></tr></table></div>"
        },
        "status": "final",
        "subject": {
          "reference": "urn:uuid:808dd8f5-d645-4f31-82ba-3b401793ef29",
          "display": "Iva Kratochvílová"
        },
        "effectiveDateTime": "2022-05-22T16:10:29Z",
        "specimen": {
          "reference": "urn:uuid:fd904072-2819-4067-8e40-fc7b5e14281c"
        }
      }
    },
    {
      "fullUrl": "urn:uuid:c0e57f73-f89f-4848-a518-22b860a6808e",
      "resource": {
        "resourceType": "Observation",
        "id": "c0e57f73-f89f-4848-a518-22b860a6808e",
        "meta": {
          "profile": [
            "http://hl7.eu/fhir/laboratory/StructureDefinition/Observation-resultslab-eu-lab"
          ]
        },
        "performer": [
          {
            "display": "The Central European Lab"
          }
        ],
        "category": [
          {
            "coding": [
              {
                "system": "http://terminology.hl7.org/CodeSystem/observation-category",
                "code": "laboratory"
              }
            ]
          }
        ],
        "code": {
          "coding": [
            {
              "code": "5797-6",
              "system": "http://loinc.org",
              "display": "Ketones [Mass/volume] in Urine by Test strip"
            }
          ],
          "text": "Ketones [Mass/volume] in Urine by Test strip"
        },
        "valueQuantity": {
          "system": "http://unitsofmeasure.org",
          "value": 2.9,
          "unit": "mg/dL",
          "code": "mg/dL"
        },
        "referenceRange": [
          {
            "low": {
              "value": 0,
              "code": "mg/dL",
              "system": "http://unitsofmeasure.org"
            }
          },
          {
            "high": {
              "value": 4,
              "code": "mg/dL",
              "system": "http://unitsofmeasure.org"
            }
          }
        ],
        "text": {
          "status": "generated",
          "div": "<div xmlns=\"http://www.w3.org/1999/xhtml\"><table class=\"hl7__eu__lab__report\"><tr><th>Test</th><th>22-May-2022</th><th>Reference&#xA0;Range</th><th>Unit</th></tr><tr><td>Ketones [Mass/volume] in Urine by Test strip</td><td>2.9</td><td>0 - 4</td><td></td><td>mg/dL</td></tr></table></div>"
        },
        "status": "final",
        "subject": {
          "reference": "urn:uuid:808dd8f5-d645-4f31-82ba-3b401793ef29",
          "display": "Iva Kratochvílová"
        },
        "effectiveDateTime": "2022-05-22T16:10:29Z",
        "specimen": {
          "reference": "urn:uuid:fd904072-2819-4067-8e40-fc7b5e14281c"
        }
      }
    },
    {
      "fullUrl": "urn:uuid:7c64ef23-c692-437b-a010-2b0c3cfad365",
      "resource": {
        "resourceType": "Observation",
        "id": "7c64ef23-c692-437b-a010-2b0c3cfad365",
        "meta": {
          "profile": [
            "http://hl7.eu/fhir/laboratory/StructureDefinition/Observation-resultslab-eu-lab"
          ]
        },
        "performer": [
          {
            "display": "The Central European Lab"
          }
        ],
        "category": [
          {
            "coding": [
              {
                "system": "http://terminology.hl7.org/CodeSystem/observation-category",
                "code": "laboratory"
              }
            ]
          }
        ],
        "code": {
          "coding": [
            {
              "code": "2514-8",
              "system": "http://loinc.org",
              "display": "Ketones [Presence] in Urine by Test strip"
            }
          ],
          "text": "Ketones [Presence] in Urine by Test strip"
        },
        "text": {
          "status": "generated",
          "div": "<div xmlns=\"http://www.w3.org/1999/xhtml\"><table class=\"hl7__eu__lab__report\"><tr><th>Test</th><th>22-May-2022</th><th>Reference&#xA0;Range</th><th>Unit</th></tr><tr><td>Ketones [Presence] in Urine by Test strip</td></tr></table></div>"
        },
        "status": "final",
        "subject": {
          "reference": "urn:uuid:808dd8f5-d645-4f31-82ba-3b401793ef29",
          "display": "Iva Kratochvílová"
        },
        "effectiveDateTime": "2022-05-22T16:10:29Z",
        "specimen": {
          "reference": "urn:uuid:fd904072-2819-4067-8e40-fc7b5e14281c"
        }
      }
    },
    {
      "fullUrl": "urn:uuid:a57c7024-de8e-428e-afec-bea8426b4c95",
      "resource": {
        "resourceType": "Observation",
        "id": "a57c7024-de8e-428e-afec-bea8426b4c95",
        "meta": {
          "profile": [
            "http://hl7.eu/fhir/laboratory/StructureDefinition/Observation-resultslab-eu-lab"
          ]
        },
        "performer": [
          {
            "display": "The Central European Lab"
          }
        ],
        "category": [
          {
            "coding": [
              {
                "system": "http://terminology.hl7.org/CodeSystem/observation-category",
                "code": "laboratory"
              }
            ]
          }
        ],
        "code": {
          "coding": [
            {
              "code": "5811-5",
              "system": "http://loinc.org",
              "display": "Specific gravity of Urine by Test strip"
            }
          ],
          "text": "Specific gravity of Urine by Test strip"
        },
        "valueQuantity": {
          "system": "http://unitsofmeasure.org",
          "value": 1,
          "unit": "{nominal}",
          "code": "{nominal}"
        },
        "referenceRange": [
          {
            "low": {
              "value": 1.005,
              "code": "g/mL",
              "system": "http://unitsofmeasure.org"
            }
          },
          {
            "high": {
              "value": 1.03,
              "code": "g/mL",
              "system": "http://unitsofmeasure.org"
            }
          }
        ],
        "interpretation": [
          {
            "coding": [
              {
                "code": "L",
                "system": "http://terminology.hl7.org/CodeSystem/v3-ObservationInterpretation",
                "display": "Low"
              }
            ]
          }
        ],
        "text": {
          "status": "generated",
          "div": "<div xmlns=\"http://www.w3.org/1999/xhtml\"><table class=\"hl7__eu__lab__report\"><tr><th>Test</th><th>22-May-2022</th><th>Reference&#xA0;Range</th><th>Unit</th></tr><tr><td>Specific gravity of Urine by Test strip</td><td>1.0</td><td>1.005 - 1.03</td><td>L</td><td>{nominal}</td></tr></table></div>"
        },
        "status": "final",
        "subject": {
          "reference": "urn:uuid:808dd8f5-d645-4f31-82ba-3b401793ef29",
          "display": "Iva Kratochvílová"
        },
        "effectiveDateTime": "2022-05-22T16:10:29Z",
        "specimen": {
          "reference": "urn:uuid:fd904072-2819-4067-8e40-fc7b5e14281c"
        }
      }
    },
    {
      "fullUrl": "urn:uuid:9ea6a492-c86f-4b83-a75e-0f8a05027cff",
      "resource": {
        "resourceType": "Observation",
        "id": "9ea6a492-c86f-4b83-a75e-0f8a05027cff",
        "meta": {
          "profile": [
            "http://hl7.eu/fhir/laboratory/StructureDefinition/Observation-resultslab-eu-lab"
          ]
        },
        "performer": [
          {
            "display": "The Central European Lab"
          }
        ],
        "category": [
          {
            "coding": [
              {
                "system": "http://terminology.hl7.org/CodeSystem/observation-category",
                "code": "laboratory"
              }
            ]
          }
        ],
        "code": {
          "coding": [
            {
              "code": "5803-2",
              "system": "http://loinc.org",
              "display": "pH of Urine by Test strip"
            }
          ],
          "text": "pH of Urine by Test strip"
        },
        "valueQuantity": {
          "system": "http://unitsofmeasure.org",
          "value": 5.4,
          "unit": "pH",
          "code": "pH"
        },
        "referenceRange": [
          {
            "low": {
              "value": 4.5,
              "code": "pH",
              "system": "http://unitsofmeasure.org"
            }
          },
          {
            "high": {
              "value": 7,
              "code": "pH",
              "system": "http://unitsofmeasure.org"
            }
          }
        ],
        "text": {
          "status": "generated",
          "div": "<div xmlns=\"http://www.w3.org/1999/xhtml\"><table class=\"hl7__eu__lab__report\"><tr><th>Test</th><th>22-May-2022</th><th>Reference&#xA0;Range</th><th>Unit</th></tr><tr><td>pH of Urine by Test strip</td><td>5.4</td><td>4.5 - 7</td><td></td><td>pH</td></tr></table></div>"
        },
        "status": "final",
        "subject": {
          "reference": "urn:uuid:808dd8f5-d645-4f31-82ba-3b401793ef29",
          "display": "Iva Kratochvílová"
        },
        "effectiveDateTime": "2022-05-22T16:10:29Z",
        "specimen": {
          "reference": "urn:uuid:fd904072-2819-4067-8e40-fc7b5e14281c"
        }
      }
    },
    {
      "fullUrl": "urn:uuid:d90aaa2e-d913-48ba-9d42-c9b366761752",
      "resource": {
        "resourceType": "Observation",
        "id": "d90aaa2e-d913-48ba-9d42-c9b366761752",
        "meta": {
          "profile": [
            "http://hl7.eu/fhir/laboratory/StructureDefinition/Observation-resultslab-eu-lab"
          ]
        },
        "performer": [
          {
            "display": "The Central European Lab"
          }
        ],
        "category": [
          {
            "coding": [
              {
                "system": "http://terminology.hl7.org/CodeSystem/observation-category",
                "code": "laboratory"
              }
            ]
          }
        ],
        "code": {
          "coding": [
            {
              "code": "5804-0",
              "system": "http://loinc.org",
              "display": "Protein [Mass/volume] in Urine by Test strip"
            }
          ],
          "text": "Protein [Mass/volume] in Urine by Test strip"
        },
        "valueQuantity": {
          "system": "http://unitsofmeasure.org",
          "value": 217.9,
          "unit": "mg/dL",
          "code": "mg/dL"
        },
        "referenceRange": [
          {
            "low": {
              "value": 0,
              "code": "mg/dL",
              "system": "http://unitsofmeasure.org"
            }
          },
          {
            "high": {
              "value": 145,
              "code": "mg/dL",
              "system": "http://unitsofmeasure.org"
            }
          }
        ],
        "interpretation": [
          {
            "coding": [
              {
                "code": "H",
                "system": "http://terminology.hl7.org/CodeSystem/v3-ObservationInterpretation",
                "display": "High"
              }
            ]
          }
        ],
        "text": {
          "status": "generated",
          "div": "<div xmlns=\"http://www.w3.org/1999/xhtml\"><table class=\"hl7__eu__lab__report\"><tr><th>Test</th><th>22-May-2022</th><th>Reference&#xA0;Range</th><th>Unit</th></tr><tr><td>Protein [Mass/volume] in Urine by Test strip</td><td>217.9</td><td>0 - 145</td><td>H</td><td>mg/dL</td></tr></table></div>"
        },
        "status": "final",
        "subject": {
          "reference": "urn:uuid:808dd8f5-d645-4f31-82ba-3b401793ef29",
          "display": "Iva Kratochvílová"
        },
        "effectiveDateTime": "2022-05-22T16:10:29Z",
        "specimen": {
          "reference": "urn:uuid:fd904072-2819-4067-8e40-fc7b5e14281c"
        }
      }
    },
    {
      "fullUrl": "urn:uuid:1e57c9bd-de1d-40e4-9395-cab735832599",
      "resource": {
        "resourceType": "Observation",
        "id": "1e57c9bd-de1d-40e4-9395-cab735832599",
        "meta": {
          "profile": [
            "http://hl7.eu/fhir/laboratory/StructureDefinition/Observation-resultslab-eu-lab"
          ]
        },
        "performer": [
          {
            "display": "The Central European Lab"
          }
        ],
        "category": [
          {
            "coding": [
              {
                "system": "http://terminology.hl7.org/CodeSystem/observation-category",
                "code": "laboratory"
              }
            ]
          }
        ],
        "code": {
          "coding": [
            {
              "code": "20454-5",
              "system": "http://loinc.org",
              "display": "Protein [Presence] in Urine by Test strip"
            }
          ],
          "text": "Protein [Presence] in Urine by Test strip"
        },
        "text": {
          "status": "generated",
          "div": "<div xmlns=\"http://www.w3.org/1999/xhtml\"><table class=\"hl7__eu__lab__report\"><tr><th>Test</th><th>22-May-2022</th><th>Reference&#xA0;Range</th><th>Unit</th></tr><tr><td>Protein [Presence] in Urine by Test strip</td></tr></table></div>"
        },
        "status": "final",
        "subject": {
          "reference": "urn:uuid:808dd8f5-d645-4f31-82ba-3b401793ef29",
          "display": "Iva Kratochvílová"
        },
        "effectiveDateTime": "2022-05-22T16:10:29Z",
        "specimen": {
          "reference": "urn:uuid:fd904072-2819-4067-8e40-fc7b5e14281c"
        }
      }
    },
    {
      "fullUrl": "urn:uuid:7c82db0f-af95-445c-904e-4f822d1ff3e4",
      "resource": {
        "resourceType": "Observation",
        "id": "7c82db0f-af95-445c-904e-4f822d1ff3e4",
        "meta": {
          "profile": [
            "http://hl7.eu/fhir/laboratory/StructureDefinition/Observation-resultslab-eu-lab"
          ]
        },
        "performer": [
          {
            "display": "The Central European Lab"
          }
        ],
        "category": [
          {
            "coding": [
              {
                "system": "http://terminology.hl7.org/CodeSystem/observation-category",
                "code": "laboratory"
              }
            ]
          }
        ],
        "code": {
          "coding": [
            {
              "code": "5802-4",
              "system": "http://loinc.org",
              "display": "Nitrite [Presence] in Urine by Test strip"
            }
          ],
          "text": "Nitrite [Presence] in Urine by Test strip"
        },
        "text": {
          "status": "generated",
          "div": "<div xmlns=\"http://www.w3.org/1999/xhtml\"><table class=\"hl7__eu__lab__report\"><tr><th>Test</th><th>22-May-2022</th><th>Reference&#xA0;Range</th><th>Unit</th></tr><tr><td>Nitrite [Presence] in Urine by Test strip</td></tr></table></div>"
        },
        "status": "final",
        "subject": {
          "reference": "urn:uuid:808dd8f5-d645-4f31-82ba-3b401793ef29",
          "display": "Iva Kratochvílová"
        },
        "effectiveDateTime": "2022-05-22T16:10:29Z",
        "specimen": {
          "reference": "urn:uuid:fd904072-2819-4067-8e40-fc7b5e14281c"
        }
      }
    },
    {
      "fullUrl": "urn:uuid:7239dff8-a6c1-4de1-8d4c-45b614c8d357",
      "resource": {
        "resourceType": "Observation",
        "id": "7239dff8-a6c1-4de1-8d4c-45b614c8d357",
        "meta": {
          "profile": [
            "http://hl7.eu/fhir/laboratory/StructureDefinition/Observation-resultslab-eu-lab"
          ]
        },
        "performer": [
          {
            "display": "The Central European Lab"
          }
        ],
        "category": [
          {
            "coding": [
              {
                "system": "http://terminology.hl7.org/CodeSystem/observation-category",
                "code": "laboratory"
              }
            ]
          }
        ],
        "code": {
          "coding": [
            {
              "code": "5794-3",
              "system": "http://loinc.org",
              "display": "Hemoglobin [Presence] in Urine by Test strip"
            }
          ],
          "text": "Hemoglobin [Presence] in Urine by Test strip"
        },
        "text": {
          "status": "generated",
          "div": "<div xmlns=\"http://www.w3.org/1999/xhtml\"><table class=\"hl7__eu__lab__report\"><tr><th>Test</th><th>22-May-2022</th><th>Reference&#xA0;Range</th><th>Unit</th></tr><tr><td>Hemoglobin [Presence] in Urine by Test strip</td></tr></table></div>"
        },
        "status": "final",
        "subject": {
          "reference": "urn:uuid:808dd8f5-d645-4f31-82ba-3b401793ef29",
          "display": "Iva Kratochvílová"
        },
        "effectiveDateTime": "2022-05-22T16:10:29Z",
        "specimen": {
          "reference": "urn:uuid:fd904072-2819-4067-8e40-fc7b5e14281c"
        }
      }
    },
    {
      "fullUrl": "urn:uuid:af1321da-5a04-4d1a-b9f6-1e011452157a",
      "resource": {
        "resourceType": "Observation",
        "id": "af1321da-5a04-4d1a-b9f6-1e011452157a",
        "meta": {
          "profile": [
            "http://hl7.eu/fhir/laboratory/StructureDefinition/Observation-resultslab-eu-lab"
          ]
        },
        "performer": [
          {
            "display": "The Central European Lab"
          }
        ],
        "category": [
          {
            "coding": [
              {
                "system": "http://terminology.hl7.org/CodeSystem/observation-category",
                "code": "laboratory"
              }
            ]
          }
        ],
        "code": {
          "coding": [
            {
              "code": "5799-2",
              "system": "http://loinc.org",
              "display": "Leukocyte esterase [Presence] in Urine by Test strip"
            }
          ],
          "text": "Leukocyte esterase [Presence] in Urine by Test strip"
        },
        "text": {
          "status": "generated",
          "div": "<div xmlns=\"http://www.w3.org/1999/xhtml\"><table class=\"hl7__eu__lab__report\"><tr><th>Test</th><th>22-May-2022</th><th>Reference&#xA0;Range</th><th>Unit</th></tr><tr><td>Leukocyte esterase [Presence] in Urine by Test strip</td></tr></table></div>"
        },
        "status": "final",
        "subject": {
          "reference": "urn:uuid:808dd8f5-d645-4f31-82ba-3b401793ef29",
          "display": "Iva Kratochvílová"
        },
        "effectiveDateTime": "2022-05-22T16:10:29Z",
        "specimen": {
          "reference": "urn:uuid:fd904072-2819-4067-8e40-fc7b5e14281c"
        }
      }
    },
    {
      "fullUrl": "urn:uuid:1cc47d76-f90e-4732-8539-e9bf272d1d45",
      "resource": {
        "resourceType": "Observation",
        "id": "1cc47d76-f90e-4732-8539-e9bf272d1d45",
        "meta": {
          "profile": [
            "http://hl7.eu/fhir/laboratory/StructureDefinition/Observation-resultslab-eu-lab"
          ]
        },
        "performer": [
          {
            "display": "The Central European Lab"
          }
        ],
        "category": [
          {
            "coding": [
              {
                "system": "http://terminology.hl7.org/CodeSystem/observation-category",
                "code": "laboratory"
              }
            ]
          }
        ],
        "code": {
          "coding": [
            {
              "code": "4548-4",
              "system": "http://loinc.org",
              "display": "Hemoglobin A1c/Hemoglobin.total in Blood"
            }
          ],
          "text": "Hemoglobin A1c/Hemoglobin.total in Blood"
        },
        "valueQuantity": {
          "system": "http://unitsofmeasure.org",
          "value": 3.2,
          "unit": "%",
          "code": "%"
        },
        "referenceRange": [
          {
            "low": {
              "value": 4,
              "code": "%",
              "system": "http://unitsofmeasure.org"
            }
          },
          {
            "high": {
              "value": 6,
              "code": "%",
              "system": "http://unitsofmeasure.org"
            }
          }
        ],
        "interpretation": [
          {
            "coding": [
              {
                "code": "L",
                "system": "http://terminology.hl7.org/CodeSystem/v3-ObservationInterpretation",
                "display": "Low"
              }
            ]
          }
        ],
        "text": {
          "status": "generated",
          "div": "<div xmlns=\"http://www.w3.org/1999/xhtml\"><table class=\"hl7__eu__lab__report\"><tr><th>Test</th><th>22-May-2022</th><th>Reference&#xA0;Range</th><th>Unit</th></tr><tr><td>Hemoglobin A1c/Hemoglobin.total in Blood</td><td>3.2</td><td>4 - 6</td><td>L</td><td>%</td></tr></table></div>"
        },
        "status": "final",
        "subject": {
          "reference": "urn:uuid:808dd8f5-d645-4f31-82ba-3b401793ef29",
          "display": "Iva Kratochvílová"
        },
        "effectiveDateTime": "2022-05-22T16:10:29Z",
        "specimen": {
          "reference": "urn:uuid:b2846f0b-cfe3-4069-95b9-c34dceb848f1"
        }
      }
    },
    {
      "fullUrl": "urn:uuid:86c0d6a6-3f91-49f8-96c3-735c87a310c9",
      "resource": {
        "resourceType": "Observation",
        "id": "86c0d6a6-3f91-49f8-96c3-735c87a310c9",
        "meta": {
          "profile": [
            "http://hl7.eu/fhir/laboratory/StructureDefinition/Observation-resultslab-eu-lab"
          ]
        },
        "performer": [
          {
            "display": "The Central European Lab"
          }
        ],
        "category": [
          {
            "coding": [
              {
                "system": "http://terminology.hl7.org/CodeSystem/observation-category",
                "code": "laboratory"
              }
            ]
          }
        ],
        "code": {
          "coding": [
            {
              "code": "2339-0",
              "system": "http://loinc.org",
              "display": "Glucose [Mass/volume] in Blood"
            }
          ],
          "text": "Glucose [Mass/volume] in Blood"
        },
        "valueQuantity": {
          "system": "http://unitsofmeasure.org",
          "value": 99.4,
          "unit": "mg/dL",
          "code": "mg/dL"
        },
        "referenceRange": [
          {
            "low": {
              "value": 70,
              "code": "mg/dL",
              "system": "http://unitsofmeasure.org"
            }
          },
          {
            "high": {
              "value": 140,
              "code": "mg/dL",
              "system": "http://unitsofmeasure.org"
            }
          }
        ],
        "text": {
          "status": "generated",
          "div": "<div xmlns=\"http://www.w3.org/1999/xhtml\"><table class=\"hl7__eu__lab__report\"><tr><th>Test</th><th>22-May-2022</th><th>Reference&#xA0;Range</th><th>Unit</th></tr><tr><td>Glucose [Mass/volume] in Blood</td><td>99.4</td><td>70 - 140</td><td></td><td>mg/dL</td></tr></table></div>"
        },
        "status": "final",
        "subject": {
          "reference": "urn:uuid:808dd8f5-d645-4f31-82ba-3b401793ef29",
          "display": "Iva Kratochvílová"
        },
        "effectiveDateTime": "2022-05-22T16:10:29Z",
        "specimen": {
          "reference": "urn:uuid:b2846f0b-cfe3-4069-95b9-c34dceb848f1"
        }
      }
    },
    {
      "fullUrl": "urn:uuid:cfc953e1-3b0a-4ad7-aa90-badb3c2e23f4",
      "resource": {
        "resourceType": "Observation",
        "id": "cfc953e1-3b0a-4ad7-aa90-badb3c2e23f4",
        "meta": {
          "profile": [
            "http://hl7.eu/fhir/laboratory/StructureDefinition/Observation-resultslab-eu-lab"
          ]
        },
        "performer": [
          {
            "display": "The Central European Lab"
          }
        ],
        "category": [
          {
            "coding": [
              {
                "system": "http://terminology.hl7.org/CodeSystem/observation-category",
                "code": "laboratory"
              }
            ]
          }
        ],
        "code": {
          "coding": [
            {
              "code": "6299-2",
              "system": "http://loinc.org",
              "display": "Urea nitrogen [Mass/volume] in Blood"
            }
          ],
          "text": "Urea nitrogen [Mass/volume] in Blood"
        },
        "valueQuantity": {
          "system": "http://unitsofmeasure.org",
          "value": 8.3,
          "unit": "mg/dL",
          "code": "mg/dL"
        },
        "referenceRange": [
          {
            "low": {
              "value": 7,
              "code": "mg/dL",
              "system": "http://unitsofmeasure.org"
            }
          },
          {
            "high": {
              "value": 25,
              "code": "mg/dL",
              "system": "http://unitsofmeasure.org"
            }
          }
        ],
        "text": {
          "status": "generated",
          "div": "<div xmlns=\"http://www.w3.org/1999/xhtml\"><table class=\"hl7__eu__lab__report\"><tr><th>Test</th><th>22-May-2022</th><th>Reference&#xA0;Range</th><th>Unit</th></tr><tr><td>Urea nitrogen [Mass/volume] in Blood</td><td>8.3</td><td>7 - 25</td><td></td><td>mg/dL</td></tr></table></div>"
        },
        "status": "final",
        "subject": {
          "reference": "urn:uuid:808dd8f5-d645-4f31-82ba-3b401793ef29",
          "display": "Iva Kratochvílová"
        },
        "effectiveDateTime": "2022-05-22T16:10:29Z",
        "specimen": {
          "reference": "urn:uuid:b2846f0b-cfe3-4069-95b9-c34dceb848f1"
        }
      }
    },
    {
      "fullUrl": "urn:uuid:d9c30b0f-48d7-41f9-a89f-dc3c84161b2f",
      "resource": {
        "resourceType": "Observation",
        "id": "d9c30b0f-48d7-41f9-a89f-dc3c84161b2f",
        "meta": {
          "profile": [
            "http://hl7.eu/fhir/laboratory/StructureDefinition/Observation-resultslab-eu-lab"
          ]
        },
        "performer": [
          {
            "display": "The Central European Lab"
          }
        ],
        "category": [
          {
            "coding": [
              {
                "system": "http://terminology.hl7.org/CodeSystem/observation-category",
                "code": "laboratory"
              }
            ]
          }
        ],
        "code": {
          "coding": [
            {
              "code": "38483-4",
              "system": "http://loinc.org",
              "display": "Creatinine [Mass/volume] in Blood"
            }
          ],
          "text": "Creatinine [Mass/volume] in Blood"
        },
        "valueQuantity": {
          "system": "http://unitsofmeasure.org",
          "value": 1.8,
          "unit": "mg/dL",
          "code": "mg/dL"
        },
        "referenceRange": [
          {
            "low": {
              "value": 0.6,
              "code": "mg/dL",
              "system": "http://unitsofmeasure.org"
            }
          },
          {
            "high": {
              "value": 1.1,
              "code": "mg/dL",
              "system": "http://unitsofmeasure.org"
            }
          }
        ],
        "interpretation": [
          {
            "coding": [
              {
                "code": "H",
                "system": "http://terminology.hl7.org/CodeSystem/v3-ObservationInterpretation",
                "display": "High"
              }
            ]
          }
        ],
        "text": {
          "status": "generated",
          "div": "<div xmlns=\"http://www.w3.org/1999/xhtml\"><table class=\"hl7__eu__lab__report\"><tr><th>Test</th><th>22-May-2022</th><th>Reference&#xA0;Range</th><th>Unit</th></tr><tr><td>Creatinine [Mass/volume] in Blood</td><td>1.8</td><td>0.6 - 1.1</td><td>H</td><td>mg/dL</td></tr></table></div>"
        },
        "status": "final",
        "subject": {
          "reference": "urn:uuid:808dd8f5-d645-4f31-82ba-3b401793ef29",
          "display": "Iva Kratochvílová"
        },
        "effectiveDateTime": "2022-05-22T16:10:29Z",
        "specimen": {
          "reference": "urn:uuid:b2846f0b-cfe3-4069-95b9-c34dceb848f1"
        }
      }
    },
    {
      "fullUrl": "urn:uuid:8cebea46-7c57-4aa9-9d4a-aa93f7fbe412",
      "resource": {
        "resourceType": "Observation",
        "id": "8cebea46-7c57-4aa9-9d4a-aa93f7fbe412",
        "meta": {
          "profile": [
            "http://hl7.eu/fhir/laboratory/StructureDefinition/Observation-resultslab-eu-lab"
          ]
        },
        "performer": [
          {
            "display": "The Central European Lab"
          }
        ],
        "category": [
          {
            "coding": [
              {
                "system": "http://terminology.hl7.org/CodeSystem/observation-category",
                "code": "laboratory"
              }
            ]
          }
        ],
        "code": {
          "coding": [
            {
              "code": "49765-1",
              "system": "http://loinc.org",
              "display": "Calcium [Mass/volume] in Blood"
            }
          ],
          "text": "Calcium [Mass/volume] in Blood"
        },
        "valueQuantity": {
          "system": "http://unitsofmeasure.org",
          "value": 10.1,
          "unit": "mg/dL",
          "code": "mg/dL"
        },
        "referenceRange": [
          {
            "low": {
              "value": 8.6,
              "code": "mg/dL",
              "system": "http://unitsofmeasure.org"
            }
          },
          {
            "high": {
              "value": 10.4,
              "code": "mg/dL",
              "system": "http://unitsofmeasure.org"
            }
          }
        ],
        "text": {
          "status": "generated",
          "div": "<div xmlns=\"http://www.w3.org/1999/xhtml\"><table class=\"hl7__eu__lab__report\"><tr><th>Test</th><th>22-May-2022</th><th>Reference&#xA0;Range</th><th>Unit</th></tr><tr><td>Calcium [Mass/volume] in Blood</td><td>10.1</td><td>8.6 - 10.4</td><td></td><td>mg/dL</td></tr></table></div>"
        },
        "status": "final",
        "subject": {
          "reference": "urn:uuid:808dd8f5-d645-4f31-82ba-3b401793ef29",
          "display": "Iva Kratochvílová"
        },
        "effectiveDateTime": "2022-05-22T16:10:29Z",
        "specimen": {
          "reference": "urn:uuid:b2846f0b-cfe3-4069-95b9-c34dceb848f1"
        }
      }
    },
    {
      "fullUrl": "urn:uuid:a9389829-5357-4b55-ac4c-7a2109fd177c",
      "resource": {
        "resourceType": "Observation",
        "id": "a9389829-5357-4b55-ac4c-7a2109fd177c",
        "meta": {
          "profile": [
            "http://hl7.eu/fhir/laboratory/StructureDefinition/Observation-resultslab-eu-lab"
          ]
        },
        "performer": [
          {
            "display": "The Central European Lab"
          }
        ],
        "category": [
          {
            "coding": [
              {
                "system": "http://terminology.hl7.org/CodeSystem/observation-category",
                "code": "laboratory"
              }
            ]
          }
        ],
        "code": {
          "coding": [
            {
              "code": "2947-0",
              "system": "http://loinc.org",
              "display": "Sodium [Moles/volume] in Blood"
            }
          ],
          "text": "Sodium [Moles/volume] in Blood"
        },
        "valueQuantity": {
          "system": "http://unitsofmeasure.org",
          "value": 137.6,
          "unit": "mmol/L",
          "code": "mmol/L"
        },
        "referenceRange": [
          {
            "low": {
              "value": 135,
              "code": "mmol/L",
              "system": "http://unitsofmeasure.org"
            }
          },
          {
            "high": {
              "value": 145,
              "code": "mmol/L",
              "system": "http://unitsofmeasure.org"
            }
          }
        ],
        "text": {
          "status": "generated",
          "div": "<div xmlns=\"http://www.w3.org/1999/xhtml\"><table class=\"hl7__eu__lab__report\"><tr><th>Test</th><th>22-May-2022</th><th>Reference&#xA0;Range</th><th>Unit</th></tr><tr><td>Sodium [Moles/volume] in Blood</td><td>137.6</td><td>135 - 145</td><td></td><td>mmol/L</td></tr></table></div>"
        },
        "status": "final",
        "subject": {
          "reference": "urn:uuid:808dd8f5-d645-4f31-82ba-3b401793ef29",
          "display": "Iva Kratochvílová"
        },
        "effectiveDateTime": "2022-05-22T16:10:29Z",
        "specimen": {
          "reference": "urn:uuid:b2846f0b-cfe3-4069-95b9-c34dceb848f1"
        }
      }
    },
    {
      "fullUrl": "urn:uuid:ee3293da-743f-4f72-b64f-bcebb47ad9be",
      "resource": {
        "resourceType": "Observation",
        "id": "ee3293da-743f-4f72-b64f-bcebb47ad9be",
        "meta": {
          "profile": [
            "http://hl7.eu/fhir/laboratory/StructureDefinition/Observation-resultslab-eu-lab"
          ]
        },
        "performer": [
          {
            "display": "The Central European Lab"
          }
        ],
        "category": [
          {
            "coding": [
              {
                "system": "http://terminology.hl7.org/CodeSystem/observation-category",
                "code": "laboratory"
              }
            ]
          }
        ],
        "code": {
          "coding": [
            {
              "code": "6298-4",
              "system": "http://loinc.org",
              "display": "Potassium [Moles/volume] in Blood"
            }
          ],
          "text": "Potassium [Moles/volume] in Blood"
        },
        "valueQuantity": {
          "system": "http://unitsofmeasure.org",
          "value": 4.7,
          "unit": "mmol/L",
          "code": "mmol/L"
        },
        "referenceRange": [
          {
            "low": {
              "value": 3.5,
              "code": "mmol/L",
              "system": "http://unitsofmeasure.org"
            }
          },
          {
            "high": {
              "value": 5.1,
              "code": "mmol/L",
              "system": "http://unitsofmeasure.org"
            }
          }
        ],
        "text": {
          "status": "generated",
          "div": "<div xmlns=\"http://www.w3.org/1999/xhtml\"><table class=\"hl7__eu__lab__report\"><tr><th>Test</th><th>22-May-2022</th><th>Reference&#xA0;Range</th><th>Unit</th></tr><tr><td>Potassium [Moles/volume] in Blood</td><td>4.7</td><td>3.5 - 5.1</td><td></td><td>mmol/L</td></tr></table></div>"
        },
        "status": "final",
        "subject": {
          "reference": "urn:uuid:808dd8f5-d645-4f31-82ba-3b401793ef29",
          "display": "Iva Kratochvílová"
        },
        "effectiveDateTime": "2022-05-22T16:10:29Z",
        "specimen": {
          "reference": "urn:uuid:b2846f0b-cfe3-4069-95b9-c34dceb848f1"
        }
      }
    },
    {
      "fullUrl": "urn:uuid:b1c21584-2c21-45e9-9b35-0bff5e8b300b",
      "resource": {
        "resourceType": "Observation",
        "id": "b1c21584-2c21-45e9-9b35-0bff5e8b300b",
        "meta": {
          "profile": [
            "http://hl7.eu/fhir/laboratory/StructureDefinition/Observation-resultslab-eu-lab"
          ]
        },
        "performer": [
          {
            "display": "The Central European Lab"
          }
        ],
        "category": [
          {
            "coding": [
              {
                "system": "http://terminology.hl7.org/CodeSystem/observation-category",
                "code": "laboratory"
              }
            ]
          }
        ],
        "code": {
          "coding": [
            {
              "code": "2069-3",
              "system": "http://loinc.org",
              "display": "Chloride [Moles/volume] in Blood"
            }
          ],
          "text": "Chloride [Moles/volume] in Blood"
        },
        "valueQuantity": {
          "system": "http://unitsofmeasure.org",
          "value": 110.3,
          "unit": "mmol/L",
          "code": "mmol/L"
        },
        "referenceRange": [
          {
            "low": {
              "value": 98,
              "code": "mmol/L",
              "system": "http://unitsofmeasure.org"
            }
          },
          {
            "high": {
              "value": 110,
              "code": "mmol/L",
              "system": "http://unitsofmeasure.org"
            }
          }
        ],
        "interpretation": [
          {
            "coding": [
              {
                "code": "H",
                "system": "http://terminology.hl7.org/CodeSystem/v3-ObservationInterpretation",
                "display": "High"
              }
            ]
          }
        ],
        "text": {
          "status": "generated",
          "div": "<div xmlns=\"http://www.w3.org/1999/xhtml\"><table class=\"hl7__eu__lab__report\"><tr><th>Test</th><th>22-May-2022</th><th>Reference&#xA0;Range</th><th>Unit</th></tr><tr><td>Chloride [Moles/volume] in Blood</td><td>110.3</td><td>98 - 110</td><td>H</td><td>mmol/L</td></tr></table></div>"
        },
        "status": "final",
        "subject": {
          "reference": "urn:uuid:808dd8f5-d645-4f31-82ba-3b401793ef29",
          "display": "Iva Kratochvílová"
        },
        "effectiveDateTime": "2022-05-22T16:10:29Z",
        "specimen": {
          "reference": "urn:uuid:b2846f0b-cfe3-4069-95b9-c34dceb848f1"
        }
      }
    },
    {
      "fullUrl": "urn:uuid:7fe718db-b5c6-458d-9a89-9f3e7757a320",
      "resource": {
        "resourceType": "Observation",
        "id": "7fe718db-b5c6-458d-9a89-9f3e7757a320",
        "meta": {
          "profile": [
            "http://hl7.eu/fhir/laboratory/StructureDefinition/Observation-resultslab-eu-lab"
          ]
        },
        "performer": [
          {
            "display": "The Central European Lab"
          }
        ],
        "category": [
          {
            "coding": [
              {
                "system": "http://terminology.hl7.org/CodeSystem/observation-category",
                "code": "laboratory"
              }
            ]
          }
        ],
        "code": {
          "coding": [
            {
              "code": "20565-8",
              "system": "http://loinc.org",
              "display": "Carbon dioxide, total [Moles/volume] in Blood"
            }
          ],
          "text": "Carbon dioxide, total [Moles/volume] in Blood"
        },
        "valueQuantity": {
          "system": "http://unitsofmeasure.org",
          "value": 23.1,
          "unit": "mmol/L",
          "code": "mmol/L"
        },
        "referenceRange": [
          {
            "low": {
              "value": 22,
              "code": "mmol/L",
              "system": "http://unitsofmeasure.org"
            }
          },
          {
            "high": {
              "value": 29,
              "code": "mmol/L",
              "system": "http://unitsofmeasure.org"
            }
          }
        ],
        "text": {
          "status": "generated",
          "div": "<div xmlns=\"http://www.w3.org/1999/xhtml\"><table class=\"hl7__eu__lab__report\"><tr><th>Test</th><th>22-May-2022</th><th>Reference&#xA0;Range</th><th>Unit</th></tr><tr><td>Carbon dioxide, total [Moles/volume] in Blood</td><td>23.1</td><td>22 - 29</td><td></td><td>mmol/L</td></tr></table></div>"
        },
        "status": "final",
        "subject": {
          "reference": "urn:uuid:808dd8f5-d645-4f31-82ba-3b401793ef29",
          "display": "Iva Kratochvílová"
        },
        "effectiveDateTime": "2022-05-22T16:10:29Z",
        "specimen": {
          "reference": "urn:uuid:b2846f0b-cfe3-4069-95b9-c34dceb848f1"
        }
      }
    },
    {
      "fullUrl": "urn:uuid:9d4adc84-3fa9-455d-8dd7-3e5ffe4f1e95",
      "resource": {
        "resourceType": "Device",
        "id": "9d4adc84-3fa9-455d-8dd7-3e5ffe4f1e95",
        "deviceName": [
          {
            "name": "SYNDERAI Synthetic Generator",
            "type": "manufacturer-name"
          }
        ],
        "version": [
          {
            "value": "5.0"
          }
        ],
        "text": {
          "status": "generated",
          "div": "<div xmlns=\"http://www.w3.org/1999/xhtml\">SYNDERAI Synthetic Generator v5.0</div>"
        },
        "status": "active\"",
        "distinctIdentifier": "synderai-generator-50",
        "manufacturer": "SYNDERAI Project"
      }
    },
    {
      "fullUrl": "urn:uuid:99afc949-bf69-4ba8-8f47-6e184dc79ae0",
      "resource": {
        "resourceType": "Provenance",
        "id": "99afc949-bf69-4ba8-8f47-6e184dc79ae0",
        "target": [
          {
            "reference": "Patient/808dd8f5-d645-4f31-82ba-3b401793ef29"
          },
          {
            "reference": "Bundle/01136713-6013-4d9b-a77a-823feebfaf09"
          },
          {
            "reference": "Composition/ce4fe2cc-71e6-4f48-bb06-4b3cbeda9d65"
          },
          {
            "reference": "PractitionerRole/7158224c-faad-4d04-bfc8-d758a67cdb4e"
          },
          {
            "reference": "Practitioner/4802a356-844d-4f30-a2cf-0f8067473ede"
          },
          {
            "reference": "PractitionerRole/3ff27d95-54db-401f-a1e0-6927997caf7e"
          },
          {
            "reference": "Organization/7958764b-74f1-4a9e-9c95-40e18ded97c9"
          }
        ],
        "activity": {
          "text": "Synthetic Example Data Generation"
        },
        "policy": [
          "https://synderai.net/synderai-synthetic-data-policy"
        ],
        "agent": [
          {
            "type": {
              "text": "author"
            },
            "who": {
              "reference": "Device/9d4adc84-3fa9-455d-8dd7-3e5ffe4f1e95"
            }
          }
        ],
        "reason": [
          {
            "text": "Interoperability Testing and Training (non-clinical use)"
          }
        ],
        "text": {
          "status": "generated",
          "div": "<div xmlns=\"http://www.w3.org/1999/xhtml\">Provenance for SYNDERAI Synthetic Example Data Resource</div>"
        },
        "recorded": "2022-05-22T18:10:29Z"
      }
    },
    {
      "fullUrl": "urn:uuid:7158224c-faad-4d04-bfc8-d758a67cdb4e",
      "resource": {
        "resourceType": "PractitionerRole",
        "id": "7158224c-faad-4d04-bfc8-d758a67cdb4e",
        "meta": {
          "profile": [
            "http://hl7.eu/fhir/base/StructureDefinition/practitionerRole-eu"
          ]
        },
        "text": {
          "status": "generated",
          "div": "<div xmlns=\"http://www.w3.org/1999/xhtml\">Laboratory Role Id: 7158224c-faad-4d04-bfc8-d758a67cdb4e</div>"
        },
        "practitioner": {
          "reference": "urn:uuid:4802a356-844d-4f30-a2cf-0f8067473ede"
        }
      }
    },
    {
      "fullUrl": "urn:uuid:4802a356-844d-4f30-a2cf-0f8067473ede",
      "resource": {
        "resourceType": "Practitioner",
        "id": "4802a356-844d-4f30-a2cf-0f8067473ede",
        "meta": {
          "profile": [
            "http://hl7.eu/fhir/base/StructureDefinition/practitioner-eu"
          ]
        },
        "identifier": [
          {
            "assigner": {
              "display": "HL7 Europe"
            },
            "system": "urn:oid:2.16.840.1.113883.2.51.999",
            "value": "07f44fc4-f617-4a29-b119-b0b5f5d9824b"
          }
        ],
        "name": [
          {
            "prefix": [
              "dr"
            ],
            "given": [
              "Ex"
            ],
            "family": "Ample"
          }
        ],
        "address": [
          {
            "line": [
              "Laboratoire Central Européenne",
              "Boulevard du Jardin Botanique 32"
            ],
            "postalCode": "1000",
            "city": "Brussels",
            "country": "Belgium"
          }
        ],
        "text": {
          "status": "generated",
          "div": "<div xmlns=\"http://www.w3.org/1999/xhtml\">Laboratory: Laboratoire Central Européenne, 1000 Brussels, Belgium</div>"
        }
      }
    }
  ],
  "type": "document",
  "timestamp": "2022-05-22T18:10:29Z"
}
