{
  "resourceType": "Bundle",
  "id": "02fd529d-ae77-446a-9642-df455a8a765d",
  "meta": {
    "profile": [
      "http://hl7.eu/fhir/laboratory/StructureDefinition/Bundle-eu-lab"
    ]
  },
  "identifier": {
    "assigner": {
      "display": "HL7 Europe"
    },
    "system": "urn:oid:2.16.840.1.113883.2.51.999",
    "value": "710fd2e1-48b1-4291-a68f-0c5fe8968539"
  },
  "entry": [
    {
      "fullUrl": "urn:uuid:237e75e6-f75f-42ca-9006-0a9ae41c0038",
      "resource": {
        "resourceType": "Composition",
        "id": "237e75e6-f75f-42ca-9006-0a9ae41c0038",
        "meta": {
          "profile": [
            "http://hl7.eu/fhir/laboratory/StructureDefinition/Composition-eu-lab"
          ]
        },
        "identifier": {
          "assigner": {
            "display": "HL7 Europe"
          },
          "system": "urn:oid:2.16.840.1.113883.2.51.999",
          "value": "6d2e8ef4-85d1-4870-9e20-88b4e846574e"
        },
        "author": [
          {
            "reference": "urn:uuid:57d7cb64-6b58-4b22-85a3-0b47ed1a2ab9"
          }
        ],
        "category": [
          {
            "coding": [
              {
                "code": "26436-6",
                "system": "http://loinc.org",
                "display": "Laboratory studies (set)"
              }
            ]
          }
        ],
        "type": {
          "coding": [
            {
              "code": "11502-2",
              "system": "http://loinc.org",
              "display": "Laboratory report"
            }
          ],
          "text": "Laboratory Report"
        },
        "section": [
          {
            "code": {
              "coding": [
                {
                  "code": "26436-6",
                  "system": "http://loinc.org",
                  "display": "Laboratory studies (set)"
                }
              ],
              "text": "Laboratory studies"
            },
            "section": [
              {
                "code": {
                  "coding": [
                    {
                      "code": "$18723-7",
                      "system": "http://loinc.org",
                      "display": "Hematology studies (set)"
                    }
                  ],
                  "text": "Hematology"
                },
                "entry": [
                  {
                    "reference": "urn:uuid:5f47d445-5429-410b-9bfe-08911159579b"
                  },
                  {
                    "reference": "urn:uuid:dd54c8ad-3609-491f-bc34-da777beb2228"
                  },
                  {
                    "reference": "urn:uuid:324d1e8e-b7a7-41f1-a607-5a575c99c710"
                  },
                  {
                    "reference": "urn:uuid:a46f109c-94f0-45bd-aef2-5b34aceb9e33"
                  },
                  {
                    "reference": "urn:uuid:451ae81e-94f2-478f-a31c-c78a08d9c17f"
                  },
                  {
                    "reference": "urn:uuid:5063b7c3-d12a-4e18-9cba-b42212cea912"
                  },
                  {
                    "reference": "urn:uuid:b3746cc2-0966-4911-af92-bb3b04c21425"
                  },
                  {
                    "reference": "urn:uuid:0598a4b8-9142-484f-ab36-2d23c24b6ac1"
                  },
                  {
                    "reference": "urn:uuid:2cbf830a-06d2-413a-8009-e12f16708fb7"
                  }
                ],
                "text": {
                  "status": "generated",
                  "div": "<div xmlns=\"http://www.w3.org/1999/xhtml\"><h3>Hematology</h3><table class=\"hl7__eu__lab__report\"><thead><tr><th>Test</th><th>24-MAY-2017</th><th>Reference&#xA0;Range</th><th>Unit</th></tr></thead><tbody><tr><td>Leukocytes [#/volume] in Blood by Automated count</td><td>8.6</td><td>4 - 11</td><td>10*3/uL</td></tr><tr><td>Erythrocytes [#/volume] in Blood by Automated count</td><td>3.9</td><td>3.8 - 5.7</td><td>10*6/uL</td></tr><tr><td>Hemoglobin [Mass/volume] in Blood</td><td>13.6</td><td>12 - 16</td><td>g/dL</td></tr><tr><td>Hematocrit [Volume Fraction] of Blood by Automated count</td><td>47.9</td><td>38 - 56</td><td>%</td></tr><tr><td>MCV [Entitic volume] by Automated count</td><td>95.5</td><td>78 - 98</td><td>fL</td></tr><tr><td>MCH [Entitic mass] by Automated count</td><td>28.5</td><td>27 - 34</td><td>pg</td></tr><tr><td>MCHC [Mass/volume] by Automated count</td><td>32.2</td><td>32 - 35</td><td>g/dL</td></tr><tr><td>Erythrocyte distribution width [Ratio] by Automated count</td><td>14.2</td><td>11.6 - 16.5</td><td>%</td></tr><tr><td>Platelets [#/volume] in Blood by Automated count</td><td>306.7</td><td>157 - 415</td><td>10*3/uL</td></tr></tbody></table></div>"
                },
                "title": "Hematology"
              },
              {
                "code": {
                  "coding": [
                    {
                      "code": "$18719-5",
                      "system": "http://loinc.org",
                      "display": "Chemistry studies (set)"
                    }
                  ],
                  "text": "Chemistry"
                },
                "entry": [
                  {
                    "reference": "urn:uuid:bdd09556-8994-4ffe-b1df-38e9a9221a92"
                  },
                  {
                    "reference": "urn:uuid:9a8d8888-5ffc-44ce-b436-572898f6485b"
                  },
                  {
                    "reference": "urn:uuid:b5aef1b8-0aeb-446f-8fb2-581b5ec2d9f9"
                  },
                  {
                    "reference": "urn:uuid:d3850261-2a3f-42fe-8a18-cc1f92349835"
                  },
                  {
                    "reference": "urn:uuid:5a37e37a-470f-46f8-9ab5-46995c2a3adb"
                  },
                  {
                    "reference": "urn:uuid:ab17a3b8-a3ec-40dd-b28e-97648372feef"
                  },
                  {
                    "reference": "urn:uuid:7cda81c3-a5f6-424d-b009-8f3262170ca2"
                  },
                  {
                    "reference": "urn:uuid:e344b45f-4d15-4cf2-8082-d8beccb95032"
                  },
                  {
                    "reference": "urn:uuid:0febb375-ff65-40be-9de4-1bb5e0b56cb3"
                  },
                  {
                    "reference": "urn:uuid:0e973a73-393e-4e6f-b8ae-a8495e944d19"
                  },
                  {
                    "reference": "urn:uuid:f0f9fb6c-247b-4dfa-a553-33fb13fe6938"
                  },
                  {
                    "reference": "urn:uuid:7f7522ab-8549-4012-aae6-0101a11f5544"
                  },
                  {
                    "reference": "urn:uuid:2239f8eb-5a4e-4322-a785-985365a24a9f"
                  },
                  {
                    "reference": "urn:uuid:bddbc8c2-8c49-43f2-a27f-e9f4f2d8feb2"
                  },
                  {
                    "reference": "urn:uuid:0b324767-610f-4d8a-9205-831261b55a87"
                  },
                  {
                    "reference": "urn:uuid:77d797e1-c7b3-4b66-b62d-f0e8b1efeb41"
                  },
                  {
                    "reference": "urn:uuid:68b54892-9a9c-40ea-9899-65c12a7aa00f"
                  },
                  {
                    "reference": "urn:uuid:424aca0f-5376-4d1f-ac54-688de3df2ec9"
                  },
                  {
                    "reference": "urn:uuid:17ea42bd-d92d-4479-9081-e27b4a0e5c58"
                  },
                  {
                    "reference": "urn:uuid:4e75c960-ef6d-4b4e-af16-2ab0e0a9e9cb"
                  },
                  {
                    "reference": "urn:uuid:4d0809e4-66a3-4d23-8221-bae9ddb7977b"
                  },
                  {
                    "reference": "urn:uuid:63805b19-0838-4a9e-af40-ac33c808b12c"
                  },
                  {
                    "reference": "urn:uuid:5a89ea79-389a-49b5-846a-f6932270536d"
                  },
                  {
                    "reference": "urn:uuid:1218df40-11cb-4462-87bb-3a4a8f962b4a"
                  },
                  {
                    "reference": "urn:uuid:7b56734e-08db-4d0c-b9ad-365c3c0865b7"
                  }
                ],
                "text": {
                  "status": "generated",
                  "div": "<div xmlns=\"http://www.w3.org/1999/xhtml\"><h3>Chemistry</h3><table class=\"hl7__eu__lab__report\"><thead><tr><th>Test</th><th>24-MAY-2017</th><th>Reference&#xA0;Range</th><th>Unit</th></tr></thead><tbody><tr><td>Glucose [Mass/volume] in Serum or Plasma</td><td>71.5</td><td>70 - 99</td><td>mg/dL</td></tr><tr><td>Urea nitrogen [Mass/volume] in Serum or Plasma</td><td>7.8</td><td>7 - 20</td><td>mg/dL</td></tr><tr><td>Creatinine [Mass/volume] in Serum or Plasma</td><td><strong>2.9 H</strong></td><td>0.6 - 1.3</td><td>mg/dL</td></tr><tr><td>Calcium [Mass/volume] in Serum or Plasma</td><td>9.7</td><td>8.5 - 10.4</td><td>mg/dL</td></tr><tr><td>Sodium [Moles/volume] in Serum or Plasma</td><td>136.6</td><td>135 - 145</td><td>mmol/L</td></tr><tr><td>Potassium [Moles/volume] in Serum or Plasma</td><td>4.3</td><td>3.5 - 5.1</td><td>mmol/L</td></tr><tr><td>Chloride [Moles/volume] in Serum or Plasma</td><td>105.0</td><td>98 - 108</td><td>mmol/L</td></tr><tr><td>Carbon dioxide, total [Moles/volume] in Serum or Plasma</td><td>23.3</td><td>22 - 32</td><td>mmol/L</td></tr><tr><td>Protein [Mass/volume] in Serum or Plasma</td><td>6.2</td><td>6 - 8.3</td><td>g/dL</td></tr><tr><td>Albumin [Mass/volume] in Serum or Plasma</td><td>4.2</td><td>3.5 - 5</td><td>g/dL</td></tr><tr><td>Bilirubin.total [Mass/volume] in Serum or Plasma</td><td><strong>6.5 H</strong></td><td>0.3 - 1.2</td><td>mg/dL</td></tr><tr><td>Alkaline phosphatase [Enzymatic activity/volume] in Serum or Plasma</td><td>110.8</td><td>32 - 150</td><td>U/L</td></tr><tr><td>Alanine aminotransferase [Enzymatic activity/volume] in Serum or Plasma</td><td>15.8</td><td>13 - 32</td><td>U/L</td></tr><tr><td>Aspartate aminotransferase [Enzymatic activity/volume] in Serum or Plasma</td><td><strong>7.1 L</strong></td><td>10 - 40</td><td>U/L</td></tr><tr><td>Magnesium [Mass/volume] in Serum or Plasma</td><td>1.9</td><td>1.7 - 2.6</td><td>mg/dL</td></tr><tr><td>Phosphate [Mass/volume] in Serum or Plasma</td><td>3.4</td><td>2.5 - 4.5</td><td>mg/dL</td></tr><tr><td>pH of Arterial blood</td><td><strong>6.8 L</strong></td><td>7.35 - 7.45</td><td>[pH]</td></tr><tr><td>Carbon dioxide [Partial pressure] in Arterial blood</td><td>40.5</td><td>38 - 48</td><td>mm[Hg]</td></tr><tr><td>Oxygen [Partial pressure] in Arterial blood</td><td>82.3</td><td>75 - 100</td><td>mm[Hg]</td></tr><tr><td>Bicarbonate [Moles/volume] in Arterial blood</td><td>25.5</td><td>22 - 31</td><td>mmol/L</td></tr><tr><td>Oxygen saturation in Arterial blood</td><td><strong>94.0 L</strong></td><td>95 - 100</td><td>%</td></tr><tr><td>Cholesterol [Mass/volume] in Serum or Plasma</td><td><strong>299.5 H</strong></td><td>130 - 200</td><td>mg/dL</td></tr><tr><td>Triglyceride [Mass/volume] in Serum or Plasma</td><td>140.8</td><td>0 - 199</td><td>mg/dL</td></tr><tr><td>Cholesterol in LDL [Mass/volume] in Serum or Plasma by Direct assay</td><td><strong>210.5 H</strong></td><td>0 - 130</td><td>mg/dL</td></tr><tr><td>Cholesterol in HDL [Mass/volume] in Serum or Plasma</td><td>60.9</td><td>50 - 100</td><td>mg/dL</td></tr></tbody></table></div>"
                },
                "title": "Chemistry"
              },
              {
                "code": {
                  "coding": [
                    {
                      "code": "$18720-3",
                      "system": "http://loinc.org",
                      "display": "Coagulation studies (set)"
                    }
                  ],
                  "text": "Coagulation"
                },
                "entry": [
                  {
                    "reference": "urn:uuid:33c33b44-4fd0-41ec-8a25-be66cc6ee099"
                  },
                  {
                    "reference": "urn:uuid:f8b32d57-76e1-4bab-a797-5eeb9bc4f0cc"
                  },
                  {
                    "reference": "urn:uuid:6465aa88-97ab-4f06-9316-b776d68007dd"
                  }
                ],
                "text": {
                  "status": "generated",
                  "div": "<div xmlns=\"http://www.w3.org/1999/xhtml\"><h3>Coagulation</h3><table class=\"hl7__eu__lab__report\"><thead><tr><th>Test</th><th>24-MAY-2017</th><th>Reference&#xA0;Range</th><th>Unit</th></tr></thead><tbody><tr><td>Prothrombin time (PT)</td><td><strong>9.3 L</strong></td><td>11 - 15</td><td>s</td></tr><tr><td>INR in Platelet poor plasma by Coagulation assay</td><td>0.9</td><td>0.9 - 1.1</td><td>{INR}</td></tr><tr><td>aPTT in Blood by Coagulation assay</td><td>26.8</td><td>25 - 35</td><td>s</td></tr></tbody></table></div>"
                },
                "title": "Coagulation"
              }
            ],
            "title": "Laboratory Report"
          },
          {
            "text": {
              "status": "generated",
              "div": "<div xmlns=\"http://www.w3.org/1999/xhtml\"><h3>Annotation</h3><table class=\"hl7__eu__lab__report\"><tr><th>Conclusion and Recommendations based on this report and previous findings known to us</th></tr><tr><td>Most parameters are within normal limits. Notable findings include elevated creatinine (2.9 mg/dL) suggesting impaired renal function, markedly increased total and LDL cholesterol, and significantly elevated total bilirubin (6.5 mg/dL) with low AST, which may indicate non-hepatocellular causes of hyperbilirubinemia. Severe metabolic acidosis is present (arterial pH 6.8, low O2 saturation). Immediate clinical evaluation is recommended due to critical acid-base disturbance and possible renal and hepatic dysfunction.</td></tr></table></div>"
            },
            "code": {
              "coding": [
                {
                  "system": "http://loinc.org",
                  "code": "48767-8",
                  "display": "Annotation comment"
                }
              ]
            },
            "title": "Annotation comment"
          }
        ],
        "status": "final",
        "subject": {
          "reference": "urn:uuid:8e18686b-63fa-428b-a7b2-6cb83d070d3d",
          "display": "Aniela Prażmo"
        },
        "date": "2017-05-24T21:28:22Z",
        "title": "Laboratory Report",
        "confidentiality": "N"
      }
    },
    {
      "fullUrl": "urn:uuid:9c6ea821-134e-4579-a3ab-e43b511ab24e",
      "resource": {
        "resourceType": "DiagnosticReport",
        "id": "9c6ea821-134e-4579-a3ab-e43b511ab24e",
        "meta": {
          "profile": [
            "http://hl7.eu/fhir/laboratory/StructureDefinition/DiagnosticReport-eu-lab"
          ]
        },
        "identifier": [
          {
            "assigner": {
              "display": "HL7 Europe"
            },
            "system": "urn:oid:2.16.840.1.113883.2.51.999",
            "value": "58a91a21-1cfe-49db-bc1f-958baf7ca9be"
          }
        ],
        "extension": [
          {
            "url": "http://hl7.org/fhir/5.0/StructureDefinition/extension-DiagnosticReport.composition",
            "valueReference": {
              "reference": "urn:uuid:6d2e8ef4-85d1-4870-9e20-88b4e846574e"
            }
          }
        ],
        "category": [
          {
            "coding": [
              {
                "code": "26436-6",
                "system": "http://loinc.org",
                "display": "Laboratory studies (set)"
              }
            ]
          }
        ],
        "specimen": [
          {
            "reference": "urn:uuid:4bc8b4b9-8a7d-4bf4-816c-56857ba2ea47"
          },
          {
            "reference": "urn:uuid:4bc8b4b9-8a7d-4bf4-816c-56857ba2ea47"
          },
          {
            "reference": "urn:uuid:76da85b3-5ba8-4bbc-a261-e1ef88d48e8e"
          },
          {
            "reference": "urn:uuid:88941db4-ec0e-485d-ab26-268758064b30"
          },
          {
            "reference": "urn:uuid:70deb271-951a-425d-9a62-254421f497ba"
          }
        ],
        "result": [
          {
            "reference": "urn:uuid:5f47d445-5429-410b-9bfe-08911159579b"
          },
          {
            "reference": "urn:uuid:dd54c8ad-3609-491f-bc34-da777beb2228"
          },
          {
            "reference": "urn:uuid:324d1e8e-b7a7-41f1-a607-5a575c99c710"
          },
          {
            "reference": "urn:uuid:a46f109c-94f0-45bd-aef2-5b34aceb9e33"
          },
          {
            "reference": "urn:uuid:451ae81e-94f2-478f-a31c-c78a08d9c17f"
          },
          {
            "reference": "urn:uuid:5063b7c3-d12a-4e18-9cba-b42212cea912"
          },
          {
            "reference": "urn:uuid:b3746cc2-0966-4911-af92-bb3b04c21425"
          },
          {
            "reference": "urn:uuid:0598a4b8-9142-484f-ab36-2d23c24b6ac1"
          },
          {
            "reference": "urn:uuid:2cbf830a-06d2-413a-8009-e12f16708fb7"
          },
          {
            "reference": "urn:uuid:bdd09556-8994-4ffe-b1df-38e9a9221a92"
          },
          {
            "reference": "urn:uuid:9a8d8888-5ffc-44ce-b436-572898f6485b"
          },
          {
            "reference": "urn:uuid:b5aef1b8-0aeb-446f-8fb2-581b5ec2d9f9"
          },
          {
            "reference": "urn:uuid:d3850261-2a3f-42fe-8a18-cc1f92349835"
          },
          {
            "reference": "urn:uuid:5a37e37a-470f-46f8-9ab5-46995c2a3adb"
          },
          {
            "reference": "urn:uuid:ab17a3b8-a3ec-40dd-b28e-97648372feef"
          },
          {
            "reference": "urn:uuid:7cda81c3-a5f6-424d-b009-8f3262170ca2"
          },
          {
            "reference": "urn:uuid:e344b45f-4d15-4cf2-8082-d8beccb95032"
          },
          {
            "reference": "urn:uuid:0febb375-ff65-40be-9de4-1bb5e0b56cb3"
          },
          {
            "reference": "urn:uuid:0e973a73-393e-4e6f-b8ae-a8495e944d19"
          },
          {
            "reference": "urn:uuid:f0f9fb6c-247b-4dfa-a553-33fb13fe6938"
          },
          {
            "reference": "urn:uuid:7f7522ab-8549-4012-aae6-0101a11f5544"
          },
          {
            "reference": "urn:uuid:2239f8eb-5a4e-4322-a785-985365a24a9f"
          },
          {
            "reference": "urn:uuid:bddbc8c2-8c49-43f2-a27f-e9f4f2d8feb2"
          },
          {
            "reference": "urn:uuid:0b324767-610f-4d8a-9205-831261b55a87"
          },
          {
            "reference": "urn:uuid:77d797e1-c7b3-4b66-b62d-f0e8b1efeb41"
          },
          {
            "reference": "urn:uuid:33c33b44-4fd0-41ec-8a25-be66cc6ee099"
          },
          {
            "reference": "urn:uuid:f8b32d57-76e1-4bab-a797-5eeb9bc4f0cc"
          },
          {
            "reference": "urn:uuid:6465aa88-97ab-4f06-9316-b776d68007dd"
          },
          {
            "reference": "urn:uuid:68b54892-9a9c-40ea-9899-65c12a7aa00f"
          },
          {
            "reference": "urn:uuid:424aca0f-5376-4d1f-ac54-688de3df2ec9"
          },
          {
            "reference": "urn:uuid:17ea42bd-d92d-4479-9081-e27b4a0e5c58"
          },
          {
            "reference": "urn:uuid:4e75c960-ef6d-4b4e-af16-2ab0e0a9e9cb"
          },
          {
            "reference": "urn:uuid:4d0809e4-66a3-4d23-8221-bae9ddb7977b"
          },
          {
            "reference": "urn:uuid:63805b19-0838-4a9e-af40-ac33c808b12c"
          },
          {
            "reference": "urn:uuid:5a89ea79-389a-49b5-846a-f6932270536d"
          },
          {
            "reference": "urn:uuid:1218df40-11cb-4462-87bb-3a4a8f962b4a"
          },
          {
            "reference": "urn:uuid:7b56734e-08db-4d0c-b9ad-365c3c0865b7"
          }
        ],
        "status": "registered",
        "code": {
          "coding": [
            {
              "code": "11502-2",
              "system": "http://loinc.org",
              "display": "Laboratory report"
            }
          ]
        },
        "subject": {
          "reference": "urn:uuid:8e18686b-63fa-428b-a7b2-6cb83d070d3d",
          "display": "Aniela Prażmo"
        }
      }
    },
    {
      "fullUrl": "urn:uuid:8e18686b-63fa-428b-a7b2-6cb83d070d3d",
      "resource": {
        "resourceType": "Patient",
        "id": "8e18686b-63fa-428b-a7b2-6cb83d070d3d",
        "meta": {
          "security": [
            {
              "system": "http://terminology.hl7.org/CodeSystem/v3-ActReason",
              "code": "HTEST"
            },
            {
              "system": "http://terminology.hl7.org/CodeSystem/v3-ActReason",
              "code": "TRAIN"
            }
          ],
          "tag": [
            {
              "system": "https://synderai.net/fhir/CodeSystem/tags",
              "code": "synthetic",
              "display": "SYNDERAI Synthetic data"
            }
          ],
          "profile": [
            "http://hl7.eu/fhir/base/StructureDefinition/patient-eu-core"
          ]
        },
        "identifier": [
          {
            "type": {
              "coding": [
                {
                  "code": "PT",
                  "system": "http://terminology.hl7.org/CodeSystem/v2-0203"
                }
              ]
            },
            "system": "http://ec.europa.eu/identifier/eci",
            "value": "9657-869171-7"
          },
          {
            "type": {
              "coding": [
                {
                  "code": "MR",
                  "system": "http://terminology.hl7.org/CodeSystem/v2-0203"
                }
              ]
            },
            "system": "http://local.setting.eu/identifier",
            "value": "ab00158c-e2d0-01e4-6cf5-730949937551"
          }
        ],
        "name": [
          {
            "family": "Prażmo"
          },
          {
            "given": [
              "Aniela"
            ]
          },
          {
            "text": "Aniela Prażmo"
          }
        ],
        "address": [
          {
            "line": [
              "pl. Kołłątaja 62/43"
            ],
            "use": "home",
            "type": "physical",
            "postalCode": "97-200",
            "city": "Tomaszów Mazowiecki",
            "country": "Poland"
          }
        ],
        "telecom": [
          {
            "system": "phone",
            "value": "+48 782 809 233"
          }
        ],
        "extension": [
          {
            "url": "http://hl7.org/fhir/StructureDefinition/patient-nationality",
            "valueCodeableConcept": {
              "coding": [
                {
                  "code": "PL",
                  "system": "http://hl7.org/fhir/ValueSet/country"
                }
              ]
            }
          }
        ],
        "text": {
          "status": "generated",
          "div": "<div xmlns=\"http://www.w3.org/1999/xhtml\"><table class=\"hl7__ips\"><tr><td>Aniela Prażmo</td><td>female</td><td>08-Feb-1941</td></tr></table></div>"
        },
        "gender": "female",
        "birthDate": "1941-02-08"
      }
    },
    {
      "fullUrl": "urn:uuid:18ccba02-f494-4bce-ab60-1419d3fa2aa5",
      "resource": {
        "resourceType": "ServiceRequest",
        "id": "18ccba02-f494-4bce-ab60-1419d3fa2aa5",
        "meta": {
          "profile": [
            "http://hl7.eu/fhir/laboratory/StructureDefinition/ServiceRequest-eu-lab"
          ]
        },
        "identifier": [
          {
            "system": "http://example.org",
            "value": "ba5e7368-0fa0-4d5b-a89c-96449b329e55"
          }
        ],
        "specimen": [
          {
            "reference": "urn:uuid:4bc8b4b9-8a7d-4bf4-816c-56857ba2ea47"
          },
          {
            "reference": "urn:uuid:76da85b3-5ba8-4bbc-a261-e1ef88d48e8e"
          },
          {
            "reference": "urn:uuid:88941db4-ec0e-485d-ab26-268758064b30"
          },
          {
            "reference": "urn:uuid:70deb271-951a-425d-9a62-254421f497ba"
          }
        ],
        "reasonCode": [
          {
            "coding": [
              {
                "code": "64859006",
                "system": "http://snomed.info/sct",
                "display": "Osteoporosis"
              }
            ]
          },
          {
            "coding": [
              {
                "code": "55822004",
                "system": "http://snomed.info/sct",
                "display": "Hyperlipidemia"
              }
            ]
          },
          {
            "coding": [
              {
                "code": "414545008",
                "system": "http://snomed.info/sct",
                "display": "Ischemic heart disease"
              }
            ]
          },
          {
            "coding": [
              {
                "code": "59621000",
                "system": "http://snomed.info/sct",
                "display": "Essential hypertension"
              }
            ]
          },
          {
            "coding": [
              {
                "code": "40055000",
                "system": "http://snomed.info/sct",
                "display": "Chronic sinusitis"
              }
            ]
          }
        ],
        "status": "active",
        "intent": "order",
        "code": {
          "coding": [
            {
              "code": "108252007",
              "system": "http://snomed.info/sct",
              "display": "Laboratory procedure"
            }
          ]
        },
        "subject": {
          "reference": "urn:uuid:8e18686b-63fa-428b-a7b2-6cb83d070d3d",
          "display": "Aniela Prażmo"
        },
        "requester": {
          "reference": "urn:uuid:3b8bd677-1945-471d-acf4-5a4ad8238174"
        }
      }
    },
    {
      "fullUrl": "urn:uuid:3b8bd677-1945-471d-acf4-5a4ad8238174",
      "resource": {
        "resourceType": "PractitionerRole",
        "id": "3b8bd677-1945-471d-acf4-5a4ad8238174",
        "meta": {
          "profile": [
            "http://hl7.eu/fhir/base/StructureDefinition/practitionerRole-eu"
          ]
        },
        "text": {
          "status": "generated",
          "div": "<div xmlns=\"http://www.w3.org/1999/xhtml\">Provider Role Id: 3b8bd677-1945-471d-acf4-5a4ad8238174</div>"
        },
        "organization": {
          "reference": "urn:uuid:2904afcb-e565-490a-8c8b-c7208972d647"
        }
      }
    },
    {
      "fullUrl": "urn:uuid:2904afcb-e565-490a-8c8b-c7208972d647",
      "resource": {
        "resourceType": "Organization",
        "id": "2904afcb-e565-490a-8c8b-c7208972d647",
        "meta": {
          "profile": [
            "http://hl7.eu/fhir/base/StructureDefinition/organization-eu"
          ]
        },
        "identifier": [
          {
            "assigner": {
              "display": "HL7 Europe"
            },
            "system": "urn:oid:2.16.840.1.113883.2.51.999",
            "value": "6aaf6e80-f4d9-4da4-a150-d03a79f848ee"
          }
        ],
        "address": [
          {
            "city": "Tomaszów Mazowiecki",
            "postalCode": "97-200",
            "country": "Poland"
          }
        ],
        "text": {
          "status": "generated",
          "div": "<div xmlns=\"http://www.w3.org/1999/xhtml\">Provider Organization: Poradnia rehabilitacyjna</div>"
        },
        "name": "Poradnia rehabilitacyjna"
      }
    },
    {
      "fullUrl": "urn:uuid:4bc8b4b9-8a7d-4bf4-816c-56857ba2ea47",
      "resource": {
        "resourceType": "Specimen",
        "id": "4bc8b4b9-8a7d-4bf4-816c-56857ba2ea47",
        "meta": {
          "profile": [
            "http://hl7.eu/fhir/laboratory/StructureDefinition/Specimen-eu-lab"
          ]
        },
        "collection": {
          "collectedDateTime": "2017-05-24"
        },
        "text": {
          "status": "generated",
          "div": "<div xmlns=\"http://www.w3.org/1999/xhtml\"><table class=\"hl7__eu__lab__report\"><tr><th>Specimen</th><th>Collection Date</th></tr><tr><td>Whole blood specimen (specimen)</td><td><span class=\"nb\">24-May-2017</span></td></tr></table></div>"
        },
        "type": {
          "coding": [
            {
              "code": "258580003",
              "system": "http://snomed.info/sct",
              "display": "Whole blood specimen (specimen)"
            }
          ]
        }
      }
    },
    {
      "fullUrl": "urn:uuid:4bc8b4b9-8a7d-4bf4-816c-56857ba2ea47",
      "resource": {
        "resourceType": "Specimen",
        "id": "4bc8b4b9-8a7d-4bf4-816c-56857ba2ea47",
        "meta": {
          "profile": [
            "http://hl7.eu/fhir/laboratory/StructureDefinition/Specimen-eu-lab"
          ]
        },
        "collection": {
          "collectedDateTime": "2017-05-24"
        },
        "text": {
          "status": "generated",
          "div": "<div xmlns=\"http://www.w3.org/1999/xhtml\"><table class=\"hl7__eu__lab__report\"><tr><th>Specimen</th><th>Collection Date</th></tr><tr><td>Whole blood specimen (specimen)</td><td><span class=\"nb\">24-May-2017</span></td></tr></table></div>"
        },
        "type": {
          "coding": [
            {
              "code": "258580003",
              "system": "http://snomed.info/sct",
              "display": "Whole blood specimen (specimen)"
            }
          ]
        }
      }
    },
    {
      "fullUrl": "urn:uuid:76da85b3-5ba8-4bbc-a261-e1ef88d48e8e",
      "resource": {
        "resourceType": "Specimen",
        "id": "76da85b3-5ba8-4bbc-a261-e1ef88d48e8e",
        "meta": {
          "profile": [
            "http://hl7.eu/fhir/laboratory/StructureDefinition/Specimen-eu-lab"
          ]
        },
        "collection": {
          "collectedDateTime": "2017-05-24"
        },
        "text": {
          "status": "generated",
          "div": "<div xmlns=\"http://www.w3.org/1999/xhtml\"><table class=\"hl7__eu__lab__report\"><tr><th>Specimen</th><th>Collection Date</th></tr><tr><td>Acellular blood (serum or plasma) specimen</td><td><span class=\"nb\">24-May-2017</span></td></tr></table></div>"
        },
        "type": {
          "coding": [
            {
              "code": "122592007",
              "system": "http://snomed.info/sct",
              "display": "Acellular blood (serum or plasma) specimen"
            }
          ]
        }
      }
    },
    {
      "fullUrl": "urn:uuid:88941db4-ec0e-485d-ab26-268758064b30",
      "resource": {
        "resourceType": "Specimen",
        "id": "88941db4-ec0e-485d-ab26-268758064b30",
        "meta": {
          "profile": [
            "http://hl7.eu/fhir/laboratory/StructureDefinition/Specimen-eu-lab"
          ]
        },
        "collection": {
          "collectedDateTime": "2017-05-24"
        },
        "text": {
          "status": "generated",
          "div": "<div xmlns=\"http://www.w3.org/1999/xhtml\"><table class=\"hl7__eu__lab__report\"><tr><th>Specimen</th><th>Collection Date</th></tr><tr><td>Platelet poor plasma specimen</td><td><span class=\"nb\">24-May-2017</span></td></tr></table></div>"
        },
        "type": {
          "coding": [
            {
              "code": "119362004",
              "system": "http://snomed.info/sct",
              "display": "Platelet poor plasma specimen"
            }
          ]
        }
      }
    },
    {
      "fullUrl": "urn:uuid:70deb271-951a-425d-9a62-254421f497ba",
      "resource": {
        "resourceType": "Specimen",
        "id": "70deb271-951a-425d-9a62-254421f497ba",
        "meta": {
          "profile": [
            "http://hl7.eu/fhir/laboratory/StructureDefinition/Specimen-eu-lab"
          ]
        },
        "collection": {
          "collectedDateTime": "2017-05-24"
        },
        "text": {
          "status": "generated",
          "div": "<div xmlns=\"http://www.w3.org/1999/xhtml\"><table class=\"hl7__eu__lab__report\"><tr><th>Specimen</th><th>Collection Date</th></tr><tr><td>Arterial blood specimen</td><td><span class=\"nb\">24-May-2017</span></td></tr></table></div>"
        },
        "type": {
          "coding": [
            {
              "code": "122552005",
              "system": "http://snomed.info/sct",
              "display": "Arterial blood specimen"
            }
          ]
        }
      }
    },
    {
      "fullUrl": "urn:uuid:5f47d445-5429-410b-9bfe-08911159579b",
      "resource": {
        "resourceType": "Observation",
        "id": "5f47d445-5429-410b-9bfe-08911159579b",
        "meta": {
          "profile": [
            "http://hl7.eu/fhir/laboratory/StructureDefinition/Observation-resultslab-eu-lab"
          ]
        },
        "performer": [
          {
            "display": "The Central European Lab"
          }
        ],
        "category": [
          {
            "coding": [
              {
                "system": "http://terminology.hl7.org/CodeSystem/observation-category",
                "code": "laboratory"
              }
            ]
          }
        ],
        "code": {
          "coding": [
            {
              "code": "6690-2",
              "system": "http://loinc.org",
              "display": "Leukocytes [#/volume] in Blood by Automated count"
            }
          ],
          "text": "Leukocytes [#/volume] in Blood by Automated count"
        },
        "valueQuantity": {
          "system": "http://unitsofmeasure.org",
          "value": 8.6,
          "unit": "10*3/uL",
          "code": "10*3/uL"
        },
        "referenceRange": [
          {
            "low": {
              "value": 4,
              "code": "10*3/uL",
              "system": "http://unitsofmeasure.org"
            }
          },
          {
            "high": {
              "value": 11,
              "code": "10*3/uL",
              "system": "http://unitsofmeasure.org"
            }
          }
        ],
        "text": {
          "status": "generated",
          "div": "<div xmlns=\"http://www.w3.org/1999/xhtml\"><table class=\"hl7__eu__lab__report\"><tr><th>Test</th><th>24-May-2017</th><th>Reference&#xA0;Range</th><th>Unit</th></tr><tr><td>Leukocytes [#/volume] in Blood by Automated count</td><td>8.6</td><td>4 - 11</td><td></td><td>10*3/uL</td></tr></table></div>"
        },
        "status": "final",
        "subject": {
          "reference": "urn:uuid:8e18686b-63fa-428b-a7b2-6cb83d070d3d",
          "display": "Aniela Prażmo"
        },
        "effectiveDateTime": "2017-05-24T19:28:22Z",
        "specimen": {
          "reference": "urn:uuid:4bc8b4b9-8a7d-4bf4-816c-56857ba2ea47"
        }
      }
    },
    {
      "fullUrl": "urn:uuid:dd54c8ad-3609-491f-bc34-da777beb2228",
      "resource": {
        "resourceType": "Observation",
        "id": "dd54c8ad-3609-491f-bc34-da777beb2228",
        "meta": {
          "profile": [
            "http://hl7.eu/fhir/laboratory/StructureDefinition/Observation-resultslab-eu-lab"
          ]
        },
        "performer": [
          {
            "display": "The Central European Lab"
          }
        ],
        "category": [
          {
            "coding": [
              {
                "system": "http://terminology.hl7.org/CodeSystem/observation-category",
                "code": "laboratory"
              }
            ]
          }
        ],
        "code": {
          "coding": [
            {
              "code": "789-8",
              "system": "http://loinc.org",
              "display": "Erythrocytes [#/volume] in Blood by Automated count"
            }
          ],
          "text": "Erythrocytes [#/volume] in Blood by Automated count"
        },
        "valueQuantity": {
          "system": "http://unitsofmeasure.org",
          "value": 3.9,
          "unit": "10*6/uL",
          "code": "10*6/uL"
        },
        "referenceRange": [
          {
            "low": {
              "value": 3.8,
              "code": "10*6/uL",
              "system": "http://unitsofmeasure.org"
            }
          },
          {
            "high": {
              "value": 5.7,
              "code": "10*6/uL",
              "system": "http://unitsofmeasure.org"
            }
          }
        ],
        "text": {
          "status": "generated",
          "div": "<div xmlns=\"http://www.w3.org/1999/xhtml\"><table class=\"hl7__eu__lab__report\"><tr><th>Test</th><th>24-May-2017</th><th>Reference&#xA0;Range</th><th>Unit</th></tr><tr><td>Erythrocytes [#/volume] in Blood by Automated count</td><td>3.9</td><td>3.8 - 5.7</td><td></td><td>10*6/uL</td></tr></table></div>"
        },
        "status": "final",
        "subject": {
          "reference": "urn:uuid:8e18686b-63fa-428b-a7b2-6cb83d070d3d",
          "display": "Aniela Prażmo"
        },
        "effectiveDateTime": "2017-05-24T19:28:22Z",
        "specimen": {
          "reference": "urn:uuid:4bc8b4b9-8a7d-4bf4-816c-56857ba2ea47"
        }
      }
    },
    {
      "fullUrl": "urn:uuid:324d1e8e-b7a7-41f1-a607-5a575c99c710",
      "resource": {
        "resourceType": "Observation",
        "id": "324d1e8e-b7a7-41f1-a607-5a575c99c710",
        "meta": {
          "profile": [
            "http://hl7.eu/fhir/laboratory/StructureDefinition/Observation-resultslab-eu-lab"
          ]
        },
        "performer": [
          {
            "display": "The Central European Lab"
          }
        ],
        "category": [
          {
            "coding": [
              {
                "system": "http://terminology.hl7.org/CodeSystem/observation-category",
                "code": "laboratory"
              }
            ]
          }
        ],
        "code": {
          "coding": [
            {
              "code": "718-7",
              "system": "http://loinc.org",
              "display": "Hemoglobin [Mass/volume] in Blood"
            }
          ],
          "text": "Hemoglobin [Mass/volume] in Blood"
        },
        "valueQuantity": {
          "system": "http://unitsofmeasure.org",
          "value": 13.6,
          "unit": "g/dL",
          "code": "g/dL"
        },
        "referenceRange": [
          {
            "low": {
              "value": 12,
              "code": "g/dL",
              "system": "http://unitsofmeasure.org"
            }
          },
          {
            "high": {
              "value": 16,
              "code": "g/dL",
              "system": "http://unitsofmeasure.org"
            }
          }
        ],
        "text": {
          "status": "generated",
          "div": "<div xmlns=\"http://www.w3.org/1999/xhtml\"><table class=\"hl7__eu__lab__report\"><tr><th>Test</th><th>24-May-2017</th><th>Reference&#xA0;Range</th><th>Unit</th></tr><tr><td>Hemoglobin [Mass/volume] in Blood</td><td>13.6</td><td>12 - 16</td><td></td><td>g/dL</td></tr></table></div>"
        },
        "status": "final",
        "subject": {
          "reference": "urn:uuid:8e18686b-63fa-428b-a7b2-6cb83d070d3d",
          "display": "Aniela Prażmo"
        },
        "effectiveDateTime": "2017-05-24T19:28:22Z",
        "specimen": {
          "reference": "urn:uuid:4bc8b4b9-8a7d-4bf4-816c-56857ba2ea47"
        }
      }
    },
    {
      "fullUrl": "urn:uuid:a46f109c-94f0-45bd-aef2-5b34aceb9e33",
      "resource": {
        "resourceType": "Observation",
        "id": "a46f109c-94f0-45bd-aef2-5b34aceb9e33",
        "meta": {
          "profile": [
            "http://hl7.eu/fhir/laboratory/StructureDefinition/Observation-resultslab-eu-lab"
          ]
        },
        "performer": [
          {
            "display": "The Central European Lab"
          }
        ],
        "category": [
          {
            "coding": [
              {
                "system": "http://terminology.hl7.org/CodeSystem/observation-category",
                "code": "laboratory"
              }
            ]
          }
        ],
        "code": {
          "coding": [
            {
              "code": "4544-3",
              "system": "http://loinc.org",
              "display": "Hematocrit [Volume Fraction] of Blood by Automated count"
            }
          ],
          "text": "Hematocrit [Volume Fraction] of Blood by Automated count"
        },
        "valueQuantity": {
          "system": "http://unitsofmeasure.org",
          "value": 47.9,
          "unit": "%",
          "code": "%"
        },
        "referenceRange": [
          {
            "low": {
              "value": 38,
              "code": "%",
              "system": "http://unitsofmeasure.org"
            }
          },
          {
            "high": {
              "value": 56,
              "code": "%",
              "system": "http://unitsofmeasure.org"
            }
          }
        ],
        "text": {
          "status": "generated",
          "div": "<div xmlns=\"http://www.w3.org/1999/xhtml\"><table class=\"hl7__eu__lab__report\"><tr><th>Test</th><th>24-May-2017</th><th>Reference&#xA0;Range</th><th>Unit</th></tr><tr><td>Hematocrit [Volume Fraction] of Blood by Automated count</td><td>47.9</td><td>38 - 56</td><td></td><td>%</td></tr></table></div>"
        },
        "status": "final",
        "subject": {
          "reference": "urn:uuid:8e18686b-63fa-428b-a7b2-6cb83d070d3d",
          "display": "Aniela Prażmo"
        },
        "effectiveDateTime": "2017-05-24T19:28:22Z",
        "specimen": {
          "reference": "urn:uuid:4bc8b4b9-8a7d-4bf4-816c-56857ba2ea47"
        }
      }
    },
    {
      "fullUrl": "urn:uuid:451ae81e-94f2-478f-a31c-c78a08d9c17f",
      "resource": {
        "resourceType": "Observation",
        "id": "451ae81e-94f2-478f-a31c-c78a08d9c17f",
        "meta": {
          "profile": [
            "http://hl7.eu/fhir/laboratory/StructureDefinition/Observation-resultslab-eu-lab"
          ]
        },
        "performer": [
          {
            "display": "The Central European Lab"
          }
        ],
        "category": [
          {
            "coding": [
              {
                "system": "http://terminology.hl7.org/CodeSystem/observation-category",
                "code": "laboratory"
              }
            ]
          }
        ],
        "code": {
          "coding": [
            {
              "code": "787-2",
              "system": "http://loinc.org",
              "display": "MCV [Entitic volume] by Automated count"
            }
          ],
          "text": "MCV [Entitic volume] by Automated count"
        },
        "valueQuantity": {
          "system": "http://unitsofmeasure.org",
          "value": 95.5,
          "unit": "fL",
          "code": "fL"
        },
        "referenceRange": [
          {
            "low": {
              "value": 78,
              "code": "fL",
              "system": "http://unitsofmeasure.org"
            }
          },
          {
            "high": {
              "value": 98,
              "code": "fL",
              "system": "http://unitsofmeasure.org"
            }
          }
        ],
        "text": {
          "status": "generated",
          "div": "<div xmlns=\"http://www.w3.org/1999/xhtml\"><table class=\"hl7__eu__lab__report\"><tr><th>Test</th><th>24-May-2017</th><th>Reference&#xA0;Range</th><th>Unit</th></tr><tr><td>MCV [Entitic volume] by Automated count</td><td>95.5</td><td>78 - 98</td><td></td><td>fL</td></tr></table></div>"
        },
        "status": "final",
        "subject": {
          "reference": "urn:uuid:8e18686b-63fa-428b-a7b2-6cb83d070d3d",
          "display": "Aniela Prażmo"
        },
        "effectiveDateTime": "2017-05-24T19:28:22Z",
        "specimen": {
          "reference": "urn:uuid:4bc8b4b9-8a7d-4bf4-816c-56857ba2ea47"
        }
      }
    },
    {
      "fullUrl": "urn:uuid:5063b7c3-d12a-4e18-9cba-b42212cea912",
      "resource": {
        "resourceType": "Observation",
        "id": "5063b7c3-d12a-4e18-9cba-b42212cea912",
        "meta": {
          "profile": [
            "http://hl7.eu/fhir/laboratory/StructureDefinition/Observation-resultslab-eu-lab"
          ]
        },
        "performer": [
          {
            "display": "The Central European Lab"
          }
        ],
        "category": [
          {
            "coding": [
              {
                "system": "http://terminology.hl7.org/CodeSystem/observation-category",
                "code": "laboratory"
              }
            ]
          }
        ],
        "code": {
          "coding": [
            {
              "code": "785-6",
              "system": "http://loinc.org",
              "display": "MCH [Entitic mass] by Automated count"
            }
          ],
          "text": "MCH [Entitic mass] by Automated count"
        },
        "valueQuantity": {
          "system": "http://unitsofmeasure.org",
          "value": 28.5,
          "unit": "pg",
          "code": "pg"
        },
        "referenceRange": [
          {
            "low": {
              "value": 27,
              "code": "pg",
              "system": "http://unitsofmeasure.org"
            }
          },
          {
            "high": {
              "value": 34,
              "code": "pg",
              "system": "http://unitsofmeasure.org"
            }
          }
        ],
        "text": {
          "status": "generated",
          "div": "<div xmlns=\"http://www.w3.org/1999/xhtml\"><table class=\"hl7__eu__lab__report\"><tr><th>Test</th><th>24-May-2017</th><th>Reference&#xA0;Range</th><th>Unit</th></tr><tr><td>MCH [Entitic mass] by Automated count</td><td>28.5</td><td>27 - 34</td><td></td><td>pg</td></tr></table></div>"
        },
        "status": "final",
        "subject": {
          "reference": "urn:uuid:8e18686b-63fa-428b-a7b2-6cb83d070d3d",
          "display": "Aniela Prażmo"
        },
        "effectiveDateTime": "2017-05-24T19:28:22Z",
        "specimen": {
          "reference": "urn:uuid:4bc8b4b9-8a7d-4bf4-816c-56857ba2ea47"
        }
      }
    },
    {
      "fullUrl": "urn:uuid:b3746cc2-0966-4911-af92-bb3b04c21425",
      "resource": {
        "resourceType": "Observation",
        "id": "b3746cc2-0966-4911-af92-bb3b04c21425",
        "meta": {
          "profile": [
            "http://hl7.eu/fhir/laboratory/StructureDefinition/Observation-resultslab-eu-lab"
          ]
        },
        "performer": [
          {
            "display": "The Central European Lab"
          }
        ],
        "category": [
          {
            "coding": [
              {
                "system": "http://terminology.hl7.org/CodeSystem/observation-category",
                "code": "laboratory"
              }
            ]
          }
        ],
        "code": {
          "coding": [
            {
              "code": "786-4",
              "system": "http://loinc.org",
              "display": "MCHC [Mass/volume] by Automated count"
            }
          ],
          "text": "MCHC [Mass/volume] by Automated count"
        },
        "valueQuantity": {
          "system": "http://unitsofmeasure.org",
          "value": 32.2,
          "unit": "g/dL",
          "code": "g/dL"
        },
        "referenceRange": [
          {
            "low": {
              "value": 32,
              "code": "g/dL",
              "system": "http://unitsofmeasure.org"
            }
          },
          {
            "high": {
              "value": 35,
              "code": "g/dL",
              "system": "http://unitsofmeasure.org"
            }
          }
        ],
        "text": {
          "status": "generated",
          "div": "<div xmlns=\"http://www.w3.org/1999/xhtml\"><table class=\"hl7__eu__lab__report\"><tr><th>Test</th><th>24-May-2017</th><th>Reference&#xA0;Range</th><th>Unit</th></tr><tr><td>MCHC [Mass/volume] by Automated count</td><td>32.2</td><td>32 - 35</td><td></td><td>g/dL</td></tr></table></div>"
        },
        "status": "final",
        "subject": {
          "reference": "urn:uuid:8e18686b-63fa-428b-a7b2-6cb83d070d3d",
          "display": "Aniela Prażmo"
        },
        "effectiveDateTime": "2017-05-24T19:28:22Z",
        "specimen": {
          "reference": "urn:uuid:4bc8b4b9-8a7d-4bf4-816c-56857ba2ea47"
        }
      }
    },
    {
      "fullUrl": "urn:uuid:0598a4b8-9142-484f-ab36-2d23c24b6ac1",
      "resource": {
        "resourceType": "Observation",
        "id": "0598a4b8-9142-484f-ab36-2d23c24b6ac1",
        "meta": {
          "profile": [
            "http://hl7.eu/fhir/laboratory/StructureDefinition/Observation-resultslab-eu-lab"
          ]
        },
        "performer": [
          {
            "display": "The Central European Lab"
          }
        ],
        "category": [
          {
            "coding": [
              {
                "system": "http://terminology.hl7.org/CodeSystem/observation-category",
                "code": "laboratory"
              }
            ]
          }
        ],
        "code": {
          "coding": [
            {
              "code": "788-0",
              "system": "http://loinc.org",
              "display": "Erythrocyte distribution width [Ratio] by Automated count"
            }
          ],
          "text": "Erythrocyte distribution width [Ratio] by Automated count"
        },
        "valueQuantity": {
          "system": "http://unitsofmeasure.org",
          "value": 14.2,
          "unit": "%",
          "code": "%"
        },
        "referenceRange": [
          {
            "low": {
              "value": 11.6,
              "code": "%",
              "system": "http://unitsofmeasure.org"
            }
          },
          {
            "high": {
              "value": 16.5,
              "code": "%",
              "system": "http://unitsofmeasure.org"
            }
          }
        ],
        "text": {
          "status": "generated",
          "div": "<div xmlns=\"http://www.w3.org/1999/xhtml\"><table class=\"hl7__eu__lab__report\"><tr><th>Test</th><th>24-May-2017</th><th>Reference&#xA0;Range</th><th>Unit</th></tr><tr><td>Erythrocyte distribution width [Ratio] by Automated count</td><td>14.2</td><td>11.6 - 16.5</td><td></td><td>%</td></tr></table></div>"
        },
        "status": "final",
        "subject": {
          "reference": "urn:uuid:8e18686b-63fa-428b-a7b2-6cb83d070d3d",
          "display": "Aniela Prażmo"
        },
        "effectiveDateTime": "2017-05-24T19:28:22Z",
        "specimen": {
          "reference": "urn:uuid:4bc8b4b9-8a7d-4bf4-816c-56857ba2ea47"
        }
      }
    },
    {
      "fullUrl": "urn:uuid:2cbf830a-06d2-413a-8009-e12f16708fb7",
      "resource": {
        "resourceType": "Observation",
        "id": "2cbf830a-06d2-413a-8009-e12f16708fb7",
        "meta": {
          "profile": [
            "http://hl7.eu/fhir/laboratory/StructureDefinition/Observation-resultslab-eu-lab"
          ]
        },
        "performer": [
          {
            "display": "The Central European Lab"
          }
        ],
        "category": [
          {
            "coding": [
              {
                "system": "http://terminology.hl7.org/CodeSystem/observation-category",
                "code": "laboratory"
              }
            ]
          }
        ],
        "code": {
          "coding": [
            {
              "code": "777-3",
              "system": "http://loinc.org",
              "display": "Platelets [#/volume] in Blood by Automated count"
            }
          ],
          "text": "Platelets [#/volume] in Blood by Automated count"
        },
        "valueQuantity": {
          "system": "http://unitsofmeasure.org",
          "value": 306.7,
          "unit": "10*3/uL",
          "code": "10*3/uL"
        },
        "referenceRange": [
          {
            "low": {
              "value": 157,
              "code": "10*3/uL",
              "system": "http://unitsofmeasure.org"
            }
          },
          {
            "high": {
              "value": 415,
              "code": "10*3/uL",
              "system": "http://unitsofmeasure.org"
            }
          }
        ],
        "text": {
          "status": "generated",
          "div": "<div xmlns=\"http://www.w3.org/1999/xhtml\"><table class=\"hl7__eu__lab__report\"><tr><th>Test</th><th>24-May-2017</th><th>Reference&#xA0;Range</th><th>Unit</th></tr><tr><td>Platelets [#/volume] in Blood by Automated count</td><td>306.7</td><td>157 - 415</td><td></td><td>10*3/uL</td></tr></table></div>"
        },
        "status": "final",
        "subject": {
          "reference": "urn:uuid:8e18686b-63fa-428b-a7b2-6cb83d070d3d",
          "display": "Aniela Prażmo"
        },
        "effectiveDateTime": "2017-05-24T19:28:22Z",
        "specimen": {
          "reference": "urn:uuid:4bc8b4b9-8a7d-4bf4-816c-56857ba2ea47"
        }
      }
    },
    {
      "fullUrl": "urn:uuid:bdd09556-8994-4ffe-b1df-38e9a9221a92",
      "resource": {
        "resourceType": "Observation",
        "id": "bdd09556-8994-4ffe-b1df-38e9a9221a92",
        "meta": {
          "profile": [
            "http://hl7.eu/fhir/laboratory/StructureDefinition/Observation-resultslab-eu-lab"
          ]
        },
        "performer": [
          {
            "display": "The Central European Lab"
          }
        ],
        "category": [
          {
            "coding": [
              {
                "system": "http://terminology.hl7.org/CodeSystem/observation-category",
                "code": "laboratory"
              }
            ]
          }
        ],
        "code": {
          "coding": [
            {
              "code": "2345-7",
              "system": "http://loinc.org",
              "display": "Glucose [Mass/volume] in Serum or Plasma"
            }
          ],
          "text": "Glucose [Mass/volume] in Serum or Plasma"
        },
        "valueQuantity": {
          "system": "http://unitsofmeasure.org",
          "value": 71.5,
          "unit": "mg/dL",
          "code": "mg/dL"
        },
        "referenceRange": [
          {
            "low": {
              "value": 70,
              "code": "mg/dL",
              "system": "http://unitsofmeasure.org"
            }
          },
          {
            "high": {
              "value": 99,
              "code": "mg/dL",
              "system": "http://unitsofmeasure.org"
            }
          }
        ],
        "text": {
          "status": "generated",
          "div": "<div xmlns=\"http://www.w3.org/1999/xhtml\"><table class=\"hl7__eu__lab__report\"><tr><th>Test</th><th>24-May-2017</th><th>Reference&#xA0;Range</th><th>Unit</th></tr><tr><td>Glucose [Mass/volume] in Serum or Plasma</td><td>71.5</td><td>70 - 99</td><td></td><td>mg/dL</td></tr></table></div>"
        },
        "status": "final",
        "subject": {
          "reference": "urn:uuid:8e18686b-63fa-428b-a7b2-6cb83d070d3d",
          "display": "Aniela Prażmo"
        },
        "effectiveDateTime": "2017-05-24T19:28:22Z",
        "specimen": {
          "reference": "urn:uuid:76da85b3-5ba8-4bbc-a261-e1ef88d48e8e"
        }
      }
    },
    {
      "fullUrl": "urn:uuid:9a8d8888-5ffc-44ce-b436-572898f6485b",
      "resource": {
        "resourceType": "Observation",
        "id": "9a8d8888-5ffc-44ce-b436-572898f6485b",
        "meta": {
          "profile": [
            "http://hl7.eu/fhir/laboratory/StructureDefinition/Observation-resultslab-eu-lab"
          ]
        },
        "performer": [
          {
            "display": "The Central European Lab"
          }
        ],
        "category": [
          {
            "coding": [
              {
                "system": "http://terminology.hl7.org/CodeSystem/observation-category",
                "code": "laboratory"
              }
            ]
          }
        ],
        "code": {
          "coding": [
            {
              "code": "3094-0",
              "system": "http://loinc.org",
              "display": "Urea nitrogen [Mass/volume] in Serum or Plasma"
            }
          ],
          "text": "Urea nitrogen [Mass/volume] in Serum or Plasma"
        },
        "valueQuantity": {
          "system": "http://unitsofmeasure.org",
          "value": 7.8,
          "unit": "mg/dL",
          "code": "mg/dL"
        },
        "referenceRange": [
          {
            "low": {
              "value": 7,
              "code": "mg/dL",
              "system": "http://unitsofmeasure.org"
            }
          },
          {
            "high": {
              "value": 20,
              "code": "mg/dL",
              "system": "http://unitsofmeasure.org"
            }
          }
        ],
        "text": {
          "status": "generated",
          "div": "<div xmlns=\"http://www.w3.org/1999/xhtml\"><table class=\"hl7__eu__lab__report\"><tr><th>Test</th><th>24-May-2017</th><th>Reference&#xA0;Range</th><th>Unit</th></tr><tr><td>Urea nitrogen [Mass/volume] in Serum or Plasma</td><td>7.8</td><td>7 - 20</td><td></td><td>mg/dL</td></tr></table></div>"
        },
        "status": "final",
        "subject": {
          "reference": "urn:uuid:8e18686b-63fa-428b-a7b2-6cb83d070d3d",
          "display": "Aniela Prażmo"
        },
        "effectiveDateTime": "2017-05-24T19:28:22Z",
        "specimen": {
          "reference": "urn:uuid:76da85b3-5ba8-4bbc-a261-e1ef88d48e8e"
        }
      }
    },
    {
      "fullUrl": "urn:uuid:b5aef1b8-0aeb-446f-8fb2-581b5ec2d9f9",
      "resource": {
        "resourceType": "Observation",
        "id": "b5aef1b8-0aeb-446f-8fb2-581b5ec2d9f9",
        "meta": {
          "profile": [
            "http://hl7.eu/fhir/laboratory/StructureDefinition/Observation-resultslab-eu-lab"
          ]
        },
        "performer": [
          {
            "display": "The Central European Lab"
          }
        ],
        "category": [
          {
            "coding": [
              {
                "system": "http://terminology.hl7.org/CodeSystem/observation-category",
                "code": "laboratory"
              }
            ]
          }
        ],
        "code": {
          "coding": [
            {
              "code": "2160-0",
              "system": "http://loinc.org",
              "display": "Creatinine [Mass/volume] in Serum or Plasma"
            }
          ],
          "text": "Creatinine [Mass/volume] in Serum or Plasma"
        },
        "valueQuantity": {
          "system": "http://unitsofmeasure.org",
          "value": 2.9,
          "unit": "mg/dL",
          "code": "mg/dL"
        },
        "referenceRange": [
          {
            "low": {
              "value": 0.6,
              "code": "mg/dL",
              "system": "http://unitsofmeasure.org"
            }
          },
          {
            "high": {
              "value": 1.3,
              "code": "mg/dL",
              "system": "http://unitsofmeasure.org"
            }
          }
        ],
        "interpretation": [
          {
            "coding": [
              {
                "code": "H",
                "system": "http://terminology.hl7.org/CodeSystem/v3-ObservationInterpretation",
                "display": "High"
              }
            ]
          }
        ],
        "text": {
          "status": "generated",
          "div": "<div xmlns=\"http://www.w3.org/1999/xhtml\"><table class=\"hl7__eu__lab__report\"><tr><th>Test</th><th>24-May-2017</th><th>Reference&#xA0;Range</th><th>Unit</th></tr><tr><td>Creatinine [Mass/volume] in Serum or Plasma</td><td>2.9</td><td>0.6 - 1.3</td><td>H</td><td>mg/dL</td></tr></table></div>"
        },
        "status": "final",
        "subject": {
          "reference": "urn:uuid:8e18686b-63fa-428b-a7b2-6cb83d070d3d",
          "display": "Aniela Prażmo"
        },
        "effectiveDateTime": "2017-05-24T19:28:22Z",
        "specimen": {
          "reference": "urn:uuid:76da85b3-5ba8-4bbc-a261-e1ef88d48e8e"
        }
      }
    },
    {
      "fullUrl": "urn:uuid:d3850261-2a3f-42fe-8a18-cc1f92349835",
      "resource": {
        "resourceType": "Observation",
        "id": "d3850261-2a3f-42fe-8a18-cc1f92349835",
        "meta": {
          "profile": [
            "http://hl7.eu/fhir/laboratory/StructureDefinition/Observation-resultslab-eu-lab"
          ]
        },
        "performer": [
          {
            "display": "The Central European Lab"
          }
        ],
        "category": [
          {
            "coding": [
              {
                "system": "http://terminology.hl7.org/CodeSystem/observation-category",
                "code": "laboratory"
              }
            ]
          }
        ],
        "code": {
          "coding": [
            {
              "code": "17861-6",
              "system": "http://loinc.org",
              "display": "Calcium [Mass/volume] in Serum or Plasma"
            }
          ],
          "text": "Calcium [Mass/volume] in Serum or Plasma"
        },
        "valueQuantity": {
          "system": "http://unitsofmeasure.org",
          "value": 9.7,
          "unit": "mg/dL",
          "code": "mg/dL"
        },
        "referenceRange": [
          {
            "low": {
              "value": 8.5,
              "code": "mg/dL",
              "system": "http://unitsofmeasure.org"
            }
          },
          {
            "high": {
              "value": 10.4,
              "code": "mg/dL",
              "system": "http://unitsofmeasure.org"
            }
          }
        ],
        "text": {
          "status": "generated",
          "div": "<div xmlns=\"http://www.w3.org/1999/xhtml\"><table class=\"hl7__eu__lab__report\"><tr><th>Test</th><th>24-May-2017</th><th>Reference&#xA0;Range</th><th>Unit</th></tr><tr><td>Calcium [Mass/volume] in Serum or Plasma</td><td>9.7</td><td>8.5 - 10.4</td><td></td><td>mg/dL</td></tr></table></div>"
        },
        "status": "final",
        "subject": {
          "reference": "urn:uuid:8e18686b-63fa-428b-a7b2-6cb83d070d3d",
          "display": "Aniela Prażmo"
        },
        "effectiveDateTime": "2017-05-24T19:28:22Z",
        "specimen": {
          "reference": "urn:uuid:76da85b3-5ba8-4bbc-a261-e1ef88d48e8e"
        }
      }
    },
    {
      "fullUrl": "urn:uuid:5a37e37a-470f-46f8-9ab5-46995c2a3adb",
      "resource": {
        "resourceType": "Observation",
        "id": "5a37e37a-470f-46f8-9ab5-46995c2a3adb",
        "meta": {
          "profile": [
            "http://hl7.eu/fhir/laboratory/StructureDefinition/Observation-resultslab-eu-lab"
          ]
        },
        "performer": [
          {
            "display": "The Central European Lab"
          }
        ],
        "category": [
          {
            "coding": [
              {
                "system": "http://terminology.hl7.org/CodeSystem/observation-category",
                "code": "laboratory"
              }
            ]
          }
        ],
        "code": {
          "coding": [
            {
              "code": "2951-2",
              "system": "http://loinc.org",
              "display": "Sodium [Moles/volume] in Serum or Plasma"
            }
          ],
          "text": "Sodium [Moles/volume] in Serum or Plasma"
        },
        "valueQuantity": {
          "system": "http://unitsofmeasure.org",
          "value": 136.6,
          "unit": "mmol/L",
          "code": "mmol/L"
        },
        "referenceRange": [
          {
            "low": {
              "value": 135,
              "code": "mmol/L",
              "system": "http://unitsofmeasure.org"
            }
          },
          {
            "high": {
              "value": 145,
              "code": "mmol/L",
              "system": "http://unitsofmeasure.org"
            }
          }
        ],
        "text": {
          "status": "generated",
          "div": "<div xmlns=\"http://www.w3.org/1999/xhtml\"><table class=\"hl7__eu__lab__report\"><tr><th>Test</th><th>24-May-2017</th><th>Reference&#xA0;Range</th><th>Unit</th></tr><tr><td>Sodium [Moles/volume] in Serum or Plasma</td><td>136.6</td><td>135 - 145</td><td></td><td>mmol/L</td></tr></table></div>"
        },
        "status": "final",
        "subject": {
          "reference": "urn:uuid:8e18686b-63fa-428b-a7b2-6cb83d070d3d",
          "display": "Aniela Prażmo"
        },
        "effectiveDateTime": "2017-05-24T19:28:22Z",
        "specimen": {
          "reference": "urn:uuid:76da85b3-5ba8-4bbc-a261-e1ef88d48e8e"
        }
      }
    },
    {
      "fullUrl": "urn:uuid:ab17a3b8-a3ec-40dd-b28e-97648372feef",
      "resource": {
        "resourceType": "Observation",
        "id": "ab17a3b8-a3ec-40dd-b28e-97648372feef",
        "meta": {
          "profile": [
            "http://hl7.eu/fhir/laboratory/StructureDefinition/Observation-resultslab-eu-lab"
          ]
        },
        "performer": [
          {
            "display": "The Central European Lab"
          }
        ],
        "category": [
          {
            "coding": [
              {
                "system": "http://terminology.hl7.org/CodeSystem/observation-category",
                "code": "laboratory"
              }
            ]
          }
        ],
        "code": {
          "coding": [
            {
              "code": "2823-3",
              "system": "http://loinc.org",
              "display": "Potassium [Moles/volume] in Serum or Plasma"
            }
          ],
          "text": "Potassium [Moles/volume] in Serum or Plasma"
        },
        "valueQuantity": {
          "system": "http://unitsofmeasure.org",
          "value": 4.3,
          "unit": "mmol/L",
          "code": "mmol/L"
        },
        "referenceRange": [
          {
            "low": {
              "value": 3.5,
              "code": "mmol/L",
              "system": "http://unitsofmeasure.org"
            }
          },
          {
            "high": {
              "value": 5.1,
              "code": "mmol/L",
              "system": "http://unitsofmeasure.org"
            }
          }
        ],
        "text": {
          "status": "generated",
          "div": "<div xmlns=\"http://www.w3.org/1999/xhtml\"><table class=\"hl7__eu__lab__report\"><tr><th>Test</th><th>24-May-2017</th><th>Reference&#xA0;Range</th><th>Unit</th></tr><tr><td>Potassium [Moles/volume] in Serum or Plasma</td><td>4.3</td><td>3.5 - 5.1</td><td></td><td>mmol/L</td></tr></table></div>"
        },
        "status": "final",
        "subject": {
          "reference": "urn:uuid:8e18686b-63fa-428b-a7b2-6cb83d070d3d",
          "display": "Aniela Prażmo"
        },
        "effectiveDateTime": "2017-05-24T19:28:22Z",
        "specimen": {
          "reference": "urn:uuid:76da85b3-5ba8-4bbc-a261-e1ef88d48e8e"
        }
      }
    },
    {
      "fullUrl": "urn:uuid:7cda81c3-a5f6-424d-b009-8f3262170ca2",
      "resource": {
        "resourceType": "Observation",
        "id": "7cda81c3-a5f6-424d-b009-8f3262170ca2",
        "meta": {
          "profile": [
            "http://hl7.eu/fhir/laboratory/StructureDefinition/Observation-resultslab-eu-lab"
          ]
        },
        "performer": [
          {
            "display": "The Central European Lab"
          }
        ],
        "category": [
          {
            "coding": [
              {
                "system": "http://terminology.hl7.org/CodeSystem/observation-category",
                "code": "laboratory"
              }
            ]
          }
        ],
        "code": {
          "coding": [
            {
              "code": "2075-0",
              "system": "http://loinc.org",
              "display": "Chloride [Moles/volume] in Serum or Plasma"
            }
          ],
          "text": "Chloride [Moles/volume] in Serum or Plasma"
        },
        "valueQuantity": {
          "system": "http://unitsofmeasure.org",
          "value": 105,
          "unit": "mmol/L",
          "code": "mmol/L"
        },
        "referenceRange": [
          {
            "low": {
              "value": 98,
              "code": "mmol/L",
              "system": "http://unitsofmeasure.org"
            }
          },
          {
            "high": {
              "value": 108,
              "code": "mmol/L",
              "system": "http://unitsofmeasure.org"
            }
          }
        ],
        "text": {
          "status": "generated",
          "div": "<div xmlns=\"http://www.w3.org/1999/xhtml\"><table class=\"hl7__eu__lab__report\"><tr><th>Test</th><th>24-May-2017</th><th>Reference&#xA0;Range</th><th>Unit</th></tr><tr><td>Chloride [Moles/volume] in Serum or Plasma</td><td>105.0</td><td>98 - 108</td><td></td><td>mmol/L</td></tr></table></div>"
        },
        "status": "final",
        "subject": {
          "reference": "urn:uuid:8e18686b-63fa-428b-a7b2-6cb83d070d3d",
          "display": "Aniela Prażmo"
        },
        "effectiveDateTime": "2017-05-24T19:28:22Z",
        "specimen": {
          "reference": "urn:uuid:76da85b3-5ba8-4bbc-a261-e1ef88d48e8e"
        }
      }
    },
    {
      "fullUrl": "urn:uuid:e344b45f-4d15-4cf2-8082-d8beccb95032",
      "resource": {
        "resourceType": "Observation",
        "id": "e344b45f-4d15-4cf2-8082-d8beccb95032",
        "meta": {
          "profile": [
            "http://hl7.eu/fhir/laboratory/StructureDefinition/Observation-resultslab-eu-lab"
          ]
        },
        "performer": [
          {
            "display": "The Central European Lab"
          }
        ],
        "category": [
          {
            "coding": [
              {
                "system": "http://terminology.hl7.org/CodeSystem/observation-category",
                "code": "laboratory"
              }
            ]
          }
        ],
        "code": {
          "coding": [
            {
              "code": "2028-9",
              "system": "http://loinc.org",
              "display": "Carbon dioxide, total [Moles/volume] in Serum or Plasma"
            }
          ],
          "text": "Carbon dioxide, total [Moles/volume] in Serum or Plasma"
        },
        "valueQuantity": {
          "system": "http://unitsofmeasure.org",
          "value": 23.3,
          "unit": "mmol/L",
          "code": "mmol/L"
        },
        "referenceRange": [
          {
            "low": {
              "value": 22,
              "code": "mmol/L",
              "system": "http://unitsofmeasure.org"
            }
          },
          {
            "high": {
              "value": 32,
              "code": "mmol/L",
              "system": "http://unitsofmeasure.org"
            }
          }
        ],
        "text": {
          "status": "generated",
          "div": "<div xmlns=\"http://www.w3.org/1999/xhtml\"><table class=\"hl7__eu__lab__report\"><tr><th>Test</th><th>24-May-2017</th><th>Reference&#xA0;Range</th><th>Unit</th></tr><tr><td>Carbon dioxide, total [Moles/volume] in Serum or Plasma</td><td>23.3</td><td>22 - 32</td><td></td><td>mmol/L</td></tr></table></div>"
        },
        "status": "final",
        "subject": {
          "reference": "urn:uuid:8e18686b-63fa-428b-a7b2-6cb83d070d3d",
          "display": "Aniela Prażmo"
        },
        "effectiveDateTime": "2017-05-24T19:28:22Z",
        "specimen": {
          "reference": "urn:uuid:76da85b3-5ba8-4bbc-a261-e1ef88d48e8e"
        }
      }
    },
    {
      "fullUrl": "urn:uuid:0febb375-ff65-40be-9de4-1bb5e0b56cb3",
      "resource": {
        "resourceType": "Observation",
        "id": "0febb375-ff65-40be-9de4-1bb5e0b56cb3",
        "meta": {
          "profile": [
            "http://hl7.eu/fhir/laboratory/StructureDefinition/Observation-resultslab-eu-lab"
          ]
        },
        "performer": [
          {
            "display": "The Central European Lab"
          }
        ],
        "category": [
          {
            "coding": [
              {
                "system": "http://terminology.hl7.org/CodeSystem/observation-category",
                "code": "laboratory"
              }
            ]
          }
        ],
        "code": {
          "coding": [
            {
              "code": "2885-2",
              "system": "http://loinc.org",
              "display": "Protein [Mass/volume] in Serum or Plasma"
            }
          ],
          "text": "Protein [Mass/volume] in Serum or Plasma"
        },
        "valueQuantity": {
          "system": "http://unitsofmeasure.org",
          "value": 6.2,
          "unit": "g/dL",
          "code": "g/dL"
        },
        "referenceRange": [
          {
            "low": {
              "value": 6,
              "code": "g/dL",
              "system": "http://unitsofmeasure.org"
            }
          },
          {
            "high": {
              "value": 8.3,
              "code": "g/dL",
              "system": "http://unitsofmeasure.org"
            }
          }
        ],
        "text": {
          "status": "generated",
          "div": "<div xmlns=\"http://www.w3.org/1999/xhtml\"><table class=\"hl7__eu__lab__report\"><tr><th>Test</th><th>24-May-2017</th><th>Reference&#xA0;Range</th><th>Unit</th></tr><tr><td>Protein [Mass/volume] in Serum or Plasma</td><td>6.2</td><td>6 - 8.3</td><td></td><td>g/dL</td></tr></table></div>"
        },
        "status": "final",
        "subject": {
          "reference": "urn:uuid:8e18686b-63fa-428b-a7b2-6cb83d070d3d",
          "display": "Aniela Prażmo"
        },
        "effectiveDateTime": "2017-05-24T19:28:22Z",
        "specimen": {
          "reference": "urn:uuid:76da85b3-5ba8-4bbc-a261-e1ef88d48e8e"
        }
      }
    },
    {
      "fullUrl": "urn:uuid:0e973a73-393e-4e6f-b8ae-a8495e944d19",
      "resource": {
        "resourceType": "Observation",
        "id": "0e973a73-393e-4e6f-b8ae-a8495e944d19",
        "meta": {
          "profile": [
            "http://hl7.eu/fhir/laboratory/StructureDefinition/Observation-resultslab-eu-lab"
          ]
        },
        "performer": [
          {
            "display": "The Central European Lab"
          }
        ],
        "category": [
          {
            "coding": [
              {
                "system": "http://terminology.hl7.org/CodeSystem/observation-category",
                "code": "laboratory"
              }
            ]
          }
        ],
        "code": {
          "coding": [
            {
              "code": "1751-7",
              "system": "http://loinc.org",
              "display": "Albumin [Mass/volume] in Serum or Plasma"
            }
          ],
          "text": "Albumin [Mass/volume] in Serum or Plasma"
        },
        "valueQuantity": {
          "system": "http://unitsofmeasure.org",
          "value": 4.2,
          "unit": "g/dL",
          "code": "g/dL"
        },
        "referenceRange": [
          {
            "low": {
              "value": 3.5,
              "code": "g/dL",
              "system": "http://unitsofmeasure.org"
            }
          },
          {
            "high": {
              "value": 5,
              "code": "g/dL",
              "system": "http://unitsofmeasure.org"
            }
          }
        ],
        "text": {
          "status": "generated",
          "div": "<div xmlns=\"http://www.w3.org/1999/xhtml\"><table class=\"hl7__eu__lab__report\"><tr><th>Test</th><th>24-May-2017</th><th>Reference&#xA0;Range</th><th>Unit</th></tr><tr><td>Albumin [Mass/volume] in Serum or Plasma</td><td>4.2</td><td>3.5 - 5</td><td></td><td>g/dL</td></tr></table></div>"
        },
        "status": "final",
        "subject": {
          "reference": "urn:uuid:8e18686b-63fa-428b-a7b2-6cb83d070d3d",
          "display": "Aniela Prażmo"
        },
        "effectiveDateTime": "2017-05-24T19:28:22Z",
        "specimen": {
          "reference": "urn:uuid:76da85b3-5ba8-4bbc-a261-e1ef88d48e8e"
        }
      }
    },
    {
      "fullUrl": "urn:uuid:f0f9fb6c-247b-4dfa-a553-33fb13fe6938",
      "resource": {
        "resourceType": "Observation",
        "id": "f0f9fb6c-247b-4dfa-a553-33fb13fe6938",
        "meta": {
          "profile": [
            "http://hl7.eu/fhir/laboratory/StructureDefinition/Observation-resultslab-eu-lab"
          ]
        },
        "performer": [
          {
            "display": "The Central European Lab"
          }
        ],
        "category": [
          {
            "coding": [
              {
                "system": "http://terminology.hl7.org/CodeSystem/observation-category",
                "code": "laboratory"
              }
            ]
          }
        ],
        "code": {
          "coding": [
            {
              "code": "1975-2",
              "system": "http://loinc.org",
              "display": "Bilirubin.total [Mass/volume] in Serum or Plasma"
            }
          ],
          "text": "Bilirubin.total [Mass/volume] in Serum or Plasma"
        },
        "valueQuantity": {
          "system": "http://unitsofmeasure.org",
          "value": 6.5,
          "unit": "mg/dL",
          "code": "mg/dL"
        },
        "referenceRange": [
          {
            "low": {
              "value": 0.3,
              "code": "mg/dL",
              "system": "http://unitsofmeasure.org"
            }
          },
          {
            "high": {
              "value": 1.2,
              "code": "mg/dL",
              "system": "http://unitsofmeasure.org"
            }
          }
        ],
        "interpretation": [
          {
            "coding": [
              {
                "code": "H",
                "system": "http://terminology.hl7.org/CodeSystem/v3-ObservationInterpretation",
                "display": "High"
              }
            ]
          }
        ],
        "text": {
          "status": "generated",
          "div": "<div xmlns=\"http://www.w3.org/1999/xhtml\"><table class=\"hl7__eu__lab__report\"><tr><th>Test</th><th>24-May-2017</th><th>Reference&#xA0;Range</th><th>Unit</th></tr><tr><td>Bilirubin.total [Mass/volume] in Serum or Plasma</td><td>6.5</td><td>0.3 - 1.2</td><td>H</td><td>mg/dL</td></tr></table></div>"
        },
        "status": "final",
        "subject": {
          "reference": "urn:uuid:8e18686b-63fa-428b-a7b2-6cb83d070d3d",
          "display": "Aniela Prażmo"
        },
        "effectiveDateTime": "2017-05-24T19:28:22Z",
        "specimen": {
          "reference": "urn:uuid:76da85b3-5ba8-4bbc-a261-e1ef88d48e8e"
        }
      }
    },
    {
      "fullUrl": "urn:uuid:7f7522ab-8549-4012-aae6-0101a11f5544",
      "resource": {
        "resourceType": "Observation",
        "id": "7f7522ab-8549-4012-aae6-0101a11f5544",
        "meta": {
          "profile": [
            "http://hl7.eu/fhir/laboratory/StructureDefinition/Observation-resultslab-eu-lab"
          ]
        },
        "performer": [
          {
            "display": "The Central European Lab"
          }
        ],
        "category": [
          {
            "coding": [
              {
                "system": "http://terminology.hl7.org/CodeSystem/observation-category",
                "code": "laboratory"
              }
            ]
          }
        ],
        "code": {
          "coding": [
            {
              "code": "6768-6",
              "system": "http://loinc.org",
              "display": "Alkaline phosphatase [Enzymatic activity/volume] in Serum or Plasma"
            }
          ],
          "text": "Alkaline phosphatase [Enzymatic activity/volume] in Serum or Plasma"
        },
        "valueQuantity": {
          "system": "http://unitsofmeasure.org",
          "value": 110.8,
          "unit": "U/L",
          "code": "U/L"
        },
        "referenceRange": [
          {
            "low": {
              "value": 32,
              "code": "U/L",
              "system": "http://unitsofmeasure.org"
            }
          },
          {
            "high": {
              "value": 150,
              "code": "U/L",
              "system": "http://unitsofmeasure.org"
            }
          }
        ],
        "text": {
          "status": "generated",
          "div": "<div xmlns=\"http://www.w3.org/1999/xhtml\"><table class=\"hl7__eu__lab__report\"><tr><th>Test</th><th>24-May-2017</th><th>Reference&#xA0;Range</th><th>Unit</th></tr><tr><td>Alkaline phosphatase [Enzymatic activity/volume] in Serum or Plasma</td><td>110.8</td><td>32 - 150</td><td></td><td>U/L</td></tr></table></div>"
        },
        "status": "final",
        "subject": {
          "reference": "urn:uuid:8e18686b-63fa-428b-a7b2-6cb83d070d3d",
          "display": "Aniela Prażmo"
        },
        "effectiveDateTime": "2017-05-24T19:28:22Z",
        "specimen": {
          "reference": "urn:uuid:76da85b3-5ba8-4bbc-a261-e1ef88d48e8e"
        }
      }
    },
    {
      "fullUrl": "urn:uuid:2239f8eb-5a4e-4322-a785-985365a24a9f",
      "resource": {
        "resourceType": "Observation",
        "id": "2239f8eb-5a4e-4322-a785-985365a24a9f",
        "meta": {
          "profile": [
            "http://hl7.eu/fhir/laboratory/StructureDefinition/Observation-resultslab-eu-lab"
          ]
        },
        "performer": [
          {
            "display": "The Central European Lab"
          }
        ],
        "category": [
          {
            "coding": [
              {
                "system": "http://terminology.hl7.org/CodeSystem/observation-category",
                "code": "laboratory"
              }
            ]
          }
        ],
        "code": {
          "coding": [
            {
              "code": "1742-6",
              "system": "http://loinc.org",
              "display": "Alanine aminotransferase [Enzymatic activity/volume] in Serum or Plasma"
            }
          ],
          "text": "Alanine aminotransferase [Enzymatic activity/volume] in Serum or Plasma"
        },
        "valueQuantity": {
          "system": "http://unitsofmeasure.org",
          "value": 15.8,
          "unit": "U/L",
          "code": "U/L"
        },
        "referenceRange": [
          {
            "low": {
              "value": 13,
              "code": "U/L",
              "system": "http://unitsofmeasure.org"
            }
          },
          {
            "high": {
              "value": 32,
              "code": "U/L",
              "system": "http://unitsofmeasure.org"
            }
          }
        ],
        "text": {
          "status": "generated",
          "div": "<div xmlns=\"http://www.w3.org/1999/xhtml\"><table class=\"hl7__eu__lab__report\"><tr><th>Test</th><th>24-May-2017</th><th>Reference&#xA0;Range</th><th>Unit</th></tr><tr><td>Alanine aminotransferase [Enzymatic activity/volume] in Serum or Plasma</td><td>15.8</td><td>13 - 32</td><td></td><td>U/L</td></tr></table></div>"
        },
        "status": "final",
        "subject": {
          "reference": "urn:uuid:8e18686b-63fa-428b-a7b2-6cb83d070d3d",
          "display": "Aniela Prażmo"
        },
        "effectiveDateTime": "2017-05-24T19:28:22Z",
        "specimen": {
          "reference": "urn:uuid:76da85b3-5ba8-4bbc-a261-e1ef88d48e8e"
        }
      }
    },
    {
      "fullUrl": "urn:uuid:bddbc8c2-8c49-43f2-a27f-e9f4f2d8feb2",
      "resource": {
        "resourceType": "Observation",
        "id": "bddbc8c2-8c49-43f2-a27f-e9f4f2d8feb2",
        "meta": {
          "profile": [
            "http://hl7.eu/fhir/laboratory/StructureDefinition/Observation-resultslab-eu-lab"
          ]
        },
        "performer": [
          {
            "display": "The Central European Lab"
          }
        ],
        "category": [
          {
            "coding": [
              {
                "system": "http://terminology.hl7.org/CodeSystem/observation-category",
                "code": "laboratory"
              }
            ]
          }
        ],
        "code": {
          "coding": [
            {
              "code": "1920-8",
              "system": "http://loinc.org",
              "display": "Aspartate aminotransferase [Enzymatic activity/volume] in Serum or Plasma"
            }
          ],
          "text": "Aspartate aminotransferase [Enzymatic activity/volume] in Serum or Plasma"
        },
        "valueQuantity": {
          "system": "http://unitsofmeasure.org",
          "value": 7.1,
          "unit": "U/L",
          "code": "U/L"
        },
        "referenceRange": [
          {
            "low": {
              "value": 10,
              "code": "U/L",
              "system": "http://unitsofmeasure.org"
            }
          },
          {
            "high": {
              "value": 40,
              "code": "U/L",
              "system": "http://unitsofmeasure.org"
            }
          }
        ],
        "interpretation": [
          {
            "coding": [
              {
                "code": "L",
                "system": "http://terminology.hl7.org/CodeSystem/v3-ObservationInterpretation",
                "display": "Low"
              }
            ]
          }
        ],
        "text": {
          "status": "generated",
          "div": "<div xmlns=\"http://www.w3.org/1999/xhtml\"><table class=\"hl7__eu__lab__report\"><tr><th>Test</th><th>24-May-2017</th><th>Reference&#xA0;Range</th><th>Unit</th></tr><tr><td>Aspartate aminotransferase [Enzymatic activity/volume] in Serum or Plasma</td><td>7.1</td><td>10 - 40</td><td>L</td><td>U/L</td></tr></table></div>"
        },
        "status": "final",
        "subject": {
          "reference": "urn:uuid:8e18686b-63fa-428b-a7b2-6cb83d070d3d",
          "display": "Aniela Prażmo"
        },
        "effectiveDateTime": "2017-05-24T19:28:22Z",
        "specimen": {
          "reference": "urn:uuid:76da85b3-5ba8-4bbc-a261-e1ef88d48e8e"
        }
      }
    },
    {
      "fullUrl": "urn:uuid:0b324767-610f-4d8a-9205-831261b55a87",
      "resource": {
        "resourceType": "Observation",
        "id": "0b324767-610f-4d8a-9205-831261b55a87",
        "meta": {
          "profile": [
            "http://hl7.eu/fhir/laboratory/StructureDefinition/Observation-resultslab-eu-lab"
          ]
        },
        "performer": [
          {
            "display": "The Central European Lab"
          }
        ],
        "category": [
          {
            "coding": [
              {
                "system": "http://terminology.hl7.org/CodeSystem/observation-category",
                "code": "laboratory"
              }
            ]
          }
        ],
        "code": {
          "coding": [
            {
              "code": "19123-9",
              "system": "http://loinc.org",
              "display": "Magnesium [Mass/volume] in Serum or Plasma"
            }
          ],
          "text": "Magnesium [Mass/volume] in Serum or Plasma"
        },
        "valueQuantity": {
          "system": "http://unitsofmeasure.org",
          "value": 1.9,
          "unit": "mg/dL",
          "code": "mg/dL"
        },
        "referenceRange": [
          {
            "low": {
              "value": 1.7,
              "code": "mg/dL",
              "system": "http://unitsofmeasure.org"
            }
          },
          {
            "high": {
              "value": 2.6,
              "code": "mg/dL",
              "system": "http://unitsofmeasure.org"
            }
          }
        ],
        "text": {
          "status": "generated",
          "div": "<div xmlns=\"http://www.w3.org/1999/xhtml\"><table class=\"hl7__eu__lab__report\"><tr><th>Test</th><th>24-May-2017</th><th>Reference&#xA0;Range</th><th>Unit</th></tr><tr><td>Magnesium [Mass/volume] in Serum or Plasma</td><td>1.9</td><td>1.7 - 2.6</td><td></td><td>mg/dL</td></tr></table></div>"
        },
        "status": "final",
        "subject": {
          "reference": "urn:uuid:8e18686b-63fa-428b-a7b2-6cb83d070d3d",
          "display": "Aniela Prażmo"
        },
        "effectiveDateTime": "2017-05-24T19:28:22Z",
        "specimen": {
          "reference": "urn:uuid:76da85b3-5ba8-4bbc-a261-e1ef88d48e8e"
        }
      }
    },
    {
      "fullUrl": "urn:uuid:77d797e1-c7b3-4b66-b62d-f0e8b1efeb41",
      "resource": {
        "resourceType": "Observation",
        "id": "77d797e1-c7b3-4b66-b62d-f0e8b1efeb41",
        "meta": {
          "profile": [
            "http://hl7.eu/fhir/laboratory/StructureDefinition/Observation-resultslab-eu-lab"
          ]
        },
        "performer": [
          {
            "display": "The Central European Lab"
          }
        ],
        "category": [
          {
            "coding": [
              {
                "system": "http://terminology.hl7.org/CodeSystem/observation-category",
                "code": "laboratory"
              }
            ]
          }
        ],
        "code": {
          "coding": [
            {
              "code": "2777-1",
              "system": "http://loinc.org",
              "display": "Phosphate [Mass/volume] in Serum or Plasma"
            }
          ],
          "text": "Phosphate [Mass/volume] in Serum or Plasma"
        },
        "valueQuantity": {
          "system": "http://unitsofmeasure.org",
          "value": 3.4,
          "unit": "mg/dL",
          "code": "mg/dL"
        },
        "referenceRange": [
          {
            "low": {
              "value": 2.5,
              "code": "mg/dL",
              "system": "http://unitsofmeasure.org"
            }
          },
          {
            "high": {
              "value": 4.5,
              "code": "mg/dL",
              "system": "http://unitsofmeasure.org"
            }
          }
        ],
        "text": {
          "status": "generated",
          "div": "<div xmlns=\"http://www.w3.org/1999/xhtml\"><table class=\"hl7__eu__lab__report\"><tr><th>Test</th><th>24-May-2017</th><th>Reference&#xA0;Range</th><th>Unit</th></tr><tr><td>Phosphate [Mass/volume] in Serum or Plasma</td><td>3.4</td><td>2.5 - 4.5</td><td></td><td>mg/dL</td></tr></table></div>"
        },
        "status": "final",
        "subject": {
          "reference": "urn:uuid:8e18686b-63fa-428b-a7b2-6cb83d070d3d",
          "display": "Aniela Prażmo"
        },
        "effectiveDateTime": "2017-05-24T19:28:22Z",
        "specimen": {
          "reference": "urn:uuid:76da85b3-5ba8-4bbc-a261-e1ef88d48e8e"
        }
      }
    },
    {
      "fullUrl": "urn:uuid:33c33b44-4fd0-41ec-8a25-be66cc6ee099",
      "resource": {
        "resourceType": "Observation",
        "id": "33c33b44-4fd0-41ec-8a25-be66cc6ee099",
        "meta": {
          "profile": [
            "http://hl7.eu/fhir/laboratory/StructureDefinition/Observation-resultslab-eu-lab"
          ]
        },
        "performer": [
          {
            "display": "The Central European Lab"
          }
        ],
        "category": [
          {
            "coding": [
              {
                "system": "http://terminology.hl7.org/CodeSystem/observation-category",
                "code": "laboratory"
              }
            ]
          }
        ],
        "code": {
          "coding": [
            {
              "code": "5902-2",
              "system": "http://loinc.org",
              "display": "Prothrombin time (PT)"
            }
          ],
          "text": "Prothrombin time (PT)"
        },
        "valueQuantity": {
          "system": "http://unitsofmeasure.org",
          "value": 9.3,
          "unit": "s",
          "code": "s"
        },
        "referenceRange": [
          {
            "low": {
              "value": 11,
              "code": "s",
              "system": "http://unitsofmeasure.org"
            }
          },
          {
            "high": {
              "value": 15,
              "code": "s",
              "system": "http://unitsofmeasure.org"
            }
          }
        ],
        "interpretation": [
          {
            "coding": [
              {
                "code": "L",
                "system": "http://terminology.hl7.org/CodeSystem/v3-ObservationInterpretation",
                "display": "Low"
              }
            ]
          }
        ],
        "text": {
          "status": "generated",
          "div": "<div xmlns=\"http://www.w3.org/1999/xhtml\"><table class=\"hl7__eu__lab__report\"><tr><th>Test</th><th>24-May-2017</th><th>Reference&#xA0;Range</th><th>Unit</th></tr><tr><td>Prothrombin time (PT)</td><td>9.3</td><td>11 - 15</td><td>L</td><td>s</td></tr></table></div>"
        },
        "status": "final",
        "subject": {
          "reference": "urn:uuid:8e18686b-63fa-428b-a7b2-6cb83d070d3d",
          "display": "Aniela Prażmo"
        },
        "effectiveDateTime": "2017-05-24T19:28:22Z",
        "specimen": {
          "reference": "urn:uuid:88941db4-ec0e-485d-ab26-268758064b30"
        }
      }
    },
    {
      "fullUrl": "urn:uuid:f8b32d57-76e1-4bab-a797-5eeb9bc4f0cc",
      "resource": {
        "resourceType": "Observation",
        "id": "f8b32d57-76e1-4bab-a797-5eeb9bc4f0cc",
        "meta": {
          "profile": [
            "http://hl7.eu/fhir/laboratory/StructureDefinition/Observation-resultslab-eu-lab"
          ]
        },
        "performer": [
          {
            "display": "The Central European Lab"
          }
        ],
        "category": [
          {
            "coding": [
              {
                "system": "http://terminology.hl7.org/CodeSystem/observation-category",
                "code": "laboratory"
              }
            ]
          }
        ],
        "code": {
          "coding": [
            {
              "code": "6301-6",
              "system": "http://loinc.org",
              "display": "INR in Platelet poor plasma by Coagulation assay"
            }
          ],
          "text": "INR in Platelet poor plasma by Coagulation assay"
        },
        "valueQuantity": {
          "system": "http://unitsofmeasure.org",
          "value": 0.9,
          "unit": "{INR}",
          "code": "{INR}"
        },
        "referenceRange": [
          {
            "low": {
              "value": 0.9,
              "code": "INR",
              "system": "http://unitsofmeasure.org"
            }
          },
          {
            "high": {
              "value": 1.1,
              "code": "INR",
              "system": "http://unitsofmeasure.org"
            }
          }
        ],
        "text": {
          "status": "generated",
          "div": "<div xmlns=\"http://www.w3.org/1999/xhtml\"><table class=\"hl7__eu__lab__report\"><tr><th>Test</th><th>24-May-2017</th><th>Reference&#xA0;Range</th><th>Unit</th></tr><tr><td>INR in Platelet poor plasma by Coagulation assay</td><td>0.9</td><td>0.9 - 1.1</td><td></td><td>{INR}</td></tr></table></div>"
        },
        "status": "final",
        "subject": {
          "reference": "urn:uuid:8e18686b-63fa-428b-a7b2-6cb83d070d3d",
          "display": "Aniela Prażmo"
        },
        "effectiveDateTime": "2017-05-24T19:28:22Z",
        "specimen": {
          "reference": "urn:uuid:88941db4-ec0e-485d-ab26-268758064b30"
        }
      }
    },
    {
      "fullUrl": "urn:uuid:6465aa88-97ab-4f06-9316-b776d68007dd",
      "resource": {
        "resourceType": "Observation",
        "id": "6465aa88-97ab-4f06-9316-b776d68007dd",
        "meta": {
          "profile": [
            "http://hl7.eu/fhir/laboratory/StructureDefinition/Observation-resultslab-eu-lab"
          ]
        },
        "performer": [
          {
            "display": "The Central European Lab"
          }
        ],
        "category": [
          {
            "coding": [
              {
                "system": "http://terminology.hl7.org/CodeSystem/observation-category",
                "code": "laboratory"
              }
            ]
          }
        ],
        "code": {
          "coding": [
            {
              "code": "3173-2",
              "system": "http://loinc.org",
              "display": "aPTT in Blood by Coagulation assay"
            }
          ],
          "text": "aPTT in Blood by Coagulation assay"
        },
        "valueQuantity": {
          "system": "http://unitsofmeasure.org",
          "value": 26.8,
          "unit": "s",
          "code": "s"
        },
        "referenceRange": [
          {
            "low": {
              "value": 25,
              "code": "seconds",
              "system": "http://unitsofmeasure.org"
            }
          },
          {
            "high": {
              "value": 35,
              "code": "seconds",
              "system": "http://unitsofmeasure.org"
            }
          }
        ],
        "text": {
          "status": "generated",
          "div": "<div xmlns=\"http://www.w3.org/1999/xhtml\"><table class=\"hl7__eu__lab__report\"><tr><th>Test</th><th>24-May-2017</th><th>Reference&#xA0;Range</th><th>Unit</th></tr><tr><td>aPTT in Blood by Coagulation assay</td><td>26.8</td><td>25 - 35</td><td></td><td>s</td></tr></table></div>"
        },
        "status": "final",
        "subject": {
          "reference": "urn:uuid:8e18686b-63fa-428b-a7b2-6cb83d070d3d",
          "display": "Aniela Prażmo"
        },
        "effectiveDateTime": "2017-05-24T19:28:22Z",
        "specimen": {
          "reference": "urn:uuid:4bc8b4b9-8a7d-4bf4-816c-56857ba2ea47"
        }
      }
    },
    {
      "fullUrl": "urn:uuid:68b54892-9a9c-40ea-9899-65c12a7aa00f",
      "resource": {
        "resourceType": "Observation",
        "id": "68b54892-9a9c-40ea-9899-65c12a7aa00f",
        "meta": {
          "profile": [
            "http://hl7.eu/fhir/laboratory/StructureDefinition/Observation-resultslab-eu-lab"
          ]
        },
        "performer": [
          {
            "display": "The Central European Lab"
          }
        ],
        "category": [
          {
            "coding": [
              {
                "system": "http://terminology.hl7.org/CodeSystem/observation-category",
                "code": "laboratory"
              }
            ]
          }
        ],
        "code": {
          "coding": [
            {
              "code": "2744-1",
              "system": "http://loinc.org",
              "display": "pH of Arterial blood"
            }
          ],
          "text": "pH of Arterial blood"
        },
        "valueQuantity": {
          "system": "http://unitsofmeasure.org",
          "value": 6.8,
          "unit": "[pH]",
          "code": "[pH]"
        },
        "referenceRange": [
          {
            "low": {
              "value": 7.35,
              "code": "pH",
              "system": "http://unitsofmeasure.org"
            }
          },
          {
            "high": {
              "value": 7.45,
              "code": "pH",
              "system": "http://unitsofmeasure.org"
            }
          }
        ],
        "interpretation": [
          {
            "coding": [
              {
                "code": "L",
                "system": "http://terminology.hl7.org/CodeSystem/v3-ObservationInterpretation",
                "display": "Low"
              }
            ]
          }
        ],
        "text": {
          "status": "generated",
          "div": "<div xmlns=\"http://www.w3.org/1999/xhtml\"><table class=\"hl7__eu__lab__report\"><tr><th>Test</th><th>24-May-2017</th><th>Reference&#xA0;Range</th><th>Unit</th></tr><tr><td>pH of Arterial blood</td><td>6.8</td><td>7.35 - 7.45</td><td>L</td><td>[pH]</td></tr></table></div>"
        },
        "status": "final",
        "subject": {
          "reference": "urn:uuid:8e18686b-63fa-428b-a7b2-6cb83d070d3d",
          "display": "Aniela Prażmo"
        },
        "effectiveDateTime": "2017-05-24T19:28:22Z",
        "specimen": {
          "reference": "urn:uuid:70deb271-951a-425d-9a62-254421f497ba"
        }
      }
    },
    {
      "fullUrl": "urn:uuid:424aca0f-5376-4d1f-ac54-688de3df2ec9",
      "resource": {
        "resourceType": "Observation",
        "id": "424aca0f-5376-4d1f-ac54-688de3df2ec9",
        "meta": {
          "profile": [
            "http://hl7.eu/fhir/laboratory/StructureDefinition/Observation-resultslab-eu-lab"
          ]
        },
        "performer": [
          {
            "display": "The Central European Lab"
          }
        ],
        "category": [
          {
            "coding": [
              {
                "system": "http://terminology.hl7.org/CodeSystem/observation-category",
                "code": "laboratory"
              }
            ]
          }
        ],
        "code": {
          "coding": [
            {
              "code": "2019-8",
              "system": "http://loinc.org",
              "display": "Carbon dioxide [Partial pressure] in Arterial blood"
            }
          ],
          "text": "Carbon dioxide [Partial pressure] in Arterial blood"
        },
        "valueQuantity": {
          "system": "http://unitsofmeasure.org",
          "value": 40.5,
          "unit": "mm[Hg]",
          "code": "mm[Hg]"
        },
        "referenceRange": [
          {
            "low": {
              "value": 38,
              "code": "mm[Hg]",
              "system": "http://unitsofmeasure.org"
            }
          },
          {
            "high": {
              "value": 48,
              "code": "mm[Hg]",
              "system": "http://unitsofmeasure.org"
            }
          }
        ],
        "text": {
          "status": "generated",
          "div": "<div xmlns=\"http://www.w3.org/1999/xhtml\"><table class=\"hl7__eu__lab__report\"><tr><th>Test</th><th>24-May-2017</th><th>Reference&#xA0;Range</th><th>Unit</th></tr><tr><td>Carbon dioxide [Partial pressure] in Arterial blood</td><td>40.5</td><td>38 - 48</td><td></td><td>mm[Hg]</td></tr></table></div>"
        },
        "status": "final",
        "subject": {
          "reference": "urn:uuid:8e18686b-63fa-428b-a7b2-6cb83d070d3d",
          "display": "Aniela Prażmo"
        },
        "effectiveDateTime": "2017-05-24T19:28:22Z",
        "specimen": {
          "reference": "urn:uuid:70deb271-951a-425d-9a62-254421f497ba"
        }
      }
    },
    {
      "fullUrl": "urn:uuid:17ea42bd-d92d-4479-9081-e27b4a0e5c58",
      "resource": {
        "resourceType": "Observation",
        "id": "17ea42bd-d92d-4479-9081-e27b4a0e5c58",
        "meta": {
          "profile": [
            "http://hl7.eu/fhir/laboratory/StructureDefinition/Observation-resultslab-eu-lab"
          ]
        },
        "performer": [
          {
            "display": "The Central European Lab"
          }
        ],
        "category": [
          {
            "coding": [
              {
                "system": "http://terminology.hl7.org/CodeSystem/observation-category",
                "code": "laboratory"
              }
            ]
          }
        ],
        "code": {
          "coding": [
            {
              "code": "2703-7",
              "system": "http://loinc.org",
              "display": "Oxygen [Partial pressure] in Arterial blood"
            }
          ],
          "text": "Oxygen [Partial pressure] in Arterial blood"
        },
        "valueQuantity": {
          "system": "http://unitsofmeasure.org",
          "value": 82.3,
          "unit": "mm[Hg]",
          "code": "mm[Hg]"
        },
        "referenceRange": [
          {
            "low": {
              "value": 75,
              "code": "mm[Hg]",
              "system": "http://unitsofmeasure.org"
            }
          },
          {
            "high": {
              "value": 100,
              "code": "mm[Hg]",
              "system": "http://unitsofmeasure.org"
            }
          }
        ],
        "text": {
          "status": "generated",
          "div": "<div xmlns=\"http://www.w3.org/1999/xhtml\"><table class=\"hl7__eu__lab__report\"><tr><th>Test</th><th>24-May-2017</th><th>Reference&#xA0;Range</th><th>Unit</th></tr><tr><td>Oxygen [Partial pressure] in Arterial blood</td><td>82.3</td><td>75 - 100</td><td></td><td>mm[Hg]</td></tr></table></div>"
        },
        "status": "final",
        "subject": {
          "reference": "urn:uuid:8e18686b-63fa-428b-a7b2-6cb83d070d3d",
          "display": "Aniela Prażmo"
        },
        "effectiveDateTime": "2017-05-24T19:28:22Z",
        "specimen": {
          "reference": "urn:uuid:70deb271-951a-425d-9a62-254421f497ba"
        }
      }
    },
    {
      "fullUrl": "urn:uuid:4e75c960-ef6d-4b4e-af16-2ab0e0a9e9cb",
      "resource": {
        "resourceType": "Observation",
        "id": "4e75c960-ef6d-4b4e-af16-2ab0e0a9e9cb",
        "meta": {
          "profile": [
            "http://hl7.eu/fhir/laboratory/StructureDefinition/Observation-resultslab-eu-lab"
          ]
        },
        "performer": [
          {
            "display": "The Central European Lab"
          }
        ],
        "category": [
          {
            "coding": [
              {
                "system": "http://terminology.hl7.org/CodeSystem/observation-category",
                "code": "laboratory"
              }
            ]
          }
        ],
        "code": {
          "coding": [
            {
              "code": "1960-4",
              "system": "http://loinc.org",
              "display": "Bicarbonate [Moles/volume] in Arterial blood"
            }
          ],
          "text": "Bicarbonate [Moles/volume] in Arterial blood"
        },
        "valueQuantity": {
          "system": "http://unitsofmeasure.org",
          "value": 25.5,
          "unit": "mmol/L",
          "code": "mmol/L"
        },
        "referenceRange": [
          {
            "low": {
              "value": 22,
              "code": "mmol/L",
              "system": "http://unitsofmeasure.org"
            }
          },
          {
            "high": {
              "value": 31,
              "code": "mmol/L",
              "system": "http://unitsofmeasure.org"
            }
          }
        ],
        "text": {
          "status": "generated",
          "div": "<div xmlns=\"http://www.w3.org/1999/xhtml\"><table class=\"hl7__eu__lab__report\"><tr><th>Test</th><th>24-May-2017</th><th>Reference&#xA0;Range</th><th>Unit</th></tr><tr><td>Bicarbonate [Moles/volume] in Arterial blood</td><td>25.5</td><td>22 - 31</td><td></td><td>mmol/L</td></tr></table></div>"
        },
        "status": "final",
        "subject": {
          "reference": "urn:uuid:8e18686b-63fa-428b-a7b2-6cb83d070d3d",
          "display": "Aniela Prażmo"
        },
        "effectiveDateTime": "2017-05-24T19:28:22Z",
        "specimen": {
          "reference": "urn:uuid:70deb271-951a-425d-9a62-254421f497ba"
        }
      }
    },
    {
      "fullUrl": "urn:uuid:4d0809e4-66a3-4d23-8221-bae9ddb7977b",
      "resource": {
        "resourceType": "Observation",
        "id": "4d0809e4-66a3-4d23-8221-bae9ddb7977b",
        "meta": {
          "profile": [
            "http://hl7.eu/fhir/laboratory/StructureDefinition/Observation-resultslab-eu-lab"
          ]
        },
        "performer": [
          {
            "display": "The Central European Lab"
          }
        ],
        "category": [
          {
            "coding": [
              {
                "system": "http://terminology.hl7.org/CodeSystem/observation-category",
                "code": "laboratory"
              }
            ]
          }
        ],
        "code": {
          "coding": [
            {
              "code": "2708-6",
              "system": "http://loinc.org",
              "display": "Oxygen saturation in Arterial blood"
            }
          ],
          "text": "Oxygen saturation in Arterial blood"
        },
        "valueQuantity": {
          "system": "http://unitsofmeasure.org",
          "value": 94,
          "unit": "%",
          "code": "%"
        },
        "referenceRange": [
          {
            "low": {
              "value": 95,
              "code": "%",
              "system": "http://unitsofmeasure.org"
            }
          },
          {
            "high": {
              "value": 100,
              "code": "%",
              "system": "http://unitsofmeasure.org"
            }
          }
        ],
        "interpretation": [
          {
            "coding": [
              {
                "code": "L",
                "system": "http://terminology.hl7.org/CodeSystem/v3-ObservationInterpretation",
                "display": "Low"
              }
            ]
          }
        ],
        "text": {
          "status": "generated",
          "div": "<div xmlns=\"http://www.w3.org/1999/xhtml\"><table class=\"hl7__eu__lab__report\"><tr><th>Test</th><th>24-May-2017</th><th>Reference&#xA0;Range</th><th>Unit</th></tr><tr><td>Oxygen saturation in Arterial blood</td><td>94.0</td><td>95 - 100</td><td>L</td><td>%</td></tr></table></div>"
        },
        "status": "final",
        "subject": {
          "reference": "urn:uuid:8e18686b-63fa-428b-a7b2-6cb83d070d3d",
          "display": "Aniela Prażmo"
        },
        "effectiveDateTime": "2017-05-24T19:28:22Z",
        "specimen": {
          "reference": "urn:uuid:70deb271-951a-425d-9a62-254421f497ba"
        }
      }
    },
    {
      "fullUrl": "urn:uuid:63805b19-0838-4a9e-af40-ac33c808b12c",
      "resource": {
        "resourceType": "Observation",
        "id": "63805b19-0838-4a9e-af40-ac33c808b12c",
        "meta": {
          "profile": [
            "http://hl7.eu/fhir/laboratory/StructureDefinition/Observation-resultslab-eu-lab"
          ]
        },
        "performer": [
          {
            "display": "The Central European Lab"
          }
        ],
        "category": [
          {
            "coding": [
              {
                "system": "http://terminology.hl7.org/CodeSystem/observation-category",
                "code": "laboratory"
              }
            ]
          }
        ],
        "code": {
          "coding": [
            {
              "code": "2093-3",
              "system": "http://loinc.org",
              "display": "Cholesterol [Mass/volume] in Serum or Plasma"
            }
          ],
          "text": "Cholesterol [Mass/volume] in Serum or Plasma"
        },
        "valueQuantity": {
          "system": "http://unitsofmeasure.org",
          "value": 299.5,
          "unit": "mg/dL",
          "code": "mg/dL"
        },
        "referenceRange": [
          {
            "low": {
              "value": 130,
              "code": "mg/dL",
              "system": "http://unitsofmeasure.org"
            }
          },
          {
            "high": {
              "value": 200,
              "code": "mg/dL",
              "system": "http://unitsofmeasure.org"
            }
          }
        ],
        "interpretation": [
          {
            "coding": [
              {
                "code": "H",
                "system": "http://terminology.hl7.org/CodeSystem/v3-ObservationInterpretation",
                "display": "High"
              }
            ]
          }
        ],
        "text": {
          "status": "generated",
          "div": "<div xmlns=\"http://www.w3.org/1999/xhtml\"><table class=\"hl7__eu__lab__report\"><tr><th>Test</th><th>24-May-2017</th><th>Reference&#xA0;Range</th><th>Unit</th></tr><tr><td>Cholesterol [Mass/volume] in Serum or Plasma</td><td>299.5</td><td>130 - 200</td><td>H</td><td>mg/dL</td></tr></table></div>"
        },
        "status": "final",
        "subject": {
          "reference": "urn:uuid:8e18686b-63fa-428b-a7b2-6cb83d070d3d",
          "display": "Aniela Prażmo"
        },
        "effectiveDateTime": "2017-05-24T19:28:22Z",
        "specimen": {
          "reference": "urn:uuid:76da85b3-5ba8-4bbc-a261-e1ef88d48e8e"
        }
      }
    },
    {
      "fullUrl": "urn:uuid:5a89ea79-389a-49b5-846a-f6932270536d",
      "resource": {
        "resourceType": "Observation",
        "id": "5a89ea79-389a-49b5-846a-f6932270536d",
        "meta": {
          "profile": [
            "http://hl7.eu/fhir/laboratory/StructureDefinition/Observation-resultslab-eu-lab"
          ]
        },
        "performer": [
          {
            "display": "The Central European Lab"
          }
        ],
        "category": [
          {
            "coding": [
              {
                "system": "http://terminology.hl7.org/CodeSystem/observation-category",
                "code": "laboratory"
              }
            ]
          }
        ],
        "code": {
          "coding": [
            {
              "code": "2571-8",
              "system": "http://loinc.org",
              "display": "Triglyceride [Mass/volume] in Serum or Plasma"
            }
          ],
          "text": "Triglyceride [Mass/volume] in Serum or Plasma"
        },
        "valueQuantity": {
          "system": "http://unitsofmeasure.org",
          "value": 140.8,
          "unit": "mg/dL",
          "code": "mg/dL"
        },
        "referenceRange": [
          {
            "low": {
              "value": 0,
              "code": "mg/dL",
              "system": "http://unitsofmeasure.org"
            }
          },
          {
            "high": {
              "value": 199,
              "code": "mg/dL",
              "system": "http://unitsofmeasure.org"
            }
          }
        ],
        "text": {
          "status": "generated",
          "div": "<div xmlns=\"http://www.w3.org/1999/xhtml\"><table class=\"hl7__eu__lab__report\"><tr><th>Test</th><th>24-May-2017</th><th>Reference&#xA0;Range</th><th>Unit</th></tr><tr><td>Triglyceride [Mass/volume] in Serum or Plasma</td><td>140.8</td><td>0 - 199</td><td></td><td>mg/dL</td></tr></table></div>"
        },
        "status": "final",
        "subject": {
          "reference": "urn:uuid:8e18686b-63fa-428b-a7b2-6cb83d070d3d",
          "display": "Aniela Prażmo"
        },
        "effectiveDateTime": "2017-05-24T19:28:22Z",
        "specimen": {
          "reference": "urn:uuid:76da85b3-5ba8-4bbc-a261-e1ef88d48e8e"
        }
      }
    },
    {
      "fullUrl": "urn:uuid:1218df40-11cb-4462-87bb-3a4a8f962b4a",
      "resource": {
        "resourceType": "Observation",
        "id": "1218df40-11cb-4462-87bb-3a4a8f962b4a",
        "meta": {
          "profile": [
            "http://hl7.eu/fhir/laboratory/StructureDefinition/Observation-resultslab-eu-lab"
          ]
        },
        "performer": [
          {
            "display": "The Central European Lab"
          }
        ],
        "category": [
          {
            "coding": [
              {
                "system": "http://terminology.hl7.org/CodeSystem/observation-category",
                "code": "laboratory"
              }
            ]
          }
        ],
        "code": {
          "coding": [
            {
              "code": "18262-6",
              "system": "http://loinc.org",
              "display": "Cholesterol in LDL [Mass/volume] in Serum or Plasma by Direct assay"
            }
          ],
          "text": "Cholesterol in LDL [Mass/volume] in Serum or Plasma by Direct assay"
        },
        "valueQuantity": {
          "system": "http://unitsofmeasure.org",
          "value": 210.5,
          "unit": "mg/dL",
          "code": "mg/dL"
        },
        "referenceRange": [
          {
            "low": {
              "value": 0,
              "code": "mg/dL",
              "system": "http://unitsofmeasure.org"
            }
          },
          {
            "high": {
              "value": 130,
              "code": "mg/dL",
              "system": "http://unitsofmeasure.org"
            }
          }
        ],
        "interpretation": [
          {
            "coding": [
              {
                "code": "H",
                "system": "http://terminology.hl7.org/CodeSystem/v3-ObservationInterpretation",
                "display": "High"
              }
            ]
          }
        ],
        "text": {
          "status": "generated",
          "div": "<div xmlns=\"http://www.w3.org/1999/xhtml\"><table class=\"hl7__eu__lab__report\"><tr><th>Test</th><th>24-May-2017</th><th>Reference&#xA0;Range</th><th>Unit</th></tr><tr><td>Cholesterol in LDL [Mass/volume] in Serum or Plasma by Direct assay</td><td>210.5</td><td>0 - 130</td><td>H</td><td>mg/dL</td></tr></table></div>"
        },
        "status": "final",
        "subject": {
          "reference": "urn:uuid:8e18686b-63fa-428b-a7b2-6cb83d070d3d",
          "display": "Aniela Prażmo"
        },
        "effectiveDateTime": "2017-05-24T19:28:22Z",
        "specimen": {
          "reference": "urn:uuid:76da85b3-5ba8-4bbc-a261-e1ef88d48e8e"
        }
      }
    },
    {
      "fullUrl": "urn:uuid:7b56734e-08db-4d0c-b9ad-365c3c0865b7",
      "resource": {
        "resourceType": "Observation",
        "id": "7b56734e-08db-4d0c-b9ad-365c3c0865b7",
        "meta": {
          "profile": [
            "http://hl7.eu/fhir/laboratory/StructureDefinition/Observation-resultslab-eu-lab"
          ]
        },
        "performer": [
          {
            "display": "The Central European Lab"
          }
        ],
        "category": [
          {
            "coding": [
              {
                "system": "http://terminology.hl7.org/CodeSystem/observation-category",
                "code": "laboratory"
              }
            ]
          }
        ],
        "code": {
          "coding": [
            {
              "code": "2085-9",
              "system": "http://loinc.org",
              "display": "Cholesterol in HDL [Mass/volume] in Serum or Plasma"
            }
          ],
          "text": "Cholesterol in HDL [Mass/volume] in Serum or Plasma"
        },
        "valueQuantity": {
          "system": "http://unitsofmeasure.org",
          "value": 60.9,
          "unit": "mg/dL",
          "code": "mg/dL"
        },
        "referenceRange": [
          {
            "low": {
              "value": 50,
              "code": "mg/dL",
              "system": "http://unitsofmeasure.org"
            }
          },
          {
            "high": {
              "value": 100,
              "code": "mg/dL",
              "system": "http://unitsofmeasure.org"
            }
          }
        ],
        "text": {
          "status": "generated",
          "div": "<div xmlns=\"http://www.w3.org/1999/xhtml\"><table class=\"hl7__eu__lab__report\"><tr><th>Test</th><th>24-May-2017</th><th>Reference&#xA0;Range</th><th>Unit</th></tr><tr><td>Cholesterol in HDL [Mass/volume] in Serum or Plasma</td><td>60.9</td><td>50 - 100</td><td></td><td>mg/dL</td></tr></table></div>"
        },
        "status": "final",
        "subject": {
          "reference": "urn:uuid:8e18686b-63fa-428b-a7b2-6cb83d070d3d",
          "display": "Aniela Prażmo"
        },
        "effectiveDateTime": "2017-05-24T19:28:22Z",
        "specimen": {
          "reference": "urn:uuid:76da85b3-5ba8-4bbc-a261-e1ef88d48e8e"
        }
      }
    },
    {
      "fullUrl": "urn:uuid:f3360d3b-93b5-40a7-a156-390e4c59b69e",
      "resource": {
        "resourceType": "Device",
        "id": "f3360d3b-93b5-40a7-a156-390e4c59b69e",
        "deviceName": [
          {
            "name": "SYNDERAI Synthetic Generator",
            "type": "manufacturer-name"
          }
        ],
        "version": [
          {
            "value": "5.0"
          }
        ],
        "text": {
          "status": "generated",
          "div": "<div xmlns=\"http://www.w3.org/1999/xhtml\">SYNDERAI Synthetic Generator v5.0</div>"
        },
        "status": "active\"",
        "distinctIdentifier": "synderai-generator-50",
        "manufacturer": "SYNDERAI Project"
      }
    },
    {
      "fullUrl": "urn:uuid:b8503f50-6ece-4444-8ad2-fe344bbc3576",
      "resource": {
        "resourceType": "Provenance",
        "id": "b8503f50-6ece-4444-8ad2-fe344bbc3576",
        "target": [
          {
            "reference": "Patient/8e18686b-63fa-428b-a7b2-6cb83d070d3d"
          },
          {
            "reference": "Bundle/02fd529d-ae77-446a-9642-df455a8a765d"
          },
          {
            "reference": "Composition/237e75e6-f75f-42ca-9006-0a9ae41c0038"
          },
          {
            "reference": "PractitionerRole/57d7cb64-6b58-4b22-85a3-0b47ed1a2ab9"
          },
          {
            "reference": "Practitioner/f6180f63-f590-4cba-87ee-e6ea63ab9488"
          },
          {
            "reference": "PractitionerRole/3b8bd677-1945-471d-acf4-5a4ad8238174"
          },
          {
            "reference": "Organization/2904afcb-e565-490a-8c8b-c7208972d647"
          }
        ],
        "activity": {
          "text": "Synthetic Example Data Generation"
        },
        "policy": [
          "https://synderai.net/synderai-synthetic-data-policy"
        ],
        "agent": [
          {
            "type": {
              "text": "author"
            },
            "who": {
              "reference": "Device/f3360d3b-93b5-40a7-a156-390e4c59b69e"
            }
          }
        ],
        "reason": [
          {
            "text": "Interoperability Testing and Training (non-clinical use)"
          }
        ],
        "text": {
          "status": "generated",
          "div": "<div xmlns=\"http://www.w3.org/1999/xhtml\">Provenance for SYNDERAI Synthetic Example Data Resource</div>"
        },
        "recorded": "2017-05-24T21:28:22Z"
      }
    },
    {
      "fullUrl": "urn:uuid:57d7cb64-6b58-4b22-85a3-0b47ed1a2ab9",
      "resource": {
        "resourceType": "PractitionerRole",
        "id": "57d7cb64-6b58-4b22-85a3-0b47ed1a2ab9",
        "meta": {
          "profile": [
            "http://hl7.eu/fhir/base/StructureDefinition/practitionerRole-eu"
          ]
        },
        "text": {
          "status": "generated",
          "div": "<div xmlns=\"http://www.w3.org/1999/xhtml\">Laboratory Role Id: 57d7cb64-6b58-4b22-85a3-0b47ed1a2ab9</div>"
        },
        "practitioner": {
          "reference": "urn:uuid:f6180f63-f590-4cba-87ee-e6ea63ab9488"
        }
      }
    },
    {
      "fullUrl": "urn:uuid:f6180f63-f590-4cba-87ee-e6ea63ab9488",
      "resource": {
        "resourceType": "Practitioner",
        "id": "f6180f63-f590-4cba-87ee-e6ea63ab9488",
        "meta": {
          "profile": [
            "http://hl7.eu/fhir/base/StructureDefinition/practitioner-eu"
          ]
        },
        "identifier": [
          {
            "assigner": {
              "display": "HL7 Europe"
            },
            "system": "urn:oid:2.16.840.1.113883.2.51.999",
            "value": "c069f0ad-f906-456e-b5a3-d346c3a04bcc"
          }
        ],
        "name": [
          {
            "prefix": [
              "dr"
            ],
            "given": [
              "Ex"
            ],
            "family": "Ample"
          }
        ],
        "address": [
          {
            "line": [
              "Laboratoire Central Européenne",
              "Boulevard du Jardin Botanique 32"
            ],
            "postalCode": "1000",
            "city": "Brussels",
            "country": "Belgium"
          }
        ],
        "text": {
          "status": "generated",
          "div": "<div xmlns=\"http://www.w3.org/1999/xhtml\">Laboratory: Laboratoire Central Européenne, 1000 Brussels, Belgium</div>"
        }
      }
    }
  ],
  "type": "document",
  "timestamp": "2017-05-24T21:28:22Z"
}
