{
  "resourceType": "Bundle",
  "id": "26785c71-67ce-4688-b893-91676d772332",
  "meta": {
    "profile": [
      "http://hl7.eu/fhir/laboratory/StructureDefinition/Bundle-eu-lab"
    ]
  },
  "identifier": {
    "assigner": {
      "display": "HL7 Europe"
    },
    "system": "urn:oid:2.16.840.1.113883.2.51.999",
    "value": "3f991313-f367-47ba-8154-42a44df8e5d7"
  },
  "entry": [
    {
      "fullUrl": "urn:uuid:feb762b4-bb2b-4944-b286-7df07c4366ec",
      "resource": {
        "resourceType": "Composition",
        "id": "feb762b4-bb2b-4944-b286-7df07c4366ec",
        "meta": {
          "profile": [
            "http://hl7.eu/fhir/laboratory/StructureDefinition/Composition-eu-lab"
          ]
        },
        "identifier": {
          "assigner": {
            "display": "HL7 Europe"
          },
          "system": "urn:oid:2.16.840.1.113883.2.51.999",
          "value": "75f43e12-8821-4667-844d-fa71ea72e3ff"
        },
        "author": [
          {
            "reference": "urn:uuid:47ab1334-e156-4719-8d9d-4f6abf6e4385"
          }
        ],
        "category": [
          {
            "coding": [
              {
                "code": "26436-6",
                "system": "http://loinc.org",
                "display": "Laboratory studies (set)"
              }
            ]
          }
        ],
        "type": {
          "coding": [
            {
              "code": "11502-2",
              "system": "http://loinc.org",
              "display": "Laboratory report"
            }
          ],
          "text": "Laboratory Report"
        },
        "section": [
          {
            "code": {
              "coding": [
                {
                  "code": "26436-6",
                  "system": "http://loinc.org",
                  "display": "Laboratory studies (set)"
                }
              ],
              "text": "Laboratory studies"
            },
            "section": [
              {
                "code": {
                  "coding": [
                    {
                      "code": "$18719-5",
                      "system": "http://loinc.org",
                      "display": "Chemistry studies (set)"
                    }
                  ],
                  "text": "Chemistry"
                },
                "entry": [
                  {
                    "reference": "urn:uuid:aa5f16af-0ecd-4d0c-a1ea-34558b1156e7"
                  },
                  {
                    "reference": "urn:uuid:0fa0670b-00df-4212-b760-8e97610900cd"
                  },
                  {
                    "reference": "urn:uuid:d8c22870-cf9c-4ab4-8652-f5f444b1a8d4"
                  },
                  {
                    "reference": "urn:uuid:7db3645d-80f5-479f-bfa5-ccc6ac8dc549"
                  },
                  {
                    "reference": "urn:uuid:ccbb8d0b-eae7-4e40-98e3-25a4af89c001"
                  },
                  {
                    "reference": "urn:uuid:2d53bacf-dda1-44cd-9116-171d2e393956"
                  },
                  {
                    "reference": "urn:uuid:d71e116c-b276-4c6e-a7b2-7f69a2b83982"
                  },
                  {
                    "reference": "urn:uuid:bb35dd15-58bc-4bb6-8d12-5e6fc7c452eb"
                  },
                  {
                    "reference": "urn:uuid:900851ab-c33c-4e15-964a-c712ee68e52a"
                  },
                  {
                    "reference": "urn:uuid:876a262c-a828-4bc5-a89b-d1b126e1b908"
                  }
                ],
                "text": {
                  "status": "generated",
                  "div": "<div xmlns=\"http://www.w3.org/1999/xhtml\"><h3>Chemistry</h3><table class=\"hl7__eu__lab__report\"><thead><tr><th>Test</th><th>07-JAN-2022</th><th>Reference&#xA0;Range</th><th>Unit</th></tr></thead><tbody><tr><td>Glucose [Mass/volume] in Serum or Plasma</td><td><strong>64.2 L</strong></td><td>70 - 140</td><td>mg/dL</td></tr><tr><td>Urea nitrogen [Mass/volume] in Serum or Plasma</td><td>12.2</td><td>7 - 20</td><td>mg/dL</td></tr><tr><td>Creatinine [Mass/volume] in Serum or Plasma</td><td><strong>2.0 H</strong></td><td>0.9 - 1.3</td><td>mg/dL</td></tr><tr><td>Calcium [Mass/volume] in Serum or Plasma</td><td>8.8</td><td>8.5 - 10.5</td><td>mg/dL</td></tr><tr><td>Sodium [Moles/volume] in Serum or Plasma</td><td>138.9</td><td>135 - 145</td><td>mmol/L</td></tr><tr><td>Potassium [Moles/volume] in Serum or Plasma</td><td>4.1</td><td>3.5 - 5.3</td><td>mmol/L</td></tr><tr><td>Chloride [Moles/volume] in Serum or Plasma</td><td><strong>110.3 H</strong></td><td>98 - 107</td><td>mmol/L</td></tr><tr><td>Carbon dioxide, total [Moles/volume] in Serum or Plasma</td><td>28.2</td><td>22 - 33</td><td>mmol/L</td></tr><tr><td>Ketones [Presence] in Urine by Test strip</td><td>Urine ketone test = ++</td><td></td><td></td></tr><tr><td>Hemoglobin A1c/Hemoglobin.total in Blood</td><td><strong>3.2 L</strong></td><td>4.3 - 6</td><td>%</td></tr></tbody></table></div>"
                },
                "title": "Chemistry"
              },
              {
                "code": {
                  "coding": [
                    {
                      "code": "$18729-4",
                      "system": "http://loinc.org",
                      "display": "Urinalysis studies (set)"
                    }
                  ],
                  "text": "Urinalysis"
                },
                "entry": [
                  {
                    "reference": "urn:uuid:ea1fd67d-3284-488c-a43e-fe4ae52c440d"
                  },
                  {
                    "reference": "urn:uuid:640d98d8-af64-4af5-bb56-d7f740a5f1f5"
                  },
                  {
                    "reference": "urn:uuid:623d3efc-61b7-4a9e-be9e-042e17d2be09"
                  },
                  {
                    "reference": "urn:uuid:350680ad-7e3b-46f9-9074-61bfea3f793a"
                  },
                  {
                    "reference": "urn:uuid:e88884fc-9150-4330-a7a2-19d73dac75c5"
                  },
                  {
                    "reference": "urn:uuid:2ec7e78e-68de-4061-a1d7-441f7a1b3875"
                  },
                  {
                    "reference": "urn:uuid:b91f2361-99d5-41c4-872b-48465d54cd01"
                  },
                  {
                    "reference": "urn:uuid:45814de3-0088-4d0b-8f48-d581a0738e93"
                  },
                  {
                    "reference": "urn:uuid:abbac12f-6b2a-4990-9739-e6932db6345c"
                  },
                  {
                    "reference": "urn:uuid:58cbbb8b-d664-4252-bf34-da0ab7d5a9f8"
                  },
                  {
                    "reference": "urn:uuid:8907f5f5-07b7-4b33-ad8c-c4b08c3e12a5"
                  },
                  {
                    "reference": "urn:uuid:f3ba58af-c990-4824-8566-5ae8839b757f"
                  }
                ],
                "text": {
                  "status": "generated",
                  "div": "<div xmlns=\"http://www.w3.org/1999/xhtml\"><h3>Urinalysis</h3><table class=\"hl7__eu__lab__report\"><thead><tr><th>Test</th><th>07-JAN-2022</th><th>Reference&#xA0;Range</th><th>Unit</th></tr></thead><tbody><tr><td>Glucose [Mass/volume] in Urine by Test strip</td><td><strong>2.0 H</strong></td><td>0 - 0.8</td><td>mg/dL</td></tr><tr><td>Glucose [Presence] in Urine by Test strip</td><td>++</td><td></td><td></td></tr><tr><td>Bilirubin.total [Mass/volume] in Urine by Test strip</td><td>0.6</td><td>0 - 1.9</td><td>mg/dL</td></tr><tr><td>Bilirubin.total [Presence] in Urine by Test strip</td><td>Finding of bilirubin in urine</td><td></td><td></td></tr><tr><td>Ketones [Mass/volume] in Urine by Test strip</td><td><strong>7.7 H</strong></td><td>0 - 3</td><td>mg/dL</td></tr><tr><td>Specific gravity of Urine by Test strip</td><td><strong>1.0 L</strong></td><td>1.01 - 1.03</td><td>{nominal}</td></tr><tr><td>pH of Urine by Test strip</td><td>5.8</td><td>4.5 - 7.5</td><td>pH</td></tr><tr><td>Protein [Mass/volume] in Urine by Test strip</td><td><strong>239.2 H</strong></td><td>0 - 149</td><td>mg/dL</td></tr><tr><td>Protein [Presence] in Urine by Test strip</td><td>Urine protein test = ++</td><td></td><td></td></tr><tr><td>Nitrite [Presence] in Urine by Test strip</td><td>Urine nitrite negative</td><td></td><td></td></tr><tr><td>Hemoglobin [Presence] in Urine by Test strip</td><td>Urine blood test = negative</td><td></td><td></td></tr><tr><td>Leukocyte esterase [Presence] in Urine by Test strip</td><td>Urine leukocyte test negative</td><td></td><td></td></tr></tbody></table></div>"
                },
                "title": "Urinalysis"
              },
              {
                "code": {
                  "coding": [
                    {
                      "code": "$LP7846-1",
                      "system": "http://loinc.org",
                      "display": "Specimen information"
                    }
                  ],
                  "text": "Specimen information"
                },
                "entry": [
                  {
                    "reference": "urn:uuid:ae638bde-b408-41e1-9896-2f977711187d"
                  },
                  {
                    "reference": "urn:uuid:f4861d34-495b-4fc7-a8a2-50e795e829e6"
                  },
                  {
                    "reference": "urn:uuid:d79b6444-0c03-4975-b3af-87d050772651"
                  },
                  {
                    "reference": "urn:uuid:20400d11-edf7-4d92-b06f-c1074817efad"
                  }
                ],
                "text": {
                  "status": "generated",
                  "div": "<div xmlns=\"http://www.w3.org/1999/xhtml\"><h3>Specimen information</h3><table class=\"hl7__eu__lab__report\"><thead><tr><th>Test</th><th>07-JAN-2022</th><th>Specimen</th><th></th></tr></thead><tbody><tr><td>Appearance of Urine</td><td>Cloudy urine</td><td>Urine</td><td></td></tr><tr><td>Odor of Urine</td><td>Urine smell ammoniacal</td><td>Urine</td><td></td></tr><tr><td>Clarity of Urine</td><td>Translucent</td><td>Urine</td><td></td></tr><tr><td>Color of Urine</td><td>Brown color</td><td>Urine</td><td></td></tr></tbody></table></div>"
                },
                "title": "Specimen information"
              }
            ],
            "title": "Laboratory Report"
          },
          {
            "text": {
              "status": "generated",
              "div": "<div xmlns=\"http://www.w3.org/1999/xhtml\"><h3>Annotation</h3><table class=\"hl7__eu__lab__report\"><tr><th>Conclusion and Recommendations based on this report and previous findings known to us</th></tr><tr><td>The patient shows hypoglycemia with low HbA1c, elevated creatinine, and proteinuria, suggesting possible chronic kidney disease with impaired glucose metabolism. Urine findings (glucosuria, ketonuria, proteinuria, low specific gravity, brown color, ammoniacal odor) may indicate renal tubular dysfunction or possible dehydration. No evidence of urinary tract infection. Recommend further evaluation of renal function, glycemic status, and assessment for underlying causes of hypoglycemia.</td></tr></table></div>"
            },
            "code": {
              "coding": [
                {
                  "system": "http://loinc.org",
                  "code": "48767-8",
                  "display": "Annotation comment"
                }
              ]
            },
            "title": "Annotation comment"
          }
        ],
        "status": "final",
        "subject": {
          "reference": "urn:uuid:fb612b47-7db8-46f2-a487-3a79caae7e0b",
          "display": "Victor Lagarde"
        },
        "date": "2022-01-07T05:48:18Z",
        "title": "Laboratory Report",
        "confidentiality": "N"
      }
    },
    {
      "fullUrl": "urn:uuid:68d58e58-88d6-48ca-860b-d58218edfcb1",
      "resource": {
        "resourceType": "DiagnosticReport",
        "id": "68d58e58-88d6-48ca-860b-d58218edfcb1",
        "meta": {
          "profile": [
            "http://hl7.eu/fhir/laboratory/StructureDefinition/DiagnosticReport-eu-lab"
          ]
        },
        "identifier": [
          {
            "assigner": {
              "display": "HL7 Europe"
            },
            "system": "urn:oid:2.16.840.1.113883.2.51.999",
            "value": "cfb9a39f-40b1-4f61-9149-48005df0a8b0"
          }
        ],
        "extension": [
          {
            "url": "http://hl7.org/fhir/5.0/StructureDefinition/extension-DiagnosticReport.composition",
            "valueReference": {
              "reference": "urn:uuid:75f43e12-8821-4667-844d-fa71ea72e3ff"
            }
          }
        ],
        "category": [
          {
            "coding": [
              {
                "code": "26436-6",
                "system": "http://loinc.org",
                "display": "Laboratory studies (set)"
              }
            ]
          }
        ],
        "specimen": [
          {
            "reference": "urn:uuid:68b652e0-9a95-4ba6-9a74-c6dd3092f1c4"
          },
          {
            "reference": "urn:uuid:a2593b5c-f7a0-4288-a246-dcb8437f1036"
          },
          {
            "reference": "urn:uuid:0c7a4d29-5b0a-4a77-b33c-be6d0b12a922"
          }
        ],
        "result": [
          {
            "reference": "urn:uuid:aa5f16af-0ecd-4d0c-a1ea-34558b1156e7"
          },
          {
            "reference": "urn:uuid:0fa0670b-00df-4212-b760-8e97610900cd"
          },
          {
            "reference": "urn:uuid:d8c22870-cf9c-4ab4-8652-f5f444b1a8d4"
          },
          {
            "reference": "urn:uuid:7db3645d-80f5-479f-bfa5-ccc6ac8dc549"
          },
          {
            "reference": "urn:uuid:ccbb8d0b-eae7-4e40-98e3-25a4af89c001"
          },
          {
            "reference": "urn:uuid:2d53bacf-dda1-44cd-9116-171d2e393956"
          },
          {
            "reference": "urn:uuid:d71e116c-b276-4c6e-a7b2-7f69a2b83982"
          },
          {
            "reference": "urn:uuid:bb35dd15-58bc-4bb6-8d12-5e6fc7c452eb"
          },
          {
            "reference": "urn:uuid:ae638bde-b408-41e1-9896-2f977711187d"
          },
          {
            "reference": "urn:uuid:f4861d34-495b-4fc7-a8a2-50e795e829e6"
          },
          {
            "reference": "urn:uuid:d79b6444-0c03-4975-b3af-87d050772651"
          },
          {
            "reference": "urn:uuid:20400d11-edf7-4d92-b06f-c1074817efad"
          },
          {
            "reference": "urn:uuid:ea1fd67d-3284-488c-a43e-fe4ae52c440d"
          },
          {
            "reference": "urn:uuid:640d98d8-af64-4af5-bb56-d7f740a5f1f5"
          },
          {
            "reference": "urn:uuid:623d3efc-61b7-4a9e-be9e-042e17d2be09"
          },
          {
            "reference": "urn:uuid:350680ad-7e3b-46f9-9074-61bfea3f793a"
          },
          {
            "reference": "urn:uuid:e88884fc-9150-4330-a7a2-19d73dac75c5"
          },
          {
            "reference": "urn:uuid:900851ab-c33c-4e15-964a-c712ee68e52a"
          },
          {
            "reference": "urn:uuid:2ec7e78e-68de-4061-a1d7-441f7a1b3875"
          },
          {
            "reference": "urn:uuid:b91f2361-99d5-41c4-872b-48465d54cd01"
          },
          {
            "reference": "urn:uuid:45814de3-0088-4d0b-8f48-d581a0738e93"
          },
          {
            "reference": "urn:uuid:abbac12f-6b2a-4990-9739-e6932db6345c"
          },
          {
            "reference": "urn:uuid:58cbbb8b-d664-4252-bf34-da0ab7d5a9f8"
          },
          {
            "reference": "urn:uuid:8907f5f5-07b7-4b33-ad8c-c4b08c3e12a5"
          },
          {
            "reference": "urn:uuid:f3ba58af-c990-4824-8566-5ae8839b757f"
          },
          {
            "reference": "urn:uuid:876a262c-a828-4bc5-a89b-d1b126e1b908"
          }
        ],
        "status": "registered",
        "code": {
          "coding": [
            {
              "code": "11502-2",
              "system": "http://loinc.org",
              "display": "Laboratory report"
            }
          ]
        },
        "subject": {
          "reference": "urn:uuid:fb612b47-7db8-46f2-a487-3a79caae7e0b",
          "display": "Victor Lagarde"
        }
      }
    },
    {
      "fullUrl": "urn:uuid:fb612b47-7db8-46f2-a487-3a79caae7e0b",
      "resource": {
        "resourceType": "Patient",
        "id": "fb612b47-7db8-46f2-a487-3a79caae7e0b",
        "meta": {
          "security": [
            {
              "system": "http://terminology.hl7.org/CodeSystem/v3-ActReason",
              "code": "HTEST"
            },
            {
              "system": "http://terminology.hl7.org/CodeSystem/v3-ActReason",
              "code": "TRAIN"
            }
          ],
          "tag": [
            {
              "system": "https://synderai.net/fhir/CodeSystem/tags",
              "code": "synthetic",
              "display": "SYNDERAI Synthetic data"
            }
          ],
          "profile": [
            "http://hl7.eu/fhir/base/StructureDefinition/patient-eu-core"
          ]
        },
        "identifier": [
          {
            "type": {
              "coding": [
                {
                  "code": "PT",
                  "system": "http://terminology.hl7.org/CodeSystem/v2-0203"
                }
              ]
            },
            "system": "http://ec.europa.eu/identifier/eci",
            "value": "9925-001801-9"
          },
          {
            "type": {
              "coding": [
                {
                  "code": "MR",
                  "system": "http://terminology.hl7.org/CodeSystem/v2-0203"
                }
              ]
            },
            "system": "http://local.setting.eu/identifier",
            "value": "22c2dfd0-ac57-8833-2532-848f180896a4"
          }
        ],
        "name": [
          {
            "family": "Lagarde"
          },
          {
            "given": [
              "Victor"
            ]
          },
          {
            "text": "Victor Lagarde"
          }
        ],
        "address": [
          {
            "line": [
              "avenue Robert"
            ],
            "use": "home",
            "type": "physical",
            "postalCode": "80300",
            "city": "Albert",
            "country": "France"
          }
        ],
        "telecom": [
          {
            "system": "phone",
            "value": "0177941801"
          }
        ],
        "extension": [
          {
            "url": "http://hl7.org/fhir/StructureDefinition/patient-nationality",
            "valueCodeableConcept": {
              "coding": [
                {
                  "code": "FR",
                  "system": "http://hl7.org/fhir/ValueSet/country"
                }
              ]
            }
          }
        ],
        "text": {
          "status": "generated",
          "div": "<div xmlns=\"http://www.w3.org/1999/xhtml\"><table class=\"hl7__ips\"><tr><td>Victor Lagarde</td><td>male</td><td>31-Aug-1939</td></tr></table></div>"
        },
        "gender": "male",
        "birthDate": "1939-08-31"
      }
    },
    {
      "fullUrl": "urn:uuid:ea96f4bb-2546-4063-8761-6d96ce5fb0aa",
      "resource": {
        "resourceType": "ServiceRequest",
        "id": "ea96f4bb-2546-4063-8761-6d96ce5fb0aa",
        "meta": {
          "profile": [
            "http://hl7.eu/fhir/laboratory/StructureDefinition/ServiceRequest-eu-lab"
          ]
        },
        "identifier": [
          {
            "system": "http://example.org",
            "value": "83c98d04-542b-4dc8-8dc9-c693c7597579"
          }
        ],
        "specimen": [
          {
            "reference": "urn:uuid:68b652e0-9a95-4ba6-9a74-c6dd3092f1c4"
          },
          {
            "reference": "urn:uuid:a2593b5c-f7a0-4288-a246-dcb8437f1036"
          },
          {
            "reference": "urn:uuid:0c7a4d29-5b0a-4a77-b33c-be6d0b12a922"
          }
        ],
        "reasonCode": [
          {
            "coding": [
              {
                "code": "433144002",
                "system": "http://snomed.info/sct",
                "display": "Chronic kidney disease stage 3"
              }
            ]
          },
          {
            "coding": [
              {
                "code": "157141000119108",
                "system": "http://snomed.info/sct",
                "display": "Proteinuria due to type 2 diabetes mellitus"
              }
            ]
          },
          {
            "coding": [
              {
                "code": "431856006",
                "system": "http://snomed.info/sct",
                "display": "Chronic kidney disease stage 2"
              }
            ]
          },
          {
            "coding": [
              {
                "code": "90781000119102",
                "system": "http://snomed.info/sct",
                "display": "Microalbuminuria due to type 2 diabetes mellitus"
              }
            ]
          },
          {
            "coding": [
              {
                "code": "127013003",
                "system": "http://snomed.info/sct",
                "display": "Disorder of kidney due to diabetes mellitus"
              }
            ]
          },
          {
            "coding": [
              {
                "code": "431855005",
                "system": "http://snomed.info/sct",
                "display": "Chronic kidney disease stage 1"
              }
            ]
          },
          {
            "coding": [
              {
                "code": "55822004",
                "system": "http://snomed.info/sct",
                "display": "Hyperlipidemia"
              }
            ]
          },
          {
            "coding": [
              {
                "code": "59621000",
                "system": "http://snomed.info/sct",
                "display": "Essential hypertension"
              }
            ]
          },
          {
            "coding": [
              {
                "code": "237602007",
                "system": "http://snomed.info/sct",
                "display": "Metabolic syndrome X"
              }
            ]
          },
          {
            "coding": [
              {
                "code": "414545008",
                "system": "http://snomed.info/sct",
                "display": "Ischemic heart disease"
              }
            ]
          },
          {
            "coding": [
              {
                "code": "40055000",
                "system": "http://snomed.info/sct",
                "display": "Chronic sinusitis"
              }
            ]
          },
          {
            "coding": [
              {
                "code": "15777000",
                "system": "http://snomed.info/sct",
                "display": "Prediabetes"
              }
            ]
          },
          {
            "coding": [
              {
                "code": "271737000",
                "system": "http://snomed.info/sct",
                "display": "Anemia"
              }
            ]
          }
        ],
        "status": "active",
        "intent": "order",
        "code": {
          "coding": [
            {
              "code": "108252007",
              "system": "http://snomed.info/sct",
              "display": "Laboratory procedure"
            }
          ]
        },
        "subject": {
          "reference": "urn:uuid:fb612b47-7db8-46f2-a487-3a79caae7e0b",
          "display": "Victor Lagarde"
        },
        "requester": {
          "reference": "urn:uuid:2d1d914d-c562-42e9-bc08-1952513b43ea"
        }
      }
    },
    {
      "fullUrl": "urn:uuid:2d1d914d-c562-42e9-bc08-1952513b43ea",
      "resource": {
        "resourceType": "PractitionerRole",
        "id": "2d1d914d-c562-42e9-bc08-1952513b43ea",
        "meta": {
          "profile": [
            "http://hl7.eu/fhir/base/StructureDefinition/practitionerRole-eu"
          ]
        },
        "text": {
          "status": "generated",
          "div": "<div xmlns=\"http://www.w3.org/1999/xhtml\">Provider Role Id: 2d1d914d-c562-42e9-bc08-1952513b43ea</div>"
        },
        "organization": {
          "reference": "urn:uuid:0553e36a-a55d-4239-ade0-c31fa6201ecd"
        }
      }
    },
    {
      "fullUrl": "urn:uuid:0553e36a-a55d-4239-ade0-c31fa6201ecd",
      "resource": {
        "resourceType": "Organization",
        "id": "0553e36a-a55d-4239-ade0-c31fa6201ecd",
        "meta": {
          "profile": [
            "http://hl7.eu/fhir/base/StructureDefinition/organization-eu"
          ]
        },
        "identifier": [
          {
            "assigner": {
              "display": "HL7 Europe"
            },
            "system": "urn:oid:2.16.840.1.113883.2.51.999",
            "value": "3dc50a18-ccf5-4765-b543-8de6d82108a3"
          }
        ],
        "address": [
          {
            "city": "Auxerre",
            "postalCode": "89000",
            "country": "France"
          }
        ],
        "text": {
          "status": "generated",
          "div": "<div xmlns=\"http://www.w3.org/1999/xhtml\">Provider Organization: Thiriot Didier (Cardiologie)</div>"
        },
        "name": "Thiriot Didier (Cardiologie)"
      }
    },
    {
      "fullUrl": "urn:uuid:68b652e0-9a95-4ba6-9a74-c6dd3092f1c4",
      "resource": {
        "resourceType": "Specimen",
        "id": "68b652e0-9a95-4ba6-9a74-c6dd3092f1c4",
        "meta": {
          "profile": [
            "http://hl7.eu/fhir/laboratory/StructureDefinition/Specimen-eu-lab"
          ]
        },
        "collection": {
          "collectedDateTime": "2022-01-07"
        },
        "text": {
          "status": "generated",
          "div": "<div xmlns=\"http://www.w3.org/1999/xhtml\"><table class=\"hl7__eu__lab__report\"><tr><th>Specimen</th><th>Collection Date</th></tr><tr><td>Acellular blood (serum or plasma) specimen</td><td><span class=\"nb\">07-Jan-2022</span></td></tr></table></div>"
        },
        "type": {
          "coding": [
            {
              "code": "122592007",
              "system": "http://snomed.info/sct",
              "display": "Acellular blood (serum or plasma) specimen"
            }
          ]
        }
      }
    },
    {
      "fullUrl": "urn:uuid:a2593b5c-f7a0-4288-a246-dcb8437f1036",
      "resource": {
        "resourceType": "Specimen",
        "id": "a2593b5c-f7a0-4288-a246-dcb8437f1036",
        "meta": {
          "profile": [
            "http://hl7.eu/fhir/laboratory/StructureDefinition/Specimen-eu-lab"
          ]
        },
        "collection": {
          "collectedDateTime": "2022-01-07"
        },
        "text": {
          "status": "generated",
          "div": "<div xmlns=\"http://www.w3.org/1999/xhtml\"><table class=\"hl7__eu__lab__report\"><tr><th>Specimen</th><th>Collection Date</th></tr><tr><td>Urine specimen</td><td><span class=\"nb\">07-Jan-2022</span></td></tr></table></div>"
        },
        "type": {
          "coding": [
            {
              "code": "122575003",
              "system": "http://snomed.info/sct",
              "display": "Urine specimen"
            }
          ]
        }
      }
    },
    {
      "fullUrl": "urn:uuid:0c7a4d29-5b0a-4a77-b33c-be6d0b12a922",
      "resource": {
        "resourceType": "Specimen",
        "id": "0c7a4d29-5b0a-4a77-b33c-be6d0b12a922",
        "meta": {
          "profile": [
            "http://hl7.eu/fhir/laboratory/StructureDefinition/Specimen-eu-lab"
          ]
        },
        "collection": {
          "collectedDateTime": "2022-01-07"
        },
        "text": {
          "status": "generated",
          "div": "<div xmlns=\"http://www.w3.org/1999/xhtml\"><table class=\"hl7__eu__lab__report\"><tr><th>Specimen</th><th>Collection Date</th></tr><tr><td>Whole blood specimen (specimen)</td><td><span class=\"nb\">07-Jan-2022</span></td></tr></table></div>"
        },
        "type": {
          "coding": [
            {
              "code": "258580003",
              "system": "http://snomed.info/sct",
              "display": "Whole blood specimen (specimen)"
            }
          ]
        }
      }
    },
    {
      "fullUrl": "urn:uuid:aa5f16af-0ecd-4d0c-a1ea-34558b1156e7",
      "resource": {
        "resourceType": "Observation",
        "id": "aa5f16af-0ecd-4d0c-a1ea-34558b1156e7",
        "meta": {
          "profile": [
            "http://hl7.eu/fhir/laboratory/StructureDefinition/Observation-resultslab-eu-lab"
          ]
        },
        "performer": [
          {
            "display": "The Central European Lab"
          }
        ],
        "category": [
          {
            "coding": [
              {
                "system": "http://terminology.hl7.org/CodeSystem/observation-category",
                "code": "laboratory"
              }
            ]
          }
        ],
        "code": {
          "coding": [
            {
              "code": "2345-7",
              "system": "http://loinc.org",
              "display": "Glucose [Mass/volume] in Serum or Plasma"
            }
          ],
          "text": "Glucose [Mass/volume] in Serum or Plasma"
        },
        "valueQuantity": {
          "system": "http://unitsofmeasure.org",
          "value": 64.2,
          "unit": "mg/dL",
          "code": "mg/dL"
        },
        "referenceRange": [
          {
            "low": {
              "value": 70,
              "code": "mg/dL",
              "system": "http://unitsofmeasure.org"
            }
          },
          {
            "high": {
              "value": 140,
              "code": "mg/dL",
              "system": "http://unitsofmeasure.org"
            }
          }
        ],
        "interpretation": [
          {
            "coding": [
              {
                "code": "L",
                "system": "http://terminology.hl7.org/CodeSystem/v3-ObservationInterpretation",
                "display": "Low"
              }
            ]
          }
        ],
        "text": {
          "status": "generated",
          "div": "<div xmlns=\"http://www.w3.org/1999/xhtml\"><table class=\"hl7__eu__lab__report\"><tr><th>Test</th><th>07-Jan-2022</th><th>Reference&#xA0;Range</th><th>Unit</th></tr><tr><td>Glucose [Mass/volume] in Serum or Plasma</td><td>64.2</td><td>70 - 140</td><td>L</td><td>mg/dL</td></tr></table></div>"
        },
        "status": "final",
        "subject": {
          "reference": "urn:uuid:fb612b47-7db8-46f2-a487-3a79caae7e0b",
          "display": "Victor Lagarde"
        },
        "effectiveDateTime": "2022-01-07T04:48:18Z",
        "specimen": {
          "reference": "urn:uuid:68b652e0-9a95-4ba6-9a74-c6dd3092f1c4"
        }
      }
    },
    {
      "fullUrl": "urn:uuid:0fa0670b-00df-4212-b760-8e97610900cd",
      "resource": {
        "resourceType": "Observation",
        "id": "0fa0670b-00df-4212-b760-8e97610900cd",
        "meta": {
          "profile": [
            "http://hl7.eu/fhir/laboratory/StructureDefinition/Observation-resultslab-eu-lab"
          ]
        },
        "performer": [
          {
            "display": "The Central European Lab"
          }
        ],
        "category": [
          {
            "coding": [
              {
                "system": "http://terminology.hl7.org/CodeSystem/observation-category",
                "code": "laboratory"
              }
            ]
          }
        ],
        "code": {
          "coding": [
            {
              "code": "3094-0",
              "system": "http://loinc.org",
              "display": "Urea nitrogen [Mass/volume] in Serum or Plasma"
            }
          ],
          "text": "Urea nitrogen [Mass/volume] in Serum or Plasma"
        },
        "valueQuantity": {
          "system": "http://unitsofmeasure.org",
          "value": 12.2,
          "unit": "mg/dL",
          "code": "mg/dL"
        },
        "referenceRange": [
          {
            "low": {
              "value": 7,
              "code": "mg/dL",
              "system": "http://unitsofmeasure.org"
            }
          },
          {
            "high": {
              "value": 20,
              "code": "mg/dL",
              "system": "http://unitsofmeasure.org"
            }
          }
        ],
        "text": {
          "status": "generated",
          "div": "<div xmlns=\"http://www.w3.org/1999/xhtml\"><table class=\"hl7__eu__lab__report\"><tr><th>Test</th><th>07-Jan-2022</th><th>Reference&#xA0;Range</th><th>Unit</th></tr><tr><td>Urea nitrogen [Mass/volume] in Serum or Plasma</td><td>12.2</td><td>7 - 20</td><td></td><td>mg/dL</td></tr></table></div>"
        },
        "status": "final",
        "subject": {
          "reference": "urn:uuid:fb612b47-7db8-46f2-a487-3a79caae7e0b",
          "display": "Victor Lagarde"
        },
        "effectiveDateTime": "2022-01-07T04:48:18Z",
        "specimen": {
          "reference": "urn:uuid:68b652e0-9a95-4ba6-9a74-c6dd3092f1c4"
        }
      }
    },
    {
      "fullUrl": "urn:uuid:d8c22870-cf9c-4ab4-8652-f5f444b1a8d4",
      "resource": {
        "resourceType": "Observation",
        "id": "d8c22870-cf9c-4ab4-8652-f5f444b1a8d4",
        "meta": {
          "profile": [
            "http://hl7.eu/fhir/laboratory/StructureDefinition/Observation-resultslab-eu-lab"
          ]
        },
        "performer": [
          {
            "display": "The Central European Lab"
          }
        ],
        "category": [
          {
            "coding": [
              {
                "system": "http://terminology.hl7.org/CodeSystem/observation-category",
                "code": "laboratory"
              }
            ]
          }
        ],
        "code": {
          "coding": [
            {
              "code": "2160-0",
              "system": "http://loinc.org",
              "display": "Creatinine [Mass/volume] in Serum or Plasma"
            }
          ],
          "text": "Creatinine [Mass/volume] in Serum or Plasma"
        },
        "valueQuantity": {
          "system": "http://unitsofmeasure.org",
          "value": 2,
          "unit": "mg/dL",
          "code": "mg/dL"
        },
        "referenceRange": [
          {
            "low": {
              "value": 0.9,
              "code": "mg/dL",
              "system": "http://unitsofmeasure.org"
            }
          },
          {
            "high": {
              "value": 1.3,
              "code": "mg/dL",
              "system": "http://unitsofmeasure.org"
            }
          }
        ],
        "interpretation": [
          {
            "coding": [
              {
                "code": "H",
                "system": "http://terminology.hl7.org/CodeSystem/v3-ObservationInterpretation",
                "display": "High"
              }
            ]
          }
        ],
        "text": {
          "status": "generated",
          "div": "<div xmlns=\"http://www.w3.org/1999/xhtml\"><table class=\"hl7__eu__lab__report\"><tr><th>Test</th><th>07-Jan-2022</th><th>Reference&#xA0;Range</th><th>Unit</th></tr><tr><td>Creatinine [Mass/volume] in Serum or Plasma</td><td>2.0</td><td>0.9 - 1.3</td><td>H</td><td>mg/dL</td></tr></table></div>"
        },
        "status": "final",
        "subject": {
          "reference": "urn:uuid:fb612b47-7db8-46f2-a487-3a79caae7e0b",
          "display": "Victor Lagarde"
        },
        "effectiveDateTime": "2022-01-07T04:48:18Z",
        "specimen": {
          "reference": "urn:uuid:68b652e0-9a95-4ba6-9a74-c6dd3092f1c4"
        }
      }
    },
    {
      "fullUrl": "urn:uuid:7db3645d-80f5-479f-bfa5-ccc6ac8dc549",
      "resource": {
        "resourceType": "Observation",
        "id": "7db3645d-80f5-479f-bfa5-ccc6ac8dc549",
        "meta": {
          "profile": [
            "http://hl7.eu/fhir/laboratory/StructureDefinition/Observation-resultslab-eu-lab"
          ]
        },
        "performer": [
          {
            "display": "The Central European Lab"
          }
        ],
        "category": [
          {
            "coding": [
              {
                "system": "http://terminology.hl7.org/CodeSystem/observation-category",
                "code": "laboratory"
              }
            ]
          }
        ],
        "code": {
          "coding": [
            {
              "code": "17861-6",
              "system": "http://loinc.org",
              "display": "Calcium [Mass/volume] in Serum or Plasma"
            }
          ],
          "text": "Calcium [Mass/volume] in Serum or Plasma"
        },
        "valueQuantity": {
          "system": "http://unitsofmeasure.org",
          "value": 8.8,
          "unit": "mg/dL",
          "code": "mg/dL"
        },
        "referenceRange": [
          {
            "low": {
              "value": 8.5,
              "code": "mg/dL",
              "system": "http://unitsofmeasure.org"
            }
          },
          {
            "high": {
              "value": 10.5,
              "code": "mg/dL",
              "system": "http://unitsofmeasure.org"
            }
          }
        ],
        "text": {
          "status": "generated",
          "div": "<div xmlns=\"http://www.w3.org/1999/xhtml\"><table class=\"hl7__eu__lab__report\"><tr><th>Test</th><th>07-Jan-2022</th><th>Reference&#xA0;Range</th><th>Unit</th></tr><tr><td>Calcium [Mass/volume] in Serum or Plasma</td><td>8.8</td><td>8.5 - 10.5</td><td></td><td>mg/dL</td></tr></table></div>"
        },
        "status": "final",
        "subject": {
          "reference": "urn:uuid:fb612b47-7db8-46f2-a487-3a79caae7e0b",
          "display": "Victor Lagarde"
        },
        "effectiveDateTime": "2022-01-07T04:48:18Z",
        "specimen": {
          "reference": "urn:uuid:68b652e0-9a95-4ba6-9a74-c6dd3092f1c4"
        }
      }
    },
    {
      "fullUrl": "urn:uuid:ccbb8d0b-eae7-4e40-98e3-25a4af89c001",
      "resource": {
        "resourceType": "Observation",
        "id": "ccbb8d0b-eae7-4e40-98e3-25a4af89c001",
        "meta": {
          "profile": [
            "http://hl7.eu/fhir/laboratory/StructureDefinition/Observation-resultslab-eu-lab"
          ]
        },
        "performer": [
          {
            "display": "The Central European Lab"
          }
        ],
        "category": [
          {
            "coding": [
              {
                "system": "http://terminology.hl7.org/CodeSystem/observation-category",
                "code": "laboratory"
              }
            ]
          }
        ],
        "code": {
          "coding": [
            {
              "code": "2951-2",
              "system": "http://loinc.org",
              "display": "Sodium [Moles/volume] in Serum or Plasma"
            }
          ],
          "text": "Sodium [Moles/volume] in Serum or Plasma"
        },
        "valueQuantity": {
          "system": "http://unitsofmeasure.org",
          "value": 138.9,
          "unit": "mmol/L",
          "code": "mmol/L"
        },
        "referenceRange": [
          {
            "low": {
              "value": 135,
              "code": "mmol/L",
              "system": "http://unitsofmeasure.org"
            }
          },
          {
            "high": {
              "value": 145,
              "code": "mmol/L",
              "system": "http://unitsofmeasure.org"
            }
          }
        ],
        "text": {
          "status": "generated",
          "div": "<div xmlns=\"http://www.w3.org/1999/xhtml\"><table class=\"hl7__eu__lab__report\"><tr><th>Test</th><th>07-Jan-2022</th><th>Reference&#xA0;Range</th><th>Unit</th></tr><tr><td>Sodium [Moles/volume] in Serum or Plasma</td><td>138.9</td><td>135 - 145</td><td></td><td>mmol/L</td></tr></table></div>"
        },
        "status": "final",
        "subject": {
          "reference": "urn:uuid:fb612b47-7db8-46f2-a487-3a79caae7e0b",
          "display": "Victor Lagarde"
        },
        "effectiveDateTime": "2022-01-07T04:48:18Z",
        "specimen": {
          "reference": "urn:uuid:68b652e0-9a95-4ba6-9a74-c6dd3092f1c4"
        }
      }
    },
    {
      "fullUrl": "urn:uuid:2d53bacf-dda1-44cd-9116-171d2e393956",
      "resource": {
        "resourceType": "Observation",
        "id": "2d53bacf-dda1-44cd-9116-171d2e393956",
        "meta": {
          "profile": [
            "http://hl7.eu/fhir/laboratory/StructureDefinition/Observation-resultslab-eu-lab"
          ]
        },
        "performer": [
          {
            "display": "The Central European Lab"
          }
        ],
        "category": [
          {
            "coding": [
              {
                "system": "http://terminology.hl7.org/CodeSystem/observation-category",
                "code": "laboratory"
              }
            ]
          }
        ],
        "code": {
          "coding": [
            {
              "code": "2823-3",
              "system": "http://loinc.org",
              "display": "Potassium [Moles/volume] in Serum or Plasma"
            }
          ],
          "text": "Potassium [Moles/volume] in Serum or Plasma"
        },
        "valueQuantity": {
          "system": "http://unitsofmeasure.org",
          "value": 4.1,
          "unit": "mmol/L",
          "code": "mmol/L"
        },
        "referenceRange": [
          {
            "low": {
              "value": 3.5,
              "code": "mmol/L",
              "system": "http://unitsofmeasure.org"
            }
          },
          {
            "high": {
              "value": 5.3,
              "code": "mmol/L",
              "system": "http://unitsofmeasure.org"
            }
          }
        ],
        "text": {
          "status": "generated",
          "div": "<div xmlns=\"http://www.w3.org/1999/xhtml\"><table class=\"hl7__eu__lab__report\"><tr><th>Test</th><th>07-Jan-2022</th><th>Reference&#xA0;Range</th><th>Unit</th></tr><tr><td>Potassium [Moles/volume] in Serum or Plasma</td><td>4.1</td><td>3.5 - 5.3</td><td></td><td>mmol/L</td></tr></table></div>"
        },
        "status": "final",
        "subject": {
          "reference": "urn:uuid:fb612b47-7db8-46f2-a487-3a79caae7e0b",
          "display": "Victor Lagarde"
        },
        "effectiveDateTime": "2022-01-07T04:48:18Z",
        "specimen": {
          "reference": "urn:uuid:68b652e0-9a95-4ba6-9a74-c6dd3092f1c4"
        }
      }
    },
    {
      "fullUrl": "urn:uuid:d71e116c-b276-4c6e-a7b2-7f69a2b83982",
      "resource": {
        "resourceType": "Observation",
        "id": "d71e116c-b276-4c6e-a7b2-7f69a2b83982",
        "meta": {
          "profile": [
            "http://hl7.eu/fhir/laboratory/StructureDefinition/Observation-resultslab-eu-lab"
          ]
        },
        "performer": [
          {
            "display": "The Central European Lab"
          }
        ],
        "category": [
          {
            "coding": [
              {
                "system": "http://terminology.hl7.org/CodeSystem/observation-category",
                "code": "laboratory"
              }
            ]
          }
        ],
        "code": {
          "coding": [
            {
              "code": "2075-0",
              "system": "http://loinc.org",
              "display": "Chloride [Moles/volume] in Serum or Plasma"
            }
          ],
          "text": "Chloride [Moles/volume] in Serum or Plasma"
        },
        "valueQuantity": {
          "system": "http://unitsofmeasure.org",
          "value": 110.3,
          "unit": "mmol/L",
          "code": "mmol/L"
        },
        "referenceRange": [
          {
            "low": {
              "value": 98,
              "code": "mmol/L",
              "system": "http://unitsofmeasure.org"
            }
          },
          {
            "high": {
              "value": 107,
              "code": "mmol/L",
              "system": "http://unitsofmeasure.org"
            }
          }
        ],
        "interpretation": [
          {
            "coding": [
              {
                "code": "H",
                "system": "http://terminology.hl7.org/CodeSystem/v3-ObservationInterpretation",
                "display": "High"
              }
            ]
          }
        ],
        "text": {
          "status": "generated",
          "div": "<div xmlns=\"http://www.w3.org/1999/xhtml\"><table class=\"hl7__eu__lab__report\"><tr><th>Test</th><th>07-Jan-2022</th><th>Reference&#xA0;Range</th><th>Unit</th></tr><tr><td>Chloride [Moles/volume] in Serum or Plasma</td><td>110.3</td><td>98 - 107</td><td>H</td><td>mmol/L</td></tr></table></div>"
        },
        "status": "final",
        "subject": {
          "reference": "urn:uuid:fb612b47-7db8-46f2-a487-3a79caae7e0b",
          "display": "Victor Lagarde"
        },
        "effectiveDateTime": "2022-01-07T04:48:18Z",
        "specimen": {
          "reference": "urn:uuid:68b652e0-9a95-4ba6-9a74-c6dd3092f1c4"
        }
      }
    },
    {
      "fullUrl": "urn:uuid:bb35dd15-58bc-4bb6-8d12-5e6fc7c452eb",
      "resource": {
        "resourceType": "Observation",
        "id": "bb35dd15-58bc-4bb6-8d12-5e6fc7c452eb",
        "meta": {
          "profile": [
            "http://hl7.eu/fhir/laboratory/StructureDefinition/Observation-resultslab-eu-lab"
          ]
        },
        "performer": [
          {
            "display": "The Central European Lab"
          }
        ],
        "category": [
          {
            "coding": [
              {
                "system": "http://terminology.hl7.org/CodeSystem/observation-category",
                "code": "laboratory"
              }
            ]
          }
        ],
        "code": {
          "coding": [
            {
              "code": "2028-9",
              "system": "http://loinc.org",
              "display": "Carbon dioxide, total [Moles/volume] in Serum or Plasma"
            }
          ],
          "text": "Carbon dioxide, total [Moles/volume] in Serum or Plasma"
        },
        "valueQuantity": {
          "system": "http://unitsofmeasure.org",
          "value": 28.2,
          "unit": "mmol/L",
          "code": "mmol/L"
        },
        "referenceRange": [
          {
            "low": {
              "value": 22,
              "code": "mmol/L",
              "system": "http://unitsofmeasure.org"
            }
          },
          {
            "high": {
              "value": 33,
              "code": "mmol/L",
              "system": "http://unitsofmeasure.org"
            }
          }
        ],
        "text": {
          "status": "generated",
          "div": "<div xmlns=\"http://www.w3.org/1999/xhtml\"><table class=\"hl7__eu__lab__report\"><tr><th>Test</th><th>07-Jan-2022</th><th>Reference&#xA0;Range</th><th>Unit</th></tr><tr><td>Carbon dioxide, total [Moles/volume] in Serum or Plasma</td><td>28.2</td><td>22 - 33</td><td></td><td>mmol/L</td></tr></table></div>"
        },
        "status": "final",
        "subject": {
          "reference": "urn:uuid:fb612b47-7db8-46f2-a487-3a79caae7e0b",
          "display": "Victor Lagarde"
        },
        "effectiveDateTime": "2022-01-07T04:48:18Z",
        "specimen": {
          "reference": "urn:uuid:68b652e0-9a95-4ba6-9a74-c6dd3092f1c4"
        }
      }
    },
    {
      "fullUrl": "urn:uuid:ae638bde-b408-41e1-9896-2f977711187d",
      "resource": {
        "resourceType": "Observation",
        "id": "ae638bde-b408-41e1-9896-2f977711187d",
        "meta": {
          "profile": [
            "http://hl7.eu/fhir/laboratory/StructureDefinition/Observation-resultslab-eu-lab"
          ]
        },
        "performer": [
          {
            "display": "The Central European Lab"
          }
        ],
        "category": [
          {
            "coding": [
              {
                "system": "http://terminology.hl7.org/CodeSystem/observation-category",
                "code": "laboratory"
              }
            ]
          }
        ],
        "code": {
          "coding": [
            {
              "code": "5767-9",
              "system": "http://loinc.org",
              "display": "Appearance of Urine"
            }
          ],
          "text": "Appearance of Urine"
        },
        "text": {
          "status": "generated",
          "div": "<div xmlns=\"http://www.w3.org/1999/xhtml\"><table class=\"hl7__eu__lab__report\"><tr><th>Test</th><th>07-Jan-2022</th><th>Reference&#xA0;Range</th><th>Unit</th></tr><tr><td>Appearance of Urine</td></tr></table></div>"
        },
        "status": "final",
        "subject": {
          "reference": "urn:uuid:fb612b47-7db8-46f2-a487-3a79caae7e0b",
          "display": "Victor Lagarde"
        },
        "effectiveDateTime": "2022-01-07T04:48:18Z",
        "specimen": {
          "reference": "urn:uuid:a2593b5c-f7a0-4288-a246-dcb8437f1036"
        }
      }
    },
    {
      "fullUrl": "urn:uuid:f4861d34-495b-4fc7-a8a2-50e795e829e6",
      "resource": {
        "resourceType": "Observation",
        "id": "f4861d34-495b-4fc7-a8a2-50e795e829e6",
        "meta": {
          "profile": [
            "http://hl7.eu/fhir/laboratory/StructureDefinition/Observation-resultslab-eu-lab"
          ]
        },
        "performer": [
          {
            "display": "The Central European Lab"
          }
        ],
        "category": [
          {
            "coding": [
              {
                "system": "http://terminology.hl7.org/CodeSystem/observation-category",
                "code": "laboratory"
              }
            ]
          }
        ],
        "code": {
          "coding": [
            {
              "code": "34533-0",
              "system": "http://loinc.org",
              "display": "Odor of Urine"
            }
          ],
          "text": "Odor of Urine"
        },
        "text": {
          "status": "generated",
          "div": "<div xmlns=\"http://www.w3.org/1999/xhtml\"><table class=\"hl7__eu__lab__report\"><tr><th>Test</th><th>07-Jan-2022</th><th>Reference&#xA0;Range</th><th>Unit</th></tr><tr><td>Odor of Urine</td></tr></table></div>"
        },
        "status": "final",
        "subject": {
          "reference": "urn:uuid:fb612b47-7db8-46f2-a487-3a79caae7e0b",
          "display": "Victor Lagarde"
        },
        "effectiveDateTime": "2022-01-07T04:48:18Z",
        "specimen": {
          "reference": "urn:uuid:a2593b5c-f7a0-4288-a246-dcb8437f1036"
        }
      }
    },
    {
      "fullUrl": "urn:uuid:d79b6444-0c03-4975-b3af-87d050772651",
      "resource": {
        "resourceType": "Observation",
        "id": "d79b6444-0c03-4975-b3af-87d050772651",
        "meta": {
          "profile": [
            "http://hl7.eu/fhir/laboratory/StructureDefinition/Observation-resultslab-eu-lab"
          ]
        },
        "performer": [
          {
            "display": "The Central European Lab"
          }
        ],
        "category": [
          {
            "coding": [
              {
                "system": "http://terminology.hl7.org/CodeSystem/observation-category",
                "code": "laboratory"
              }
            ]
          }
        ],
        "code": {
          "coding": [
            {
              "code": "32167-9",
              "system": "http://loinc.org",
              "display": "Clarity of Urine"
            }
          ],
          "text": "Clarity of Urine"
        },
        "text": {
          "status": "generated",
          "div": "<div xmlns=\"http://www.w3.org/1999/xhtml\"><table class=\"hl7__eu__lab__report\"><tr><th>Test</th><th>07-Jan-2022</th><th>Reference&#xA0;Range</th><th>Unit</th></tr><tr><td>Clarity of Urine</td></tr></table></div>"
        },
        "status": "final",
        "subject": {
          "reference": "urn:uuid:fb612b47-7db8-46f2-a487-3a79caae7e0b",
          "display": "Victor Lagarde"
        },
        "effectiveDateTime": "2022-01-07T04:48:18Z",
        "specimen": {
          "reference": "urn:uuid:a2593b5c-f7a0-4288-a246-dcb8437f1036"
        }
      }
    },
    {
      "fullUrl": "urn:uuid:20400d11-edf7-4d92-b06f-c1074817efad",
      "resource": {
        "resourceType": "Observation",
        "id": "20400d11-edf7-4d92-b06f-c1074817efad",
        "meta": {
          "profile": [
            "http://hl7.eu/fhir/laboratory/StructureDefinition/Observation-resultslab-eu-lab"
          ]
        },
        "performer": [
          {
            "display": "The Central European Lab"
          }
        ],
        "category": [
          {
            "coding": [
              {
                "system": "http://terminology.hl7.org/CodeSystem/observation-category",
                "code": "laboratory"
              }
            ]
          }
        ],
        "code": {
          "coding": [
            {
              "code": "5778-6",
              "system": "http://loinc.org",
              "display": "Color of Urine"
            }
          ],
          "text": "Color of Urine"
        },
        "text": {
          "status": "generated",
          "div": "<div xmlns=\"http://www.w3.org/1999/xhtml\"><table class=\"hl7__eu__lab__report\"><tr><th>Test</th><th>07-Jan-2022</th><th>Reference&#xA0;Range</th><th>Unit</th></tr><tr><td>Color of Urine</td></tr></table></div>"
        },
        "status": "final",
        "subject": {
          "reference": "urn:uuid:fb612b47-7db8-46f2-a487-3a79caae7e0b",
          "display": "Victor Lagarde"
        },
        "effectiveDateTime": "2022-01-07T04:48:18Z",
        "specimen": {
          "reference": "urn:uuid:a2593b5c-f7a0-4288-a246-dcb8437f1036"
        }
      }
    },
    {
      "fullUrl": "urn:uuid:ea1fd67d-3284-488c-a43e-fe4ae52c440d",
      "resource": {
        "resourceType": "Observation",
        "id": "ea1fd67d-3284-488c-a43e-fe4ae52c440d",
        "meta": {
          "profile": [
            "http://hl7.eu/fhir/laboratory/StructureDefinition/Observation-resultslab-eu-lab"
          ]
        },
        "performer": [
          {
            "display": "The Central European Lab"
          }
        ],
        "category": [
          {
            "coding": [
              {
                "system": "http://terminology.hl7.org/CodeSystem/observation-category",
                "code": "laboratory"
              }
            ]
          }
        ],
        "code": {
          "coding": [
            {
              "code": "5792-7",
              "system": "http://loinc.org",
              "display": "Glucose [Mass/volume] in Urine by Test strip"
            }
          ],
          "text": "Glucose [Mass/volume] in Urine by Test strip"
        },
        "valueQuantity": {
          "system": "http://unitsofmeasure.org",
          "value": 2,
          "unit": "mg/dL",
          "code": "mg/dL"
        },
        "referenceRange": [
          {
            "low": {
              "value": 0,
              "code": "mg/dL",
              "system": "http://unitsofmeasure.org"
            }
          },
          {
            "high": {
              "value": 0.8,
              "code": "mg/dL",
              "system": "http://unitsofmeasure.org"
            }
          }
        ],
        "interpretation": [
          {
            "coding": [
              {
                "code": "H",
                "system": "http://terminology.hl7.org/CodeSystem/v3-ObservationInterpretation",
                "display": "High"
              }
            ]
          }
        ],
        "text": {
          "status": "generated",
          "div": "<div xmlns=\"http://www.w3.org/1999/xhtml\"><table class=\"hl7__eu__lab__report\"><tr><th>Test</th><th>07-Jan-2022</th><th>Reference&#xA0;Range</th><th>Unit</th></tr><tr><td>Glucose [Mass/volume] in Urine by Test strip</td><td>2.0</td><td>0 - 0.8</td><td>H</td><td>mg/dL</td></tr></table></div>"
        },
        "status": "final",
        "subject": {
          "reference": "urn:uuid:fb612b47-7db8-46f2-a487-3a79caae7e0b",
          "display": "Victor Lagarde"
        },
        "effectiveDateTime": "2022-01-07T04:48:18Z",
        "specimen": {
          "reference": "urn:uuid:a2593b5c-f7a0-4288-a246-dcb8437f1036"
        }
      }
    },
    {
      "fullUrl": "urn:uuid:640d98d8-af64-4af5-bb56-d7f740a5f1f5",
      "resource": {
        "resourceType": "Observation",
        "id": "640d98d8-af64-4af5-bb56-d7f740a5f1f5",
        "meta": {
          "profile": [
            "http://hl7.eu/fhir/laboratory/StructureDefinition/Observation-resultslab-eu-lab"
          ]
        },
        "performer": [
          {
            "display": "The Central European Lab"
          }
        ],
        "category": [
          {
            "coding": [
              {
                "system": "http://terminology.hl7.org/CodeSystem/observation-category",
                "code": "laboratory"
              }
            ]
          }
        ],
        "code": {
          "coding": [
            {
              "code": "25428-4",
              "system": "http://loinc.org",
              "display": "Glucose [Presence] in Urine by Test strip"
            }
          ],
          "text": "Glucose [Presence] in Urine by Test strip"
        },
        "text": {
          "status": "generated",
          "div": "<div xmlns=\"http://www.w3.org/1999/xhtml\"><table class=\"hl7__eu__lab__report\"><tr><th>Test</th><th>07-Jan-2022</th><th>Reference&#xA0;Range</th><th>Unit</th></tr><tr><td>Glucose [Presence] in Urine by Test strip</td></tr></table></div>"
        },
        "status": "final",
        "subject": {
          "reference": "urn:uuid:fb612b47-7db8-46f2-a487-3a79caae7e0b",
          "display": "Victor Lagarde"
        },
        "effectiveDateTime": "2022-01-07T04:48:18Z",
        "specimen": {
          "reference": "urn:uuid:a2593b5c-f7a0-4288-a246-dcb8437f1036"
        }
      }
    },
    {
      "fullUrl": "urn:uuid:623d3efc-61b7-4a9e-be9e-042e17d2be09",
      "resource": {
        "resourceType": "Observation",
        "id": "623d3efc-61b7-4a9e-be9e-042e17d2be09",
        "meta": {
          "profile": [
            "http://hl7.eu/fhir/laboratory/StructureDefinition/Observation-resultslab-eu-lab"
          ]
        },
        "performer": [
          {
            "display": "The Central European Lab"
          }
        ],
        "category": [
          {
            "coding": [
              {
                "system": "http://terminology.hl7.org/CodeSystem/observation-category",
                "code": "laboratory"
              }
            ]
          }
        ],
        "code": {
          "coding": [
            {
              "code": "20505-4",
              "system": "http://loinc.org",
              "display": "Bilirubin.total [Mass/volume] in Urine by Test strip"
            }
          ],
          "text": "Bilirubin.total [Mass/volume] in Urine by Test strip"
        },
        "valueQuantity": {
          "system": "http://unitsofmeasure.org",
          "value": 0.6,
          "unit": "mg/dL",
          "code": "mg/dL"
        },
        "referenceRange": [
          {
            "low": {
              "value": 0,
              "code": "mg/dL",
              "system": "http://unitsofmeasure.org"
            }
          },
          {
            "high": {
              "value": 1.9,
              "code": "mg/dL",
              "system": "http://unitsofmeasure.org"
            }
          }
        ],
        "text": {
          "status": "generated",
          "div": "<div xmlns=\"http://www.w3.org/1999/xhtml\"><table class=\"hl7__eu__lab__report\"><tr><th>Test</th><th>07-Jan-2022</th><th>Reference&#xA0;Range</th><th>Unit</th></tr><tr><td>Bilirubin.total [Mass/volume] in Urine by Test strip</td><td>0.6</td><td>0 - 1.9</td><td></td><td>mg/dL</td></tr></table></div>"
        },
        "status": "final",
        "subject": {
          "reference": "urn:uuid:fb612b47-7db8-46f2-a487-3a79caae7e0b",
          "display": "Victor Lagarde"
        },
        "effectiveDateTime": "2022-01-07T04:48:18Z",
        "specimen": {
          "reference": "urn:uuid:a2593b5c-f7a0-4288-a246-dcb8437f1036"
        }
      }
    },
    {
      "fullUrl": "urn:uuid:350680ad-7e3b-46f9-9074-61bfea3f793a",
      "resource": {
        "resourceType": "Observation",
        "id": "350680ad-7e3b-46f9-9074-61bfea3f793a",
        "meta": {
          "profile": [
            "http://hl7.eu/fhir/laboratory/StructureDefinition/Observation-resultslab-eu-lab"
          ]
        },
        "performer": [
          {
            "display": "The Central European Lab"
          }
        ],
        "category": [
          {
            "coding": [
              {
                "system": "http://terminology.hl7.org/CodeSystem/observation-category",
                "code": "laboratory"
              }
            ]
          }
        ],
        "code": {
          "coding": [
            {
              "code": "5770-3",
              "system": "http://loinc.org",
              "display": "Bilirubin.total [Presence] in Urine by Test strip"
            }
          ],
          "text": "Bilirubin.total [Presence] in Urine by Test strip"
        },
        "text": {
          "status": "generated",
          "div": "<div xmlns=\"http://www.w3.org/1999/xhtml\"><table class=\"hl7__eu__lab__report\"><tr><th>Test</th><th>07-Jan-2022</th><th>Reference&#xA0;Range</th><th>Unit</th></tr><tr><td>Bilirubin.total [Presence] in Urine by Test strip</td></tr></table></div>"
        },
        "status": "final",
        "subject": {
          "reference": "urn:uuid:fb612b47-7db8-46f2-a487-3a79caae7e0b",
          "display": "Victor Lagarde"
        },
        "effectiveDateTime": "2022-01-07T04:48:18Z",
        "specimen": {
          "reference": "urn:uuid:a2593b5c-f7a0-4288-a246-dcb8437f1036"
        }
      }
    },
    {
      "fullUrl": "urn:uuid:e88884fc-9150-4330-a7a2-19d73dac75c5",
      "resource": {
        "resourceType": "Observation",
        "id": "e88884fc-9150-4330-a7a2-19d73dac75c5",
        "meta": {
          "profile": [
            "http://hl7.eu/fhir/laboratory/StructureDefinition/Observation-resultslab-eu-lab"
          ]
        },
        "performer": [
          {
            "display": "The Central European Lab"
          }
        ],
        "category": [
          {
            "coding": [
              {
                "system": "http://terminology.hl7.org/CodeSystem/observation-category",
                "code": "laboratory"
              }
            ]
          }
        ],
        "code": {
          "coding": [
            {
              "code": "5797-6",
              "system": "http://loinc.org",
              "display": "Ketones [Mass/volume] in Urine by Test strip"
            }
          ],
          "text": "Ketones [Mass/volume] in Urine by Test strip"
        },
        "valueQuantity": {
          "system": "http://unitsofmeasure.org",
          "value": 7.7,
          "unit": "mg/dL",
          "code": "mg/dL"
        },
        "referenceRange": [
          {
            "low": {
              "value": 0,
              "code": "mg/dL",
              "system": "http://unitsofmeasure.org"
            }
          },
          {
            "high": {
              "value": 3,
              "code": "mg/dL",
              "system": "http://unitsofmeasure.org"
            }
          }
        ],
        "interpretation": [
          {
            "coding": [
              {
                "code": "H",
                "system": "http://terminology.hl7.org/CodeSystem/v3-ObservationInterpretation",
                "display": "High"
              }
            ]
          }
        ],
        "text": {
          "status": "generated",
          "div": "<div xmlns=\"http://www.w3.org/1999/xhtml\"><table class=\"hl7__eu__lab__report\"><tr><th>Test</th><th>07-Jan-2022</th><th>Reference&#xA0;Range</th><th>Unit</th></tr><tr><td>Ketones [Mass/volume] in Urine by Test strip</td><td>7.7</td><td>0 - 3</td><td>H</td><td>mg/dL</td></tr></table></div>"
        },
        "status": "final",
        "subject": {
          "reference": "urn:uuid:fb612b47-7db8-46f2-a487-3a79caae7e0b",
          "display": "Victor Lagarde"
        },
        "effectiveDateTime": "2022-01-07T04:48:18Z",
        "specimen": {
          "reference": "urn:uuid:a2593b5c-f7a0-4288-a246-dcb8437f1036"
        }
      }
    },
    {
      "fullUrl": "urn:uuid:900851ab-c33c-4e15-964a-c712ee68e52a",
      "resource": {
        "resourceType": "Observation",
        "id": "900851ab-c33c-4e15-964a-c712ee68e52a",
        "meta": {
          "profile": [
            "http://hl7.eu/fhir/laboratory/StructureDefinition/Observation-resultslab-eu-lab"
          ]
        },
        "performer": [
          {
            "display": "The Central European Lab"
          }
        ],
        "category": [
          {
            "coding": [
              {
                "system": "http://terminology.hl7.org/CodeSystem/observation-category",
                "code": "laboratory"
              }
            ]
          }
        ],
        "code": {
          "coding": [
            {
              "code": "2514-8",
              "system": "http://loinc.org",
              "display": "Ketones [Presence] in Urine by Test strip"
            }
          ],
          "text": "Ketones [Presence] in Urine by Test strip"
        },
        "text": {
          "status": "generated",
          "div": "<div xmlns=\"http://www.w3.org/1999/xhtml\"><table class=\"hl7__eu__lab__report\"><tr><th>Test</th><th>07-Jan-2022</th><th>Reference&#xA0;Range</th><th>Unit</th></tr><tr><td>Ketones [Presence] in Urine by Test strip</td></tr></table></div>"
        },
        "status": "final",
        "subject": {
          "reference": "urn:uuid:fb612b47-7db8-46f2-a487-3a79caae7e0b",
          "display": "Victor Lagarde"
        },
        "effectiveDateTime": "2022-01-07T04:48:18Z",
        "specimen": {
          "reference": "urn:uuid:a2593b5c-f7a0-4288-a246-dcb8437f1036"
        }
      }
    },
    {
      "fullUrl": "urn:uuid:2ec7e78e-68de-4061-a1d7-441f7a1b3875",
      "resource": {
        "resourceType": "Observation",
        "id": "2ec7e78e-68de-4061-a1d7-441f7a1b3875",
        "meta": {
          "profile": [
            "http://hl7.eu/fhir/laboratory/StructureDefinition/Observation-resultslab-eu-lab"
          ]
        },
        "performer": [
          {
            "display": "The Central European Lab"
          }
        ],
        "category": [
          {
            "coding": [
              {
                "system": "http://terminology.hl7.org/CodeSystem/observation-category",
                "code": "laboratory"
              }
            ]
          }
        ],
        "code": {
          "coding": [
            {
              "code": "5811-5",
              "system": "http://loinc.org",
              "display": "Specific gravity of Urine by Test strip"
            }
          ],
          "text": "Specific gravity of Urine by Test strip"
        },
        "valueQuantity": {
          "system": "http://unitsofmeasure.org",
          "value": 1,
          "unit": "{nominal}",
          "code": "{nominal}"
        },
        "referenceRange": [
          {
            "low": {
              "value": 1.01,
              "code": "g/mL",
              "system": "http://unitsofmeasure.org"
            }
          },
          {
            "high": {
              "value": 1.03,
              "code": "g/mL",
              "system": "http://unitsofmeasure.org"
            }
          }
        ],
        "interpretation": [
          {
            "coding": [
              {
                "code": "L",
                "system": "http://terminology.hl7.org/CodeSystem/v3-ObservationInterpretation",
                "display": "Low"
              }
            ]
          }
        ],
        "text": {
          "status": "generated",
          "div": "<div xmlns=\"http://www.w3.org/1999/xhtml\"><table class=\"hl7__eu__lab__report\"><tr><th>Test</th><th>07-Jan-2022</th><th>Reference&#xA0;Range</th><th>Unit</th></tr><tr><td>Specific gravity of Urine by Test strip</td><td>1.0</td><td>1.01 - 1.03</td><td>L</td><td>{nominal}</td></tr></table></div>"
        },
        "status": "final",
        "subject": {
          "reference": "urn:uuid:fb612b47-7db8-46f2-a487-3a79caae7e0b",
          "display": "Victor Lagarde"
        },
        "effectiveDateTime": "2022-01-07T04:48:18Z",
        "specimen": {
          "reference": "urn:uuid:a2593b5c-f7a0-4288-a246-dcb8437f1036"
        }
      }
    },
    {
      "fullUrl": "urn:uuid:b91f2361-99d5-41c4-872b-48465d54cd01",
      "resource": {
        "resourceType": "Observation",
        "id": "b91f2361-99d5-41c4-872b-48465d54cd01",
        "meta": {
          "profile": [
            "http://hl7.eu/fhir/laboratory/StructureDefinition/Observation-resultslab-eu-lab"
          ]
        },
        "performer": [
          {
            "display": "The Central European Lab"
          }
        ],
        "category": [
          {
            "coding": [
              {
                "system": "http://terminology.hl7.org/CodeSystem/observation-category",
                "code": "laboratory"
              }
            ]
          }
        ],
        "code": {
          "coding": [
            {
              "code": "5803-2",
              "system": "http://loinc.org",
              "display": "pH of Urine by Test strip"
            }
          ],
          "text": "pH of Urine by Test strip"
        },
        "valueQuantity": {
          "system": "http://unitsofmeasure.org",
          "value": 5.8,
          "unit": "pH",
          "code": "pH"
        },
        "referenceRange": [
          {
            "low": {
              "value": 4.5,
              "code": "pH",
              "system": "http://unitsofmeasure.org"
            }
          },
          {
            "high": {
              "value": 7.5,
              "code": "pH",
              "system": "http://unitsofmeasure.org"
            }
          }
        ],
        "text": {
          "status": "generated",
          "div": "<div xmlns=\"http://www.w3.org/1999/xhtml\"><table class=\"hl7__eu__lab__report\"><tr><th>Test</th><th>07-Jan-2022</th><th>Reference&#xA0;Range</th><th>Unit</th></tr><tr><td>pH of Urine by Test strip</td><td>5.8</td><td>4.5 - 7.5</td><td></td><td>pH</td></tr></table></div>"
        },
        "status": "final",
        "subject": {
          "reference": "urn:uuid:fb612b47-7db8-46f2-a487-3a79caae7e0b",
          "display": "Victor Lagarde"
        },
        "effectiveDateTime": "2022-01-07T04:48:18Z",
        "specimen": {
          "reference": "urn:uuid:a2593b5c-f7a0-4288-a246-dcb8437f1036"
        }
      }
    },
    {
      "fullUrl": "urn:uuid:45814de3-0088-4d0b-8f48-d581a0738e93",
      "resource": {
        "resourceType": "Observation",
        "id": "45814de3-0088-4d0b-8f48-d581a0738e93",
        "meta": {
          "profile": [
            "http://hl7.eu/fhir/laboratory/StructureDefinition/Observation-resultslab-eu-lab"
          ]
        },
        "performer": [
          {
            "display": "The Central European Lab"
          }
        ],
        "category": [
          {
            "coding": [
              {
                "system": "http://terminology.hl7.org/CodeSystem/observation-category",
                "code": "laboratory"
              }
            ]
          }
        ],
        "code": {
          "coding": [
            {
              "code": "5804-0",
              "system": "http://loinc.org",
              "display": "Protein [Mass/volume] in Urine by Test strip"
            }
          ],
          "text": "Protein [Mass/volume] in Urine by Test strip"
        },
        "valueQuantity": {
          "system": "http://unitsofmeasure.org",
          "value": 239.2,
          "unit": "mg/dL",
          "code": "mg/dL"
        },
        "referenceRange": [
          {
            "low": {
              "value": 0,
              "code": "mg/dL",
              "system": "http://unitsofmeasure.org"
            }
          },
          {
            "high": {
              "value": 149,
              "code": "mg/dL",
              "system": "http://unitsofmeasure.org"
            }
          }
        ],
        "interpretation": [
          {
            "coding": [
              {
                "code": "H",
                "system": "http://terminology.hl7.org/CodeSystem/v3-ObservationInterpretation",
                "display": "High"
              }
            ]
          }
        ],
        "text": {
          "status": "generated",
          "div": "<div xmlns=\"http://www.w3.org/1999/xhtml\"><table class=\"hl7__eu__lab__report\"><tr><th>Test</th><th>07-Jan-2022</th><th>Reference&#xA0;Range</th><th>Unit</th></tr><tr><td>Protein [Mass/volume] in Urine by Test strip</td><td>239.2</td><td>0 - 149</td><td>H</td><td>mg/dL</td></tr></table></div>"
        },
        "status": "final",
        "subject": {
          "reference": "urn:uuid:fb612b47-7db8-46f2-a487-3a79caae7e0b",
          "display": "Victor Lagarde"
        },
        "effectiveDateTime": "2022-01-07T04:48:18Z",
        "specimen": {
          "reference": "urn:uuid:a2593b5c-f7a0-4288-a246-dcb8437f1036"
        }
      }
    },
    {
      "fullUrl": "urn:uuid:abbac12f-6b2a-4990-9739-e6932db6345c",
      "resource": {
        "resourceType": "Observation",
        "id": "abbac12f-6b2a-4990-9739-e6932db6345c",
        "meta": {
          "profile": [
            "http://hl7.eu/fhir/laboratory/StructureDefinition/Observation-resultslab-eu-lab"
          ]
        },
        "performer": [
          {
            "display": "The Central European Lab"
          }
        ],
        "category": [
          {
            "coding": [
              {
                "system": "http://terminology.hl7.org/CodeSystem/observation-category",
                "code": "laboratory"
              }
            ]
          }
        ],
        "code": {
          "coding": [
            {
              "code": "20454-5",
              "system": "http://loinc.org",
              "display": "Protein [Presence] in Urine by Test strip"
            }
          ],
          "text": "Protein [Presence] in Urine by Test strip"
        },
        "text": {
          "status": "generated",
          "div": "<div xmlns=\"http://www.w3.org/1999/xhtml\"><table class=\"hl7__eu__lab__report\"><tr><th>Test</th><th>07-Jan-2022</th><th>Reference&#xA0;Range</th><th>Unit</th></tr><tr><td>Protein [Presence] in Urine by Test strip</td></tr></table></div>"
        },
        "status": "final",
        "subject": {
          "reference": "urn:uuid:fb612b47-7db8-46f2-a487-3a79caae7e0b",
          "display": "Victor Lagarde"
        },
        "effectiveDateTime": "2022-01-07T04:48:18Z",
        "specimen": {
          "reference": "urn:uuid:a2593b5c-f7a0-4288-a246-dcb8437f1036"
        }
      }
    },
    {
      "fullUrl": "urn:uuid:58cbbb8b-d664-4252-bf34-da0ab7d5a9f8",
      "resource": {
        "resourceType": "Observation",
        "id": "58cbbb8b-d664-4252-bf34-da0ab7d5a9f8",
        "meta": {
          "profile": [
            "http://hl7.eu/fhir/laboratory/StructureDefinition/Observation-resultslab-eu-lab"
          ]
        },
        "performer": [
          {
            "display": "The Central European Lab"
          }
        ],
        "category": [
          {
            "coding": [
              {
                "system": "http://terminology.hl7.org/CodeSystem/observation-category",
                "code": "laboratory"
              }
            ]
          }
        ],
        "code": {
          "coding": [
            {
              "code": "5802-4",
              "system": "http://loinc.org",
              "display": "Nitrite [Presence] in Urine by Test strip"
            }
          ],
          "text": "Nitrite [Presence] in Urine by Test strip"
        },
        "text": {
          "status": "generated",
          "div": "<div xmlns=\"http://www.w3.org/1999/xhtml\"><table class=\"hl7__eu__lab__report\"><tr><th>Test</th><th>07-Jan-2022</th><th>Reference&#xA0;Range</th><th>Unit</th></tr><tr><td>Nitrite [Presence] in Urine by Test strip</td></tr></table></div>"
        },
        "status": "final",
        "subject": {
          "reference": "urn:uuid:fb612b47-7db8-46f2-a487-3a79caae7e0b",
          "display": "Victor Lagarde"
        },
        "effectiveDateTime": "2022-01-07T04:48:18Z",
        "specimen": {
          "reference": "urn:uuid:a2593b5c-f7a0-4288-a246-dcb8437f1036"
        }
      }
    },
    {
      "fullUrl": "urn:uuid:8907f5f5-07b7-4b33-ad8c-c4b08c3e12a5",
      "resource": {
        "resourceType": "Observation",
        "id": "8907f5f5-07b7-4b33-ad8c-c4b08c3e12a5",
        "meta": {
          "profile": [
            "http://hl7.eu/fhir/laboratory/StructureDefinition/Observation-resultslab-eu-lab"
          ]
        },
        "performer": [
          {
            "display": "The Central European Lab"
          }
        ],
        "category": [
          {
            "coding": [
              {
                "system": "http://terminology.hl7.org/CodeSystem/observation-category",
                "code": "laboratory"
              }
            ]
          }
        ],
        "code": {
          "coding": [
            {
              "code": "5794-3",
              "system": "http://loinc.org",
              "display": "Hemoglobin [Presence] in Urine by Test strip"
            }
          ],
          "text": "Hemoglobin [Presence] in Urine by Test strip"
        },
        "text": {
          "status": "generated",
          "div": "<div xmlns=\"http://www.w3.org/1999/xhtml\"><table class=\"hl7__eu__lab__report\"><tr><th>Test</th><th>07-Jan-2022</th><th>Reference&#xA0;Range</th><th>Unit</th></tr><tr><td>Hemoglobin [Presence] in Urine by Test strip</td></tr></table></div>"
        },
        "status": "final",
        "subject": {
          "reference": "urn:uuid:fb612b47-7db8-46f2-a487-3a79caae7e0b",
          "display": "Victor Lagarde"
        },
        "effectiveDateTime": "2022-01-07T04:48:18Z",
        "specimen": {
          "reference": "urn:uuid:a2593b5c-f7a0-4288-a246-dcb8437f1036"
        }
      }
    },
    {
      "fullUrl": "urn:uuid:f3ba58af-c990-4824-8566-5ae8839b757f",
      "resource": {
        "resourceType": "Observation",
        "id": "f3ba58af-c990-4824-8566-5ae8839b757f",
        "meta": {
          "profile": [
            "http://hl7.eu/fhir/laboratory/StructureDefinition/Observation-resultslab-eu-lab"
          ]
        },
        "performer": [
          {
            "display": "The Central European Lab"
          }
        ],
        "category": [
          {
            "coding": [
              {
                "system": "http://terminology.hl7.org/CodeSystem/observation-category",
                "code": "laboratory"
              }
            ]
          }
        ],
        "code": {
          "coding": [
            {
              "code": "5799-2",
              "system": "http://loinc.org",
              "display": "Leukocyte esterase [Presence] in Urine by Test strip"
            }
          ],
          "text": "Leukocyte esterase [Presence] in Urine by Test strip"
        },
        "text": {
          "status": "generated",
          "div": "<div xmlns=\"http://www.w3.org/1999/xhtml\"><table class=\"hl7__eu__lab__report\"><tr><th>Test</th><th>07-Jan-2022</th><th>Reference&#xA0;Range</th><th>Unit</th></tr><tr><td>Leukocyte esterase [Presence] in Urine by Test strip</td></tr></table></div>"
        },
        "status": "final",
        "subject": {
          "reference": "urn:uuid:fb612b47-7db8-46f2-a487-3a79caae7e0b",
          "display": "Victor Lagarde"
        },
        "effectiveDateTime": "2022-01-07T04:48:18Z",
        "specimen": {
          "reference": "urn:uuid:a2593b5c-f7a0-4288-a246-dcb8437f1036"
        }
      }
    },
    {
      "fullUrl": "urn:uuid:876a262c-a828-4bc5-a89b-d1b126e1b908",
      "resource": {
        "resourceType": "Observation",
        "id": "876a262c-a828-4bc5-a89b-d1b126e1b908",
        "meta": {
          "profile": [
            "http://hl7.eu/fhir/laboratory/StructureDefinition/Observation-resultslab-eu-lab"
          ]
        },
        "performer": [
          {
            "display": "The Central European Lab"
          }
        ],
        "category": [
          {
            "coding": [
              {
                "system": "http://terminology.hl7.org/CodeSystem/observation-category",
                "code": "laboratory"
              }
            ]
          }
        ],
        "code": {
          "coding": [
            {
              "code": "4548-4",
              "system": "http://loinc.org",
              "display": "Hemoglobin A1c/Hemoglobin.total in Blood"
            }
          ],
          "text": "Hemoglobin A1c/Hemoglobin.total in Blood"
        },
        "valueQuantity": {
          "system": "http://unitsofmeasure.org",
          "value": 3.2,
          "unit": "%",
          "code": "%"
        },
        "referenceRange": [
          {
            "low": {
              "value": 4.3,
              "code": "%",
              "system": "http://unitsofmeasure.org"
            }
          },
          {
            "high": {
              "value": 6,
              "code": "%",
              "system": "http://unitsofmeasure.org"
            }
          }
        ],
        "interpretation": [
          {
            "coding": [
              {
                "code": "L",
                "system": "http://terminology.hl7.org/CodeSystem/v3-ObservationInterpretation",
                "display": "Low"
              }
            ]
          }
        ],
        "text": {
          "status": "generated",
          "div": "<div xmlns=\"http://www.w3.org/1999/xhtml\"><table class=\"hl7__eu__lab__report\"><tr><th>Test</th><th>07-Jan-2022</th><th>Reference&#xA0;Range</th><th>Unit</th></tr><tr><td>Hemoglobin A1c/Hemoglobin.total in Blood</td><td>3.2</td><td>4.3 - 6</td><td>L</td><td>%</td></tr></table></div>"
        },
        "status": "final",
        "subject": {
          "reference": "urn:uuid:fb612b47-7db8-46f2-a487-3a79caae7e0b",
          "display": "Victor Lagarde"
        },
        "effectiveDateTime": "2022-01-07T04:48:18Z",
        "specimen": {
          "reference": "urn:uuid:0c7a4d29-5b0a-4a77-b33c-be6d0b12a922"
        }
      }
    },
    {
      "fullUrl": "urn:uuid:4e2d2e9c-18a8-4403-b5e2-69b2ea854a0b",
      "resource": {
        "resourceType": "Device",
        "id": "4e2d2e9c-18a8-4403-b5e2-69b2ea854a0b",
        "deviceName": [
          {
            "name": "SYNDERAI Synthetic Generator",
            "type": "manufacturer-name"
          }
        ],
        "version": [
          {
            "value": "5.0"
          }
        ],
        "text": {
          "status": "generated",
          "div": "<div xmlns=\"http://www.w3.org/1999/xhtml\">SYNDERAI Synthetic Generator v5.0</div>"
        },
        "status": "active\"",
        "distinctIdentifier": "synderai-generator-50",
        "manufacturer": "SYNDERAI Project"
      }
    },
    {
      "fullUrl": "urn:uuid:287d28cb-e73a-451b-874f-05169493bacb",
      "resource": {
        "resourceType": "Provenance",
        "id": "287d28cb-e73a-451b-874f-05169493bacb",
        "target": [
          {
            "reference": "Patient/fb612b47-7db8-46f2-a487-3a79caae7e0b"
          },
          {
            "reference": "Bundle/26785c71-67ce-4688-b893-91676d772332"
          },
          {
            "reference": "Composition/feb762b4-bb2b-4944-b286-7df07c4366ec"
          },
          {
            "reference": "PractitionerRole/47ab1334-e156-4719-8d9d-4f6abf6e4385"
          },
          {
            "reference": "Practitioner/855bc2ea-7f58-4aaa-8625-72bedff6a5e5"
          },
          {
            "reference": "PractitionerRole/2d1d914d-c562-42e9-bc08-1952513b43ea"
          },
          {
            "reference": "Organization/0553e36a-a55d-4239-ade0-c31fa6201ecd"
          }
        ],
        "activity": {
          "text": "Synthetic Example Data Generation"
        },
        "policy": [
          "https://synderai.net/synderai-synthetic-data-policy"
        ],
        "agent": [
          {
            "type": {
              "text": "author"
            },
            "who": {
              "reference": "Device/4e2d2e9c-18a8-4403-b5e2-69b2ea854a0b"
            }
          }
        ],
        "reason": [
          {
            "text": "Interoperability Testing and Training (non-clinical use)"
          }
        ],
        "text": {
          "status": "generated",
          "div": "<div xmlns=\"http://www.w3.org/1999/xhtml\">Provenance for SYNDERAI Synthetic Example Data Resource</div>"
        },
        "recorded": "2022-01-07T05:48:18Z"
      }
    },
    {
      "fullUrl": "urn:uuid:47ab1334-e156-4719-8d9d-4f6abf6e4385",
      "resource": {
        "resourceType": "PractitionerRole",
        "id": "47ab1334-e156-4719-8d9d-4f6abf6e4385",
        "meta": {
          "profile": [
            "http://hl7.eu/fhir/base/StructureDefinition/practitionerRole-eu"
          ]
        },
        "text": {
          "status": "generated",
          "div": "<div xmlns=\"http://www.w3.org/1999/xhtml\">Laboratory Role Id: 47ab1334-e156-4719-8d9d-4f6abf6e4385</div>"
        },
        "practitioner": {
          "reference": "urn:uuid:855bc2ea-7f58-4aaa-8625-72bedff6a5e5"
        }
      }
    },
    {
      "fullUrl": "urn:uuid:855bc2ea-7f58-4aaa-8625-72bedff6a5e5",
      "resource": {
        "resourceType": "Practitioner",
        "id": "855bc2ea-7f58-4aaa-8625-72bedff6a5e5",
        "meta": {
          "profile": [
            "http://hl7.eu/fhir/base/StructureDefinition/practitioner-eu"
          ]
        },
        "identifier": [
          {
            "assigner": {
              "display": "HL7 Europe"
            },
            "system": "urn:oid:2.16.840.1.113883.2.51.999",
            "value": "b6aa4d7e-a822-4d94-892a-5ad4be53c482"
          }
        ],
        "name": [
          {
            "prefix": [
              "dr"
            ],
            "given": [
              "Ex"
            ],
            "family": "Ample"
          }
        ],
        "address": [
          {
            "line": [
              "Laboratoire Central Europenne",
              "Boulevard du Jardin Botanique 32"
            ],
            "postalCode": "1000",
            "city": "Brussels",
            "country": "Belgium"
          }
        ],
        "text": {
          "status": "generated",
          "div": "<div xmlns=\"http://www.w3.org/1999/xhtml\">Laboratory: Laboratoire Central Europenne, 1000 Brussels, Belgium</div>"
        }
      }
    }
  ],
  "type": "document",
  "timestamp": "2022-01-07T05:48:18Z"
}
