{
  "resourceType": "Bundle",
  "id": "1910ca25-93d9-4c90-8fd1-be3a0c786d1e",
  "meta": {
    "profile": [
      "http://hl7.eu/fhir/laboratory/StructureDefinition/Bundle-eu-lab"
    ]
  },
  "identifier": {
    "assigner": {
      "display": "HL7 Europe"
    },
    "system": "urn:oid:2.16.840.1.113883.2.51.999",
    "value": "793eea7f-065a-4db6-b05f-e4ecde3b1549"
  },
  "entry": [
    {
      "fullUrl": "urn:uuid:dae750dd-5e54-43f4-984d-8d567c61226e",
      "resource": {
        "resourceType": "Composition",
        "id": "dae750dd-5e54-43f4-984d-8d567c61226e",
        "meta": {
          "profile": [
            "http://hl7.eu/fhir/laboratory/StructureDefinition/Composition-eu-lab"
          ]
        },
        "identifier": {
          "assigner": {
            "display": "HL7 Europe"
          },
          "system": "urn:oid:2.16.840.1.113883.2.51.999",
          "value": "bcd7981a-909f-4b1d-a5ea-7d93a28fc7fa"
        },
        "author": [
          {
            "reference": "urn:uuid:71d69187-6fcb-486b-b92b-e3736ca9ed94"
          }
        ],
        "category": [
          {
            "coding": [
              {
                "code": "26436-6",
                "system": "http://loinc.org",
                "display": "Laboratory studies (set)"
              }
            ]
          }
        ],
        "type": {
          "coding": [
            {
              "code": "11502-2",
              "system": "http://loinc.org",
              "display": "Laboratory report"
            }
          ],
          "text": "Laboratory Report"
        },
        "section": [
          {
            "code": {
              "coding": [
                {
                  "code": "26436-6",
                  "system": "http://loinc.org",
                  "display": "Laboratory studies (set)"
                }
              ],
              "text": "Laboratory studies"
            },
            "section": [
              {
                "code": {
                  "coding": [
                    {
                      "code": "$18719-5",
                      "system": "http://loinc.org",
                      "display": "Chemistry studies (set)"
                    }
                  ],
                  "text": "Chemistry"
                },
                "entry": [
                  {
                    "reference": "urn:uuid:832f184b-4e98-47ce-87fc-caf31f73c5f7"
                  },
                  {
                    "reference": "urn:uuid:91c9f40d-3ef1-462a-adb7-5efec3094052"
                  },
                  {
                    "reference": "urn:uuid:2ed96127-f07f-4e4f-9456-2501e3914076"
                  },
                  {
                    "reference": "urn:uuid:bb9ccf6a-05d3-4187-ab30-5f7923767ec3"
                  },
                  {
                    "reference": "urn:uuid:196d5731-0ea5-4754-96d4-499bea06c961"
                  },
                  {
                    "reference": "urn:uuid:12afdf9d-854c-402b-aaf7-981269ddb223"
                  },
                  {
                    "reference": "urn:uuid:63440065-6f9f-4fb0-8b5e-faccb3f317c7"
                  },
                  {
                    "reference": "urn:uuid:3c255201-2761-4bbe-8c4b-f2e8d3bbdfb0"
                  },
                  {
                    "reference": "urn:uuid:c3526c8d-d309-4781-b42b-6744a9f16966"
                  },
                  {
                    "reference": "urn:uuid:31285715-eee3-4c94-9b79-7cb2fe8ca66b"
                  },
                  {
                    "reference": "urn:uuid:c4606606-be2a-4ec0-ae04-0058a3467cf5"
                  },
                  {
                    "reference": "urn:uuid:3619cbdc-326c-46bb-8430-1f50f2055c1d"
                  },
                  {
                    "reference": "urn:uuid:befe9584-cfc0-4455-b703-726510853a43"
                  },
                  {
                    "reference": "urn:uuid:a35abbae-7d30-4d10-83f2-455145d1600e"
                  },
                  {
                    "reference": "urn:uuid:21817de9-4b99-483e-9fc5-88ebc97b44f0"
                  },
                  {
                    "reference": "urn:uuid:23f09d05-6bd4-4bde-892f-856ebdd8f339"
                  },
                  {
                    "reference": "urn:uuid:404ea2b4-5953-4e4c-bb46-3526735db175"
                  },
                  {
                    "reference": "urn:uuid:dbde540c-775d-42b2-a3f8-08239db9a3a9"
                  }
                ],
                "text": {
                  "status": "generated",
                  "div": "<div xmlns=\"http://www.w3.org/1999/xhtml\"><h3>Chemistry</h3><table class=\"hl7__eu__lab__report\"><thead><tr><th>Test</th><th>08-FEB-2021</th><th>Reference&#xA0;Range</th><th>Unit</th></tr></thead><tbody><tr><td>Glucose [Mass/volume] in Serum or Plasma</td><td>78.3</td><td>70 - 99</td><td>mg/dL</td></tr><tr><td>Urea nitrogen [Mass/volume] in Serum or Plasma</td><td>15.0</td><td>7 - 50</td><td>mg/dL</td></tr><tr><td>Creatinine [Mass/volume] in Serum or Plasma</td><td><strong>2.0 H</strong></td><td>0.6 - 1.1</td><td>mg/dL</td></tr><tr><td>Calcium [Mass/volume] in Serum or Plasma</td><td>9.8</td><td>8.6 - 10.4</td><td>mg/dL</td></tr><tr><td>Sodium [Moles/volume] in Serum or Plasma</td><td>138.9</td><td>135 - 145</td><td>mmol/L</td></tr><tr><td>Potassium [Moles/volume] in Serum or Plasma</td><td>4.2</td><td>3.5 - 5.1</td><td>mmol/L</td></tr><tr><td>Chloride [Moles/volume] in Serum or Plasma</td><td>104.3</td><td>98 - 108</td><td>mmol/L</td></tr><tr><td>Carbon dioxide, total [Moles/volume] in Serum or Plasma</td><td>27.4</td><td>22 - 32</td><td>mmol/L</td></tr><tr><td>Ketones [Presence] in Urine by Test strip</td><td>Urine ketone test = ++</td><td></td><td></td></tr><tr><td>Hemoglobin A1c/Hemoglobin.total in Blood</td><td><strong>3.1 L</strong></td><td>4 - 6.4</td><td>%</td></tr><tr><td>Glucose [Mass/volume] in Blood</td><td>78.3</td><td>70 - 100</td><td>mg/dL</td></tr><tr><td>Urea nitrogen [Mass/volume] in Blood</td><td>15.0</td><td>7 - 43</td><td>mg/dL</td></tr><tr><td>Creatinine [Mass/volume] in Blood</td><td><strong>4.7 H</strong></td><td>0.6 - 1.1</td><td>mg/dL</td></tr><tr><td>Calcium [Mass/volume] in Blood</td><td>9.8</td><td>8.5 - 10.5</td><td>mg/dL</td></tr><tr><td>Sodium [Moles/volume] in Blood</td><td>138.9</td><td>135 - 145</td><td>mmol/L</td></tr><tr><td>Potassium [Moles/volume] in Blood</td><td>4.2</td><td>3.5 - 5.1</td><td>mmol/L</td></tr><tr><td>Chloride [Moles/volume] in Blood</td><td>104.3</td><td>98 - 108</td><td>mmol/L</td></tr><tr><td>Carbon dioxide, total [Moles/volume] in Blood</td><td>27.4</td><td>22 - 29</td><td>mmol/L</td></tr></tbody></table></div>"
                },
                "title": "Chemistry"
              },
              {
                "code": {
                  "coding": [
                    {
                      "code": "$18729-4",
                      "system": "http://loinc.org",
                      "display": "Urinalysis studies (set)"
                    }
                  ],
                  "text": "Urinalysis"
                },
                "entry": [
                  {
                    "reference": "urn:uuid:8fc72179-087d-43d2-8912-228c5e44063f"
                  },
                  {
                    "reference": "urn:uuid:c397aa88-a7cf-417c-b19b-e228f556182c"
                  },
                  {
                    "reference": "urn:uuid:d7182ff4-d741-4fd1-a9c6-08dda1091d83"
                  },
                  {
                    "reference": "urn:uuid:d55f8634-18a6-4640-a8c4-32829c4a7bdd"
                  },
                  {
                    "reference": "urn:uuid:a9926ace-4f9d-4373-b9f7-8acc2756aba2"
                  },
                  {
                    "reference": "urn:uuid:ae61b219-60b6-43ca-b21e-96102dd88aa7"
                  },
                  {
                    "reference": "urn:uuid:36ac0096-176b-410a-942f-82bdb0ca0e13"
                  },
                  {
                    "reference": "urn:uuid:40f7b055-4ac3-493c-8b2d-dc4d5b386d16"
                  },
                  {
                    "reference": "urn:uuid:82e8b377-bb76-4507-8e14-515c7be02008"
                  },
                  {
                    "reference": "urn:uuid:9f417a96-e47f-4bb2-8025-a61b94a8d042"
                  },
                  {
                    "reference": "urn:uuid:ffd1d4de-45f0-453c-9827-c04fb08700a5"
                  },
                  {
                    "reference": "urn:uuid:fb666f98-ede5-4422-b04c-b2157553d918"
                  }
                ],
                "text": {
                  "status": "generated",
                  "div": "<div xmlns=\"http://www.w3.org/1999/xhtml\"><h3>Urinalysis</h3><table class=\"hl7__eu__lab__report\"><thead><tr><th>Test</th><th>08-FEB-2021</th><th>Reference&#xA0;Range</th><th>Unit</th></tr></thead><tbody><tr><td>Glucose [Mass/volume] in Urine by Test strip</td><td><strong>1.4 H</strong></td><td>0.8 - 0</td><td>mg/dL</td></tr><tr><td>Glucose [Presence] in Urine by Test strip</td><td>++</td><td></td><td></td></tr><tr><td>Bilirubin.total [Mass/volume] in Urine by Test strip</td><td><strong>1.2 H</strong></td><td>0 - 1</td><td>mg/dL</td></tr><tr><td>Bilirubin.total [Presence] in Urine by Test strip</td><td>Finding of bilirubin in urine</td><td></td><td></td></tr><tr><td>Ketones [Mass/volume] in Urine by Test strip</td><td><strong>6.2 H</strong></td><td>0 - 4</td><td>mg/dL</td></tr><tr><td>Specific gravity of Urine by Test strip</td><td><strong>1.0 L</strong></td><td>1.005 - 1.03</td><td>{nominal}</td></tr><tr><td>pH of Urine by Test strip</td><td>5.5</td><td>4.6 - 7</td><td>pH</td></tr><tr><td>Protein [Mass/volume] in Urine by Test strip</td><td><strong>335.5 H</strong></td><td>0 - 14</td><td>mg/dL</td></tr><tr><td>Protein [Presence] in Urine by Test strip</td><td>Urine protein test = ++</td><td></td><td></td></tr><tr><td>Nitrite [Presence] in Urine by Test strip</td><td>Urine nitrite negative</td><td></td><td></td></tr><tr><td>Hemoglobin [Presence] in Urine by Test strip</td><td>Urine blood test = negative</td><td></td><td></td></tr><tr><td>Leukocyte esterase [Presence] in Urine by Test strip</td><td>Urine leukocyte test negative</td><td></td><td></td></tr></tbody></table></div>"
                },
                "title": "Urinalysis"
              },
              {
                "code": {
                  "coding": [
                    {
                      "code": "$LP7846-1",
                      "system": "http://loinc.org",
                      "display": "Specimen information"
                    }
                  ],
                  "text": "Specimen information"
                },
                "entry": [
                  {
                    "reference": "urn:uuid:ae298373-a9a5-48c0-b06c-8980572a5288"
                  },
                  {
                    "reference": "urn:uuid:2671e240-c9bc-4b43-b075-9fb101527658"
                  },
                  {
                    "reference": "urn:uuid:344d0099-4044-45d5-95a2-db63ac57e4dc"
                  },
                  {
                    "reference": "urn:uuid:1c342de0-e4d7-4ca4-a372-54ac87c722be"
                  }
                ],
                "text": {
                  "status": "generated",
                  "div": "<div xmlns=\"http://www.w3.org/1999/xhtml\"><h3>Specimen information</h3><table class=\"hl7__eu__lab__report\"><thead><tr><th>Test</th><th>08-FEB-2021</th><th>Specimen</th><th></th></tr></thead><tbody><tr><td>Appearance of Urine</td><td>Cloudy urine</td><td>Urine</td><td></td></tr><tr><td>Odor of Urine</td><td>Urine smell ammoniacal</td><td>Urine</td><td></td></tr><tr><td>Clarity of Urine</td><td>Translucent</td><td>Urine</td><td></td></tr><tr><td>Color of Urine</td><td>Brown color</td><td>Urine</td><td></td></tr></tbody></table></div>"
                },
                "title": "Specimen information"
              }
            ],
            "title": "Laboratory Report"
          },
          {
            "text": {
              "status": "generated",
              "div": "<div xmlns=\"http://www.w3.org/1999/xhtml\"><h3>Annotation</h3><table class=\"hl7__eu__lab__report\"><tr><th>Conclusion and Recommendations based on this report and previous findings known to us</th></tr><tr><td>The patient shows markedly elevated creatinine in both serum and blood, indicating significant renal impairment. Urinalysis reveals proteinuria, glucosuria, ketonuria, bilirubinuria, and abnormal urine appearance (cloudy, brown, ammoniacal), suggesting possible nephrotic syndrome or severe renal dysfunction. Low urine specific gravity supports impaired concentrating ability. HbA1c is low, excluding chronic hyperglycemia. Recommend urgent nephrology evaluation for acute or chronic kidney disease and further assessment for underlying causes.</td></tr></table></div>"
            },
            "code": {
              "coding": [
                {
                  "system": "http://loinc.org",
                  "code": "48767-8",
                  "display": "Annotation comment"
                }
              ]
            },
            "title": "Annotation comment"
          }
        ],
        "status": "final",
        "subject": {
          "reference": "urn:uuid:ee78f6ce-ae43-4fd2-88e0-352b9d2f38f6",
          "display": "Meaghan Neary"
        },
        "date": "2021-02-08T23:11:04Z",
        "title": "Laboratory Report",
        "confidentiality": "N"
      }
    },
    {
      "fullUrl": "urn:uuid:ad45634b-5eb8-4415-9812-9890142e381a",
      "resource": {
        "resourceType": "DiagnosticReport",
        "id": "ad45634b-5eb8-4415-9812-9890142e381a",
        "meta": {
          "profile": [
            "http://hl7.eu/fhir/laboratory/StructureDefinition/DiagnosticReport-eu-lab"
          ]
        },
        "identifier": [
          {
            "assigner": {
              "display": "HL7 Europe"
            },
            "system": "urn:oid:2.16.840.1.113883.2.51.999",
            "value": "137c56ce-755c-4442-b006-e8e4e8c88830"
          }
        ],
        "extension": [
          {
            "url": "http://hl7.org/fhir/5.0/StructureDefinition/extension-DiagnosticReport.composition",
            "valueReference": {
              "reference": "urn:uuid:bcd7981a-909f-4b1d-a5ea-7d93a28fc7fa"
            }
          }
        ],
        "category": [
          {
            "coding": [
              {
                "code": "26436-6",
                "system": "http://loinc.org",
                "display": "Laboratory studies (set)"
              }
            ]
          }
        ],
        "specimen": [
          {
            "reference": "urn:uuid:7ec87c9d-1eb4-46bd-8d60-25f81cf1c10e"
          },
          {
            "reference": "urn:uuid:2166622a-b8fd-4b17-b7e4-9abc2b0a1b2b"
          },
          {
            "reference": "urn:uuid:e1975a20-c77e-427e-96cb-1809449a5511"
          }
        ],
        "result": [
          {
            "reference": "urn:uuid:832f184b-4e98-47ce-87fc-caf31f73c5f7"
          },
          {
            "reference": "urn:uuid:91c9f40d-3ef1-462a-adb7-5efec3094052"
          },
          {
            "reference": "urn:uuid:2ed96127-f07f-4e4f-9456-2501e3914076"
          },
          {
            "reference": "urn:uuid:bb9ccf6a-05d3-4187-ab30-5f7923767ec3"
          },
          {
            "reference": "urn:uuid:196d5731-0ea5-4754-96d4-499bea06c961"
          },
          {
            "reference": "urn:uuid:12afdf9d-854c-402b-aaf7-981269ddb223"
          },
          {
            "reference": "urn:uuid:63440065-6f9f-4fb0-8b5e-faccb3f317c7"
          },
          {
            "reference": "urn:uuid:3c255201-2761-4bbe-8c4b-f2e8d3bbdfb0"
          },
          {
            "reference": "urn:uuid:ae298373-a9a5-48c0-b06c-8980572a5288"
          },
          {
            "reference": "urn:uuid:2671e240-c9bc-4b43-b075-9fb101527658"
          },
          {
            "reference": "urn:uuid:344d0099-4044-45d5-95a2-db63ac57e4dc"
          },
          {
            "reference": "urn:uuid:1c342de0-e4d7-4ca4-a372-54ac87c722be"
          },
          {
            "reference": "urn:uuid:8fc72179-087d-43d2-8912-228c5e44063f"
          },
          {
            "reference": "urn:uuid:c397aa88-a7cf-417c-b19b-e228f556182c"
          },
          {
            "reference": "urn:uuid:d7182ff4-d741-4fd1-a9c6-08dda1091d83"
          },
          {
            "reference": "urn:uuid:d55f8634-18a6-4640-a8c4-32829c4a7bdd"
          },
          {
            "reference": "urn:uuid:a9926ace-4f9d-4373-b9f7-8acc2756aba2"
          },
          {
            "reference": "urn:uuid:c3526c8d-d309-4781-b42b-6744a9f16966"
          },
          {
            "reference": "urn:uuid:ae61b219-60b6-43ca-b21e-96102dd88aa7"
          },
          {
            "reference": "urn:uuid:36ac0096-176b-410a-942f-82bdb0ca0e13"
          },
          {
            "reference": "urn:uuid:40f7b055-4ac3-493c-8b2d-dc4d5b386d16"
          },
          {
            "reference": "urn:uuid:82e8b377-bb76-4507-8e14-515c7be02008"
          },
          {
            "reference": "urn:uuid:9f417a96-e47f-4bb2-8025-a61b94a8d042"
          },
          {
            "reference": "urn:uuid:ffd1d4de-45f0-453c-9827-c04fb08700a5"
          },
          {
            "reference": "urn:uuid:fb666f98-ede5-4422-b04c-b2157553d918"
          },
          {
            "reference": "urn:uuid:31285715-eee3-4c94-9b79-7cb2fe8ca66b"
          },
          {
            "reference": "urn:uuid:c4606606-be2a-4ec0-ae04-0058a3467cf5"
          },
          {
            "reference": "urn:uuid:3619cbdc-326c-46bb-8430-1f50f2055c1d"
          },
          {
            "reference": "urn:uuid:befe9584-cfc0-4455-b703-726510853a43"
          },
          {
            "reference": "urn:uuid:a35abbae-7d30-4d10-83f2-455145d1600e"
          },
          {
            "reference": "urn:uuid:21817de9-4b99-483e-9fc5-88ebc97b44f0"
          },
          {
            "reference": "urn:uuid:23f09d05-6bd4-4bde-892f-856ebdd8f339"
          },
          {
            "reference": "urn:uuid:404ea2b4-5953-4e4c-bb46-3526735db175"
          },
          {
            "reference": "urn:uuid:dbde540c-775d-42b2-a3f8-08239db9a3a9"
          }
        ],
        "status": "registered",
        "code": {
          "coding": [
            {
              "code": "11502-2",
              "system": "http://loinc.org",
              "display": "Laboratory report"
            }
          ]
        },
        "subject": {
          "reference": "urn:uuid:ee78f6ce-ae43-4fd2-88e0-352b9d2f38f6",
          "display": "Meaghan Neary"
        }
      }
    },
    {
      "fullUrl": "urn:uuid:ee78f6ce-ae43-4fd2-88e0-352b9d2f38f6",
      "resource": {
        "resourceType": "Patient",
        "id": "ee78f6ce-ae43-4fd2-88e0-352b9d2f38f6",
        "meta": {
          "security": [
            {
              "system": "http://terminology.hl7.org/CodeSystem/v3-ActReason",
              "code": "HTEST"
            },
            {
              "system": "http://terminology.hl7.org/CodeSystem/v3-ActReason",
              "code": "TRAIN"
            }
          ],
          "tag": [
            {
              "system": "https://synderai.net/fhir/CodeSystem/tags",
              "code": "synthetic",
              "display": "SYNDERAI Synthetic data"
            }
          ],
          "profile": [
            "http://hl7.eu/fhir/base/StructureDefinition/patient-eu-core"
          ]
        },
        "identifier": [
          {
            "type": {
              "coding": [
                {
                  "code": "PT",
                  "system": "http://terminology.hl7.org/CodeSystem/v2-0203"
                }
              ]
            },
            "system": "http://ec.europa.eu/identifier/eci",
            "value": "1586-567257-8"
          },
          {
            "type": {
              "coding": [
                {
                  "code": "MR",
                  "system": "http://terminology.hl7.org/CodeSystem/v2-0203"
                }
              ]
            },
            "system": "http://local.setting.eu/identifier",
            "value": "443e6379-f231-b364-3ccb-644740a1aa2a"
          }
        ],
        "name": [
          {
            "family": "Neary"
          },
          {
            "given": [
              "Meaghan"
            ]
          },
          {
            "text": "Meaghan Neary"
          }
        ],
        "address": [
          {
            "line": [
              "64 Linskey Street"
            ],
            "use": "home",
            "type": "physical",
            "postalCode": "D02",
            "city": "Dublin",
            "country": "Ireland"
          }
        ],
        "telecom": [
          {
            "system": "phone",
            "value": "001-967-573-0911x465"
          }
        ],
        "extension": [
          {
            "url": "http://hl7.org/fhir/StructureDefinition/patient-nationality",
            "valueCodeableConcept": {
              "coding": [
                {
                  "code": "IE",
                  "system": "http://hl7.org/fhir/ValueSet/country"
                }
              ]
            }
          }
        ],
        "text": {
          "status": "generated",
          "div": "<div xmlns=\"http://www.w3.org/1999/xhtml\"><table class=\"hl7__ips\"><tr><td>Meaghan Neary</td><td>female</td><td>19-Dec-1960</td></tr></table></div>"
        },
        "gender": "female",
        "birthDate": "1960-12-19"
      }
    },
    {
      "fullUrl": "urn:uuid:573fbaf9-3094-4374-a150-1097d4d0dc6c",
      "resource": {
        "resourceType": "ServiceRequest",
        "id": "573fbaf9-3094-4374-a150-1097d4d0dc6c",
        "meta": {
          "profile": [
            "http://hl7.eu/fhir/laboratory/StructureDefinition/ServiceRequest-eu-lab"
          ]
        },
        "identifier": [
          {
            "system": "http://example.org",
            "value": "0a6cde6c-4239-4e3e-82b9-56633205c2b3"
          }
        ],
        "specimen": [
          {
            "reference": "urn:uuid:7ec87c9d-1eb4-46bd-8d60-25f81cf1c10e"
          },
          {
            "reference": "urn:uuid:2166622a-b8fd-4b17-b7e4-9abc2b0a1b2b"
          },
          {
            "reference": "urn:uuid:e1975a20-c77e-427e-96cb-1809449a5511"
          }
        ],
        "reasonCode": [
          {
            "coding": [
              {
                "code": "55822004",
                "system": "http://snomed.info/sct",
                "display": "Hyperlipidemia"
              }
            ]
          },
          {
            "coding": [
              {
                "code": "433144002",
                "system": "http://snomed.info/sct",
                "display": "Chronic kidney disease stage 3"
              }
            ]
          },
          {
            "coding": [
              {
                "code": "157141000119108",
                "system": "http://snomed.info/sct",
                "display": "Proteinuria due to type 2 diabetes mellitus"
              }
            ]
          },
          {
            "coding": [
              {
                "code": "431856006",
                "system": "http://snomed.info/sct",
                "display": "Chronic kidney disease stage 2"
              }
            ]
          },
          {
            "coding": [
              {
                "code": "90781000119102",
                "system": "http://snomed.info/sct",
                "display": "Microalbuminuria due to type 2 diabetes mellitus"
              }
            ]
          },
          {
            "coding": [
              {
                "code": "127013003",
                "system": "http://snomed.info/sct",
                "display": "Disorder of kidney due to diabetes mellitus"
              }
            ]
          },
          {
            "coding": [
              {
                "code": "431855005",
                "system": "http://snomed.info/sct",
                "display": "Chronic kidney disease stage 1"
              }
            ]
          },
          {
            "coding": [
              {
                "code": "237602007",
                "system": "http://snomed.info/sct",
                "display": "Metabolic syndrome X"
              }
            ]
          },
          {
            "coding": [
              {
                "code": "271737000",
                "system": "http://snomed.info/sct",
                "display": "Anemia"
              }
            ]
          },
          {
            "coding": [
              {
                "code": "15777000",
                "system": "http://snomed.info/sct",
                "display": "Prediabetes"
              }
            ]
          },
          {
            "coding": [
              {
                "code": "59621000",
                "system": "http://snomed.info/sct",
                "display": "Essential hypertension"
              }
            ]
          }
        ],
        "status": "active",
        "intent": "order",
        "code": {
          "coding": [
            {
              "code": "108252007",
              "system": "http://snomed.info/sct",
              "display": "Laboratory procedure"
            }
          ]
        },
        "subject": {
          "reference": "urn:uuid:ee78f6ce-ae43-4fd2-88e0-352b9d2f38f6",
          "display": "Meaghan Neary"
        },
        "requester": {
          "reference": "urn:uuid:68736bff-6b10-486d-b355-77feb5824340"
        }
      }
    },
    {
      "fullUrl": "urn:uuid:68736bff-6b10-486d-b355-77feb5824340",
      "resource": {
        "resourceType": "PractitionerRole",
        "id": "68736bff-6b10-486d-b355-77feb5824340",
        "meta": {
          "profile": [
            "http://hl7.eu/fhir/base/StructureDefinition/practitionerRole-eu"
          ]
        },
        "text": {
          "status": "generated",
          "div": "<div xmlns=\"http://www.w3.org/1999/xhtml\">Provider Role Id: 68736bff-6b10-486d-b355-77feb5824340</div>"
        },
        "organization": {
          "reference": "urn:uuid:17b9d63c-2366-4cf9-8af4-8b2ac95267a5"
        }
      }
    },
    {
      "fullUrl": "urn:uuid:17b9d63c-2366-4cf9-8af4-8b2ac95267a5",
      "resource": {
        "resourceType": "Organization",
        "id": "17b9d63c-2366-4cf9-8af4-8b2ac95267a5",
        "meta": {
          "profile": [
            "http://hl7.eu/fhir/base/StructureDefinition/organization-eu"
          ]
        },
        "identifier": [
          {
            "assigner": {
              "display": "HL7 Europe"
            },
            "system": "urn:oid:2.16.840.1.113883.2.51.999",
            "value": "1dc76734-5792-4b9b-bedd-5ace77e3c405"
          }
        ],
        "address": [
          {
            "line": [
              "Parnell Square West nan"
            ],
            "city": "Dublin",
            "postalCode": "D01",
            "country": "Ireland"
          }
        ],
        "text": {
          "status": "generated",
          "div": "<div xmlns=\"http://www.w3.org/1999/xhtml\">Provider Organization: Rotunda Hospital</div>"
        },
        "name": "Rotunda Hospital"
      }
    },
    {
      "fullUrl": "urn:uuid:7ec87c9d-1eb4-46bd-8d60-25f81cf1c10e",
      "resource": {
        "resourceType": "Specimen",
        "id": "7ec87c9d-1eb4-46bd-8d60-25f81cf1c10e",
        "meta": {
          "profile": [
            "http://hl7.eu/fhir/laboratory/StructureDefinition/Specimen-eu-lab"
          ]
        },
        "collection": {
          "collectedDateTime": "2021-02-08"
        },
        "text": {
          "status": "generated",
          "div": "<div xmlns=\"http://www.w3.org/1999/xhtml\"><table class=\"hl7__eu__lab__report\"><tr><th>Specimen</th><th>Collection Date</th></tr><tr><td>Acellular blood (serum or plasma) specimen</td><td><span class=\"nb\">08-Feb-2021</span></td></tr></table></div>"
        },
        "type": {
          "coding": [
            {
              "code": "122592007",
              "system": "http://snomed.info/sct",
              "display": "Acellular blood (serum or plasma) specimen"
            }
          ]
        }
      }
    },
    {
      "fullUrl": "urn:uuid:2166622a-b8fd-4b17-b7e4-9abc2b0a1b2b",
      "resource": {
        "resourceType": "Specimen",
        "id": "2166622a-b8fd-4b17-b7e4-9abc2b0a1b2b",
        "meta": {
          "profile": [
            "http://hl7.eu/fhir/laboratory/StructureDefinition/Specimen-eu-lab"
          ]
        },
        "collection": {
          "collectedDateTime": "2021-02-08"
        },
        "text": {
          "status": "generated",
          "div": "<div xmlns=\"http://www.w3.org/1999/xhtml\"><table class=\"hl7__eu__lab__report\"><tr><th>Specimen</th><th>Collection Date</th></tr><tr><td>Urine specimen</td><td><span class=\"nb\">08-Feb-2021</span></td></tr></table></div>"
        },
        "type": {
          "coding": [
            {
              "code": "122575003",
              "system": "http://snomed.info/sct",
              "display": "Urine specimen"
            }
          ]
        }
      }
    },
    {
      "fullUrl": "urn:uuid:e1975a20-c77e-427e-96cb-1809449a5511",
      "resource": {
        "resourceType": "Specimen",
        "id": "e1975a20-c77e-427e-96cb-1809449a5511",
        "meta": {
          "profile": [
            "http://hl7.eu/fhir/laboratory/StructureDefinition/Specimen-eu-lab"
          ]
        },
        "collection": {
          "collectedDateTime": "2021-02-08"
        },
        "text": {
          "status": "generated",
          "div": "<div xmlns=\"http://www.w3.org/1999/xhtml\"><table class=\"hl7__eu__lab__report\"><tr><th>Specimen</th><th>Collection Date</th></tr><tr><td>Whole blood specimen (specimen)</td><td><span class=\"nb\">08-Feb-2021</span></td></tr></table></div>"
        },
        "type": {
          "coding": [
            {
              "code": "258580003",
              "system": "http://snomed.info/sct",
              "display": "Whole blood specimen (specimen)"
            }
          ]
        }
      }
    },
    {
      "fullUrl": "urn:uuid:832f184b-4e98-47ce-87fc-caf31f73c5f7",
      "resource": {
        "resourceType": "Observation",
        "id": "832f184b-4e98-47ce-87fc-caf31f73c5f7",
        "meta": {
          "profile": [
            "http://hl7.eu/fhir/laboratory/StructureDefinition/Observation-resultslab-eu-lab"
          ]
        },
        "performer": [
          {
            "display": "The Central European Lab"
          }
        ],
        "category": [
          {
            "coding": [
              {
                "system": "http://terminology.hl7.org/CodeSystem/observation-category",
                "code": "laboratory"
              }
            ]
          }
        ],
        "code": {
          "coding": [
            {
              "code": "2345-7",
              "system": "http://loinc.org",
              "display": "Glucose [Mass/volume] in Serum or Plasma"
            }
          ],
          "text": "Glucose [Mass/volume] in Serum or Plasma"
        },
        "valueQuantity": {
          "system": "http://unitsofmeasure.org",
          "value": 78.3,
          "unit": "mg/dL",
          "code": "mg/dL"
        },
        "referenceRange": [
          {
            "low": {
              "value": 70,
              "code": "mg/dL",
              "system": "http://unitsofmeasure.org"
            }
          },
          {
            "high": {
              "value": 99,
              "code": "mg/dL",
              "system": "http://unitsofmeasure.org"
            }
          }
        ],
        "text": {
          "status": "generated",
          "div": "<div xmlns=\"http://www.w3.org/1999/xhtml\"><table class=\"hl7__eu__lab__report\"><tr><th>Test</th><th>08-Feb-2021</th><th>Reference&#xA0;Range</th><th>Unit</th></tr><tr><td>Glucose [Mass/volume] in Serum or Plasma</td><td>78.3</td><td>70 - 99</td><td></td><td>mg/dL</td></tr></table></div>"
        },
        "status": "final",
        "subject": {
          "reference": "urn:uuid:ee78f6ce-ae43-4fd2-88e0-352b9d2f38f6",
          "display": "Meaghan Neary"
        },
        "effectiveDateTime": "2021-02-08T22:11:04Z",
        "specimen": {
          "reference": "urn:uuid:7ec87c9d-1eb4-46bd-8d60-25f81cf1c10e"
        }
      }
    },
    {
      "fullUrl": "urn:uuid:91c9f40d-3ef1-462a-adb7-5efec3094052",
      "resource": {
        "resourceType": "Observation",
        "id": "91c9f40d-3ef1-462a-adb7-5efec3094052",
        "meta": {
          "profile": [
            "http://hl7.eu/fhir/laboratory/StructureDefinition/Observation-resultslab-eu-lab"
          ]
        },
        "performer": [
          {
            "display": "The Central European Lab"
          }
        ],
        "category": [
          {
            "coding": [
              {
                "system": "http://terminology.hl7.org/CodeSystem/observation-category",
                "code": "laboratory"
              }
            ]
          }
        ],
        "code": {
          "coding": [
            {
              "code": "3094-0",
              "system": "http://loinc.org",
              "display": "Urea nitrogen [Mass/volume] in Serum or Plasma"
            }
          ],
          "text": "Urea nitrogen [Mass/volume] in Serum or Plasma"
        },
        "valueQuantity": {
          "system": "http://unitsofmeasure.org",
          "value": 15,
          "unit": "mg/dL",
          "code": "mg/dL"
        },
        "referenceRange": [
          {
            "low": {
              "value": 7,
              "code": "mg/dL",
              "system": "http://unitsofmeasure.org"
            }
          },
          {
            "high": {
              "value": 50,
              "code": "mg/dL",
              "system": "http://unitsofmeasure.org"
            }
          }
        ],
        "text": {
          "status": "generated",
          "div": "<div xmlns=\"http://www.w3.org/1999/xhtml\"><table class=\"hl7__eu__lab__report\"><tr><th>Test</th><th>08-Feb-2021</th><th>Reference&#xA0;Range</th><th>Unit</th></tr><tr><td>Urea nitrogen [Mass/volume] in Serum or Plasma</td><td>15.0</td><td>7 - 50</td><td></td><td>mg/dL</td></tr></table></div>"
        },
        "status": "final",
        "subject": {
          "reference": "urn:uuid:ee78f6ce-ae43-4fd2-88e0-352b9d2f38f6",
          "display": "Meaghan Neary"
        },
        "effectiveDateTime": "2021-02-08T22:11:04Z",
        "specimen": {
          "reference": "urn:uuid:7ec87c9d-1eb4-46bd-8d60-25f81cf1c10e"
        }
      }
    },
    {
      "fullUrl": "urn:uuid:2ed96127-f07f-4e4f-9456-2501e3914076",
      "resource": {
        "resourceType": "Observation",
        "id": "2ed96127-f07f-4e4f-9456-2501e3914076",
        "meta": {
          "profile": [
            "http://hl7.eu/fhir/laboratory/StructureDefinition/Observation-resultslab-eu-lab"
          ]
        },
        "performer": [
          {
            "display": "The Central European Lab"
          }
        ],
        "category": [
          {
            "coding": [
              {
                "system": "http://terminology.hl7.org/CodeSystem/observation-category",
                "code": "laboratory"
              }
            ]
          }
        ],
        "code": {
          "coding": [
            {
              "code": "2160-0",
              "system": "http://loinc.org",
              "display": "Creatinine [Mass/volume] in Serum or Plasma"
            }
          ],
          "text": "Creatinine [Mass/volume] in Serum or Plasma"
        },
        "valueQuantity": {
          "system": "http://unitsofmeasure.org",
          "value": 2,
          "unit": "mg/dL",
          "code": "mg/dL"
        },
        "referenceRange": [
          {
            "low": {
              "value": 0.6,
              "code": "mg/dL",
              "system": "http://unitsofmeasure.org"
            }
          },
          {
            "high": {
              "value": 1.1,
              "code": "mg/dL",
              "system": "http://unitsofmeasure.org"
            }
          }
        ],
        "interpretation": [
          {
            "coding": [
              {
                "code": "H",
                "system": "http://terminology.hl7.org/CodeSystem/v3-ObservationInterpretation",
                "display": "High"
              }
            ]
          }
        ],
        "text": {
          "status": "generated",
          "div": "<div xmlns=\"http://www.w3.org/1999/xhtml\"><table class=\"hl7__eu__lab__report\"><tr><th>Test</th><th>08-Feb-2021</th><th>Reference&#xA0;Range</th><th>Unit</th></tr><tr><td>Creatinine [Mass/volume] in Serum or Plasma</td><td>2.0</td><td>0.6 - 1.1</td><td>H</td><td>mg/dL</td></tr></table></div>"
        },
        "status": "final",
        "subject": {
          "reference": "urn:uuid:ee78f6ce-ae43-4fd2-88e0-352b9d2f38f6",
          "display": "Meaghan Neary"
        },
        "effectiveDateTime": "2021-02-08T22:11:04Z",
        "specimen": {
          "reference": "urn:uuid:7ec87c9d-1eb4-46bd-8d60-25f81cf1c10e"
        }
      }
    },
    {
      "fullUrl": "urn:uuid:bb9ccf6a-05d3-4187-ab30-5f7923767ec3",
      "resource": {
        "resourceType": "Observation",
        "id": "bb9ccf6a-05d3-4187-ab30-5f7923767ec3",
        "meta": {
          "profile": [
            "http://hl7.eu/fhir/laboratory/StructureDefinition/Observation-resultslab-eu-lab"
          ]
        },
        "performer": [
          {
            "display": "The Central European Lab"
          }
        ],
        "category": [
          {
            "coding": [
              {
                "system": "http://terminology.hl7.org/CodeSystem/observation-category",
                "code": "laboratory"
              }
            ]
          }
        ],
        "code": {
          "coding": [
            {
              "code": "17861-6",
              "system": "http://loinc.org",
              "display": "Calcium [Mass/volume] in Serum or Plasma"
            }
          ],
          "text": "Calcium [Mass/volume] in Serum or Plasma"
        },
        "valueQuantity": {
          "system": "http://unitsofmeasure.org",
          "value": 9.8,
          "unit": "mg/dL",
          "code": "mg/dL"
        },
        "referenceRange": [
          {
            "low": {
              "value": 8.6,
              "code": "mg/dL",
              "system": "http://unitsofmeasure.org"
            }
          },
          {
            "high": {
              "value": 10.4,
              "code": "mg/dL",
              "system": "http://unitsofmeasure.org"
            }
          }
        ],
        "text": {
          "status": "generated",
          "div": "<div xmlns=\"http://www.w3.org/1999/xhtml\"><table class=\"hl7__eu__lab__report\"><tr><th>Test</th><th>08-Feb-2021</th><th>Reference&#xA0;Range</th><th>Unit</th></tr><tr><td>Calcium [Mass/volume] in Serum or Plasma</td><td>9.8</td><td>8.6 - 10.4</td><td></td><td>mg/dL</td></tr></table></div>"
        },
        "status": "final",
        "subject": {
          "reference": "urn:uuid:ee78f6ce-ae43-4fd2-88e0-352b9d2f38f6",
          "display": "Meaghan Neary"
        },
        "effectiveDateTime": "2021-02-08T22:11:04Z",
        "specimen": {
          "reference": "urn:uuid:7ec87c9d-1eb4-46bd-8d60-25f81cf1c10e"
        }
      }
    },
    {
      "fullUrl": "urn:uuid:196d5731-0ea5-4754-96d4-499bea06c961",
      "resource": {
        "resourceType": "Observation",
        "id": "196d5731-0ea5-4754-96d4-499bea06c961",
        "meta": {
          "profile": [
            "http://hl7.eu/fhir/laboratory/StructureDefinition/Observation-resultslab-eu-lab"
          ]
        },
        "performer": [
          {
            "display": "The Central European Lab"
          }
        ],
        "category": [
          {
            "coding": [
              {
                "system": "http://terminology.hl7.org/CodeSystem/observation-category",
                "code": "laboratory"
              }
            ]
          }
        ],
        "code": {
          "coding": [
            {
              "code": "2951-2",
              "system": "http://loinc.org",
              "display": "Sodium [Moles/volume] in Serum or Plasma"
            }
          ],
          "text": "Sodium [Moles/volume] in Serum or Plasma"
        },
        "valueQuantity": {
          "system": "http://unitsofmeasure.org",
          "value": 138.9,
          "unit": "mmol/L",
          "code": "mmol/L"
        },
        "referenceRange": [
          {
            "low": {
              "value": 135,
              "code": "mmol/L",
              "system": "http://unitsofmeasure.org"
            }
          },
          {
            "high": {
              "value": 145,
              "code": "mmol/L",
              "system": "http://unitsofmeasure.org"
            }
          }
        ],
        "text": {
          "status": "generated",
          "div": "<div xmlns=\"http://www.w3.org/1999/xhtml\"><table class=\"hl7__eu__lab__report\"><tr><th>Test</th><th>08-Feb-2021</th><th>Reference&#xA0;Range</th><th>Unit</th></tr><tr><td>Sodium [Moles/volume] in Serum or Plasma</td><td>138.9</td><td>135 - 145</td><td></td><td>mmol/L</td></tr></table></div>"
        },
        "status": "final",
        "subject": {
          "reference": "urn:uuid:ee78f6ce-ae43-4fd2-88e0-352b9d2f38f6",
          "display": "Meaghan Neary"
        },
        "effectiveDateTime": "2021-02-08T22:11:04Z",
        "specimen": {
          "reference": "urn:uuid:7ec87c9d-1eb4-46bd-8d60-25f81cf1c10e"
        }
      }
    },
    {
      "fullUrl": "urn:uuid:12afdf9d-854c-402b-aaf7-981269ddb223",
      "resource": {
        "resourceType": "Observation",
        "id": "12afdf9d-854c-402b-aaf7-981269ddb223",
        "meta": {
          "profile": [
            "http://hl7.eu/fhir/laboratory/StructureDefinition/Observation-resultslab-eu-lab"
          ]
        },
        "performer": [
          {
            "display": "The Central European Lab"
          }
        ],
        "category": [
          {
            "coding": [
              {
                "system": "http://terminology.hl7.org/CodeSystem/observation-category",
                "code": "laboratory"
              }
            ]
          }
        ],
        "code": {
          "coding": [
            {
              "code": "2823-3",
              "system": "http://loinc.org",
              "display": "Potassium [Moles/volume] in Serum or Plasma"
            }
          ],
          "text": "Potassium [Moles/volume] in Serum or Plasma"
        },
        "valueQuantity": {
          "system": "http://unitsofmeasure.org",
          "value": 4.2,
          "unit": "mmol/L",
          "code": "mmol/L"
        },
        "referenceRange": [
          {
            "low": {
              "value": 3.5,
              "code": "mmol/L",
              "system": "http://unitsofmeasure.org"
            }
          },
          {
            "high": {
              "value": 5.1,
              "code": "mmol/L",
              "system": "http://unitsofmeasure.org"
            }
          }
        ],
        "text": {
          "status": "generated",
          "div": "<div xmlns=\"http://www.w3.org/1999/xhtml\"><table class=\"hl7__eu__lab__report\"><tr><th>Test</th><th>08-Feb-2021</th><th>Reference&#xA0;Range</th><th>Unit</th></tr><tr><td>Potassium [Moles/volume] in Serum or Plasma</td><td>4.2</td><td>3.5 - 5.1</td><td></td><td>mmol/L</td></tr></table></div>"
        },
        "status": "final",
        "subject": {
          "reference": "urn:uuid:ee78f6ce-ae43-4fd2-88e0-352b9d2f38f6",
          "display": "Meaghan Neary"
        },
        "effectiveDateTime": "2021-02-08T22:11:04Z",
        "specimen": {
          "reference": "urn:uuid:7ec87c9d-1eb4-46bd-8d60-25f81cf1c10e"
        }
      }
    },
    {
      "fullUrl": "urn:uuid:63440065-6f9f-4fb0-8b5e-faccb3f317c7",
      "resource": {
        "resourceType": "Observation",
        "id": "63440065-6f9f-4fb0-8b5e-faccb3f317c7",
        "meta": {
          "profile": [
            "http://hl7.eu/fhir/laboratory/StructureDefinition/Observation-resultslab-eu-lab"
          ]
        },
        "performer": [
          {
            "display": "The Central European Lab"
          }
        ],
        "category": [
          {
            "coding": [
              {
                "system": "http://terminology.hl7.org/CodeSystem/observation-category",
                "code": "laboratory"
              }
            ]
          }
        ],
        "code": {
          "coding": [
            {
              "code": "2075-0",
              "system": "http://loinc.org",
              "display": "Chloride [Moles/volume] in Serum or Plasma"
            }
          ],
          "text": "Chloride [Moles/volume] in Serum or Plasma"
        },
        "valueQuantity": {
          "system": "http://unitsofmeasure.org",
          "value": 104.3,
          "unit": "mmol/L",
          "code": "mmol/L"
        },
        "referenceRange": [
          {
            "low": {
              "value": 98,
              "code": "mmol/L",
              "system": "http://unitsofmeasure.org"
            }
          },
          {
            "high": {
              "value": 108,
              "code": "mmol/L",
              "system": "http://unitsofmeasure.org"
            }
          }
        ],
        "text": {
          "status": "generated",
          "div": "<div xmlns=\"http://www.w3.org/1999/xhtml\"><table class=\"hl7__eu__lab__report\"><tr><th>Test</th><th>08-Feb-2021</th><th>Reference&#xA0;Range</th><th>Unit</th></tr><tr><td>Chloride [Moles/volume] in Serum or Plasma</td><td>104.3</td><td>98 - 108</td><td></td><td>mmol/L</td></tr></table></div>"
        },
        "status": "final",
        "subject": {
          "reference": "urn:uuid:ee78f6ce-ae43-4fd2-88e0-352b9d2f38f6",
          "display": "Meaghan Neary"
        },
        "effectiveDateTime": "2021-02-08T22:11:04Z",
        "specimen": {
          "reference": "urn:uuid:7ec87c9d-1eb4-46bd-8d60-25f81cf1c10e"
        }
      }
    },
    {
      "fullUrl": "urn:uuid:3c255201-2761-4bbe-8c4b-f2e8d3bbdfb0",
      "resource": {
        "resourceType": "Observation",
        "id": "3c255201-2761-4bbe-8c4b-f2e8d3bbdfb0",
        "meta": {
          "profile": [
            "http://hl7.eu/fhir/laboratory/StructureDefinition/Observation-resultslab-eu-lab"
          ]
        },
        "performer": [
          {
            "display": "The Central European Lab"
          }
        ],
        "category": [
          {
            "coding": [
              {
                "system": "http://terminology.hl7.org/CodeSystem/observation-category",
                "code": "laboratory"
              }
            ]
          }
        ],
        "code": {
          "coding": [
            {
              "code": "2028-9",
              "system": "http://loinc.org",
              "display": "Carbon dioxide, total [Moles/volume] in Serum or Plasma"
            }
          ],
          "text": "Carbon dioxide, total [Moles/volume] in Serum or Plasma"
        },
        "valueQuantity": {
          "system": "http://unitsofmeasure.org",
          "value": 27.4,
          "unit": "mmol/L",
          "code": "mmol/L"
        },
        "referenceRange": [
          {
            "low": {
              "value": 22,
              "code": "mmol/L",
              "system": "http://unitsofmeasure.org"
            }
          },
          {
            "high": {
              "value": 32,
              "code": "mmol/L",
              "system": "http://unitsofmeasure.org"
            }
          }
        ],
        "text": {
          "status": "generated",
          "div": "<div xmlns=\"http://www.w3.org/1999/xhtml\"><table class=\"hl7__eu__lab__report\"><tr><th>Test</th><th>08-Feb-2021</th><th>Reference&#xA0;Range</th><th>Unit</th></tr><tr><td>Carbon dioxide, total [Moles/volume] in Serum or Plasma</td><td>27.4</td><td>22 - 32</td><td></td><td>mmol/L</td></tr></table></div>"
        },
        "status": "final",
        "subject": {
          "reference": "urn:uuid:ee78f6ce-ae43-4fd2-88e0-352b9d2f38f6",
          "display": "Meaghan Neary"
        },
        "effectiveDateTime": "2021-02-08T22:11:04Z",
        "specimen": {
          "reference": "urn:uuid:7ec87c9d-1eb4-46bd-8d60-25f81cf1c10e"
        }
      }
    },
    {
      "fullUrl": "urn:uuid:ae298373-a9a5-48c0-b06c-8980572a5288",
      "resource": {
        "resourceType": "Observation",
        "id": "ae298373-a9a5-48c0-b06c-8980572a5288",
        "meta": {
          "profile": [
            "http://hl7.eu/fhir/laboratory/StructureDefinition/Observation-resultslab-eu-lab"
          ]
        },
        "performer": [
          {
            "display": "The Central European Lab"
          }
        ],
        "category": [
          {
            "coding": [
              {
                "system": "http://terminology.hl7.org/CodeSystem/observation-category",
                "code": "laboratory"
              }
            ]
          }
        ],
        "code": {
          "coding": [
            {
              "code": "5767-9",
              "system": "http://loinc.org",
              "display": "Appearance of Urine"
            }
          ],
          "text": "Appearance of Urine"
        },
        "text": {
          "status": "generated",
          "div": "<div xmlns=\"http://www.w3.org/1999/xhtml\"><table class=\"hl7__eu__lab__report\"><tr><th>Test</th><th>08-Feb-2021</th><th>Reference&#xA0;Range</th><th>Unit</th></tr><tr><td>Appearance of Urine</td></tr></table></div>"
        },
        "status": "final",
        "subject": {
          "reference": "urn:uuid:ee78f6ce-ae43-4fd2-88e0-352b9d2f38f6",
          "display": "Meaghan Neary"
        },
        "effectiveDateTime": "2021-02-08T22:11:04Z",
        "specimen": {
          "reference": "urn:uuid:2166622a-b8fd-4b17-b7e4-9abc2b0a1b2b"
        }
      }
    },
    {
      "fullUrl": "urn:uuid:2671e240-c9bc-4b43-b075-9fb101527658",
      "resource": {
        "resourceType": "Observation",
        "id": "2671e240-c9bc-4b43-b075-9fb101527658",
        "meta": {
          "profile": [
            "http://hl7.eu/fhir/laboratory/StructureDefinition/Observation-resultslab-eu-lab"
          ]
        },
        "performer": [
          {
            "display": "The Central European Lab"
          }
        ],
        "category": [
          {
            "coding": [
              {
                "system": "http://terminology.hl7.org/CodeSystem/observation-category",
                "code": "laboratory"
              }
            ]
          }
        ],
        "code": {
          "coding": [
            {
              "code": "34533-0",
              "system": "http://loinc.org",
              "display": "Odor of Urine"
            }
          ],
          "text": "Odor of Urine"
        },
        "text": {
          "status": "generated",
          "div": "<div xmlns=\"http://www.w3.org/1999/xhtml\"><table class=\"hl7__eu__lab__report\"><tr><th>Test</th><th>08-Feb-2021</th><th>Reference&#xA0;Range</th><th>Unit</th></tr><tr><td>Odor of Urine</td></tr></table></div>"
        },
        "status": "final",
        "subject": {
          "reference": "urn:uuid:ee78f6ce-ae43-4fd2-88e0-352b9d2f38f6",
          "display": "Meaghan Neary"
        },
        "effectiveDateTime": "2021-02-08T22:11:04Z",
        "specimen": {
          "reference": "urn:uuid:2166622a-b8fd-4b17-b7e4-9abc2b0a1b2b"
        }
      }
    },
    {
      "fullUrl": "urn:uuid:344d0099-4044-45d5-95a2-db63ac57e4dc",
      "resource": {
        "resourceType": "Observation",
        "id": "344d0099-4044-45d5-95a2-db63ac57e4dc",
        "meta": {
          "profile": [
            "http://hl7.eu/fhir/laboratory/StructureDefinition/Observation-resultslab-eu-lab"
          ]
        },
        "performer": [
          {
            "display": "The Central European Lab"
          }
        ],
        "category": [
          {
            "coding": [
              {
                "system": "http://terminology.hl7.org/CodeSystem/observation-category",
                "code": "laboratory"
              }
            ]
          }
        ],
        "code": {
          "coding": [
            {
              "code": "32167-9",
              "system": "http://loinc.org",
              "display": "Clarity of Urine"
            }
          ],
          "text": "Clarity of Urine"
        },
        "text": {
          "status": "generated",
          "div": "<div xmlns=\"http://www.w3.org/1999/xhtml\"><table class=\"hl7__eu__lab__report\"><tr><th>Test</th><th>08-Feb-2021</th><th>Reference&#xA0;Range</th><th>Unit</th></tr><tr><td>Clarity of Urine</td></tr></table></div>"
        },
        "status": "final",
        "subject": {
          "reference": "urn:uuid:ee78f6ce-ae43-4fd2-88e0-352b9d2f38f6",
          "display": "Meaghan Neary"
        },
        "effectiveDateTime": "2021-02-08T22:11:04Z",
        "specimen": {
          "reference": "urn:uuid:2166622a-b8fd-4b17-b7e4-9abc2b0a1b2b"
        }
      }
    },
    {
      "fullUrl": "urn:uuid:1c342de0-e4d7-4ca4-a372-54ac87c722be",
      "resource": {
        "resourceType": "Observation",
        "id": "1c342de0-e4d7-4ca4-a372-54ac87c722be",
        "meta": {
          "profile": [
            "http://hl7.eu/fhir/laboratory/StructureDefinition/Observation-resultslab-eu-lab"
          ]
        },
        "performer": [
          {
            "display": "The Central European Lab"
          }
        ],
        "category": [
          {
            "coding": [
              {
                "system": "http://terminology.hl7.org/CodeSystem/observation-category",
                "code": "laboratory"
              }
            ]
          }
        ],
        "code": {
          "coding": [
            {
              "code": "5778-6",
              "system": "http://loinc.org",
              "display": "Color of Urine"
            }
          ],
          "text": "Color of Urine"
        },
        "text": {
          "status": "generated",
          "div": "<div xmlns=\"http://www.w3.org/1999/xhtml\"><table class=\"hl7__eu__lab__report\"><tr><th>Test</th><th>08-Feb-2021</th><th>Reference&#xA0;Range</th><th>Unit</th></tr><tr><td>Color of Urine</td></tr></table></div>"
        },
        "status": "final",
        "subject": {
          "reference": "urn:uuid:ee78f6ce-ae43-4fd2-88e0-352b9d2f38f6",
          "display": "Meaghan Neary"
        },
        "effectiveDateTime": "2021-02-08T22:11:04Z",
        "specimen": {
          "reference": "urn:uuid:2166622a-b8fd-4b17-b7e4-9abc2b0a1b2b"
        }
      }
    },
    {
      "fullUrl": "urn:uuid:8fc72179-087d-43d2-8912-228c5e44063f",
      "resource": {
        "resourceType": "Observation",
        "id": "8fc72179-087d-43d2-8912-228c5e44063f",
        "meta": {
          "profile": [
            "http://hl7.eu/fhir/laboratory/StructureDefinition/Observation-resultslab-eu-lab"
          ]
        },
        "performer": [
          {
            "display": "The Central European Lab"
          }
        ],
        "category": [
          {
            "coding": [
              {
                "system": "http://terminology.hl7.org/CodeSystem/observation-category",
                "code": "laboratory"
              }
            ]
          }
        ],
        "code": {
          "coding": [
            {
              "code": "5792-7",
              "system": "http://loinc.org",
              "display": "Glucose [Mass/volume] in Urine by Test strip"
            }
          ],
          "text": "Glucose [Mass/volume] in Urine by Test strip"
        },
        "valueQuantity": {
          "system": "http://unitsofmeasure.org",
          "value": 1.4,
          "unit": "mg/dL",
          "code": "mg/dL"
        },
        "referenceRange": [
          {
            "low": {
              "value": 0.8,
              "code": "mg/dL",
              "system": "http://unitsofmeasure.org"
            }
          },
          {
            "high": {
              "value": 0,
              "code": "mg/dL",
              "system": "http://unitsofmeasure.org"
            }
          }
        ],
        "interpretation": [
          {
            "coding": [
              {
                "code": "H",
                "system": "http://terminology.hl7.org/CodeSystem/v3-ObservationInterpretation",
                "display": "High"
              }
            ]
          }
        ],
        "text": {
          "status": "generated",
          "div": "<div xmlns=\"http://www.w3.org/1999/xhtml\"><table class=\"hl7__eu__lab__report\"><tr><th>Test</th><th>08-Feb-2021</th><th>Reference&#xA0;Range</th><th>Unit</th></tr><tr><td>Glucose [Mass/volume] in Urine by Test strip</td><td>1.4</td><td>0.8 - 0</td><td>H</td><td>mg/dL</td></tr></table></div>"
        },
        "status": "final",
        "subject": {
          "reference": "urn:uuid:ee78f6ce-ae43-4fd2-88e0-352b9d2f38f6",
          "display": "Meaghan Neary"
        },
        "effectiveDateTime": "2021-02-08T22:11:04Z",
        "specimen": {
          "reference": "urn:uuid:2166622a-b8fd-4b17-b7e4-9abc2b0a1b2b"
        }
      }
    },
    {
      "fullUrl": "urn:uuid:c397aa88-a7cf-417c-b19b-e228f556182c",
      "resource": {
        "resourceType": "Observation",
        "id": "c397aa88-a7cf-417c-b19b-e228f556182c",
        "meta": {
          "profile": [
            "http://hl7.eu/fhir/laboratory/StructureDefinition/Observation-resultslab-eu-lab"
          ]
        },
        "performer": [
          {
            "display": "The Central European Lab"
          }
        ],
        "category": [
          {
            "coding": [
              {
                "system": "http://terminology.hl7.org/CodeSystem/observation-category",
                "code": "laboratory"
              }
            ]
          }
        ],
        "code": {
          "coding": [
            {
              "code": "25428-4",
              "system": "http://loinc.org",
              "display": "Glucose [Presence] in Urine by Test strip"
            }
          ],
          "text": "Glucose [Presence] in Urine by Test strip"
        },
        "text": {
          "status": "generated",
          "div": "<div xmlns=\"http://www.w3.org/1999/xhtml\"><table class=\"hl7__eu__lab__report\"><tr><th>Test</th><th>08-Feb-2021</th><th>Reference&#xA0;Range</th><th>Unit</th></tr><tr><td>Glucose [Presence] in Urine by Test strip</td></tr></table></div>"
        },
        "status": "final",
        "subject": {
          "reference": "urn:uuid:ee78f6ce-ae43-4fd2-88e0-352b9d2f38f6",
          "display": "Meaghan Neary"
        },
        "effectiveDateTime": "2021-02-08T22:11:04Z",
        "specimen": {
          "reference": "urn:uuid:2166622a-b8fd-4b17-b7e4-9abc2b0a1b2b"
        }
      }
    },
    {
      "fullUrl": "urn:uuid:d7182ff4-d741-4fd1-a9c6-08dda1091d83",
      "resource": {
        "resourceType": "Observation",
        "id": "d7182ff4-d741-4fd1-a9c6-08dda1091d83",
        "meta": {
          "profile": [
            "http://hl7.eu/fhir/laboratory/StructureDefinition/Observation-resultslab-eu-lab"
          ]
        },
        "performer": [
          {
            "display": "The Central European Lab"
          }
        ],
        "category": [
          {
            "coding": [
              {
                "system": "http://terminology.hl7.org/CodeSystem/observation-category",
                "code": "laboratory"
              }
            ]
          }
        ],
        "code": {
          "coding": [
            {
              "code": "20505-4",
              "system": "http://loinc.org",
              "display": "Bilirubin.total [Mass/volume] in Urine by Test strip"
            }
          ],
          "text": "Bilirubin.total [Mass/volume] in Urine by Test strip"
        },
        "valueQuantity": {
          "system": "http://unitsofmeasure.org",
          "value": 1.2,
          "unit": "mg/dL",
          "code": "mg/dL"
        },
        "referenceRange": [
          {
            "low": {
              "value": 0,
              "code": "mg/dL",
              "system": "http://unitsofmeasure.org"
            }
          },
          {
            "high": {
              "value": 1,
              "code": "mg/dL",
              "system": "http://unitsofmeasure.org"
            }
          }
        ],
        "interpretation": [
          {
            "coding": [
              {
                "code": "H",
                "system": "http://terminology.hl7.org/CodeSystem/v3-ObservationInterpretation",
                "display": "High"
              }
            ]
          }
        ],
        "text": {
          "status": "generated",
          "div": "<div xmlns=\"http://www.w3.org/1999/xhtml\"><table class=\"hl7__eu__lab__report\"><tr><th>Test</th><th>08-Feb-2021</th><th>Reference&#xA0;Range</th><th>Unit</th></tr><tr><td>Bilirubin.total [Mass/volume] in Urine by Test strip</td><td>1.2</td><td>0 - 1</td><td>H</td><td>mg/dL</td></tr></table></div>"
        },
        "status": "final",
        "subject": {
          "reference": "urn:uuid:ee78f6ce-ae43-4fd2-88e0-352b9d2f38f6",
          "display": "Meaghan Neary"
        },
        "effectiveDateTime": "2021-02-08T22:11:04Z",
        "specimen": {
          "reference": "urn:uuid:2166622a-b8fd-4b17-b7e4-9abc2b0a1b2b"
        }
      }
    },
    {
      "fullUrl": "urn:uuid:d55f8634-18a6-4640-a8c4-32829c4a7bdd",
      "resource": {
        "resourceType": "Observation",
        "id": "d55f8634-18a6-4640-a8c4-32829c4a7bdd",
        "meta": {
          "profile": [
            "http://hl7.eu/fhir/laboratory/StructureDefinition/Observation-resultslab-eu-lab"
          ]
        },
        "performer": [
          {
            "display": "The Central European Lab"
          }
        ],
        "category": [
          {
            "coding": [
              {
                "system": "http://terminology.hl7.org/CodeSystem/observation-category",
                "code": "laboratory"
              }
            ]
          }
        ],
        "code": {
          "coding": [
            {
              "code": "5770-3",
              "system": "http://loinc.org",
              "display": "Bilirubin.total [Presence] in Urine by Test strip"
            }
          ],
          "text": "Bilirubin.total [Presence] in Urine by Test strip"
        },
        "text": {
          "status": "generated",
          "div": "<div xmlns=\"http://www.w3.org/1999/xhtml\"><table class=\"hl7__eu__lab__report\"><tr><th>Test</th><th>08-Feb-2021</th><th>Reference&#xA0;Range</th><th>Unit</th></tr><tr><td>Bilirubin.total [Presence] in Urine by Test strip</td></tr></table></div>"
        },
        "status": "final",
        "subject": {
          "reference": "urn:uuid:ee78f6ce-ae43-4fd2-88e0-352b9d2f38f6",
          "display": "Meaghan Neary"
        },
        "effectiveDateTime": "2021-02-08T22:11:04Z",
        "specimen": {
          "reference": "urn:uuid:2166622a-b8fd-4b17-b7e4-9abc2b0a1b2b"
        }
      }
    },
    {
      "fullUrl": "urn:uuid:a9926ace-4f9d-4373-b9f7-8acc2756aba2",
      "resource": {
        "resourceType": "Observation",
        "id": "a9926ace-4f9d-4373-b9f7-8acc2756aba2",
        "meta": {
          "profile": [
            "http://hl7.eu/fhir/laboratory/StructureDefinition/Observation-resultslab-eu-lab"
          ]
        },
        "performer": [
          {
            "display": "The Central European Lab"
          }
        ],
        "category": [
          {
            "coding": [
              {
                "system": "http://terminology.hl7.org/CodeSystem/observation-category",
                "code": "laboratory"
              }
            ]
          }
        ],
        "code": {
          "coding": [
            {
              "code": "5797-6",
              "system": "http://loinc.org",
              "display": "Ketones [Mass/volume] in Urine by Test strip"
            }
          ],
          "text": "Ketones [Mass/volume] in Urine by Test strip"
        },
        "valueQuantity": {
          "system": "http://unitsofmeasure.org",
          "value": 6.2,
          "unit": "mg/dL",
          "code": "mg/dL"
        },
        "referenceRange": [
          {
            "low": {
              "value": 0,
              "code": "mg/dL",
              "system": "http://unitsofmeasure.org"
            }
          },
          {
            "high": {
              "value": 4,
              "code": "mg/dL",
              "system": "http://unitsofmeasure.org"
            }
          }
        ],
        "interpretation": [
          {
            "coding": [
              {
                "code": "H",
                "system": "http://terminology.hl7.org/CodeSystem/v3-ObservationInterpretation",
                "display": "High"
              }
            ]
          }
        ],
        "text": {
          "status": "generated",
          "div": "<div xmlns=\"http://www.w3.org/1999/xhtml\"><table class=\"hl7__eu__lab__report\"><tr><th>Test</th><th>08-Feb-2021</th><th>Reference&#xA0;Range</th><th>Unit</th></tr><tr><td>Ketones [Mass/volume] in Urine by Test strip</td><td>6.2</td><td>0 - 4</td><td>H</td><td>mg/dL</td></tr></table></div>"
        },
        "status": "final",
        "subject": {
          "reference": "urn:uuid:ee78f6ce-ae43-4fd2-88e0-352b9d2f38f6",
          "display": "Meaghan Neary"
        },
        "effectiveDateTime": "2021-02-08T22:11:04Z",
        "specimen": {
          "reference": "urn:uuid:2166622a-b8fd-4b17-b7e4-9abc2b0a1b2b"
        }
      }
    },
    {
      "fullUrl": "urn:uuid:c3526c8d-d309-4781-b42b-6744a9f16966",
      "resource": {
        "resourceType": "Observation",
        "id": "c3526c8d-d309-4781-b42b-6744a9f16966",
        "meta": {
          "profile": [
            "http://hl7.eu/fhir/laboratory/StructureDefinition/Observation-resultslab-eu-lab"
          ]
        },
        "performer": [
          {
            "display": "The Central European Lab"
          }
        ],
        "category": [
          {
            "coding": [
              {
                "system": "http://terminology.hl7.org/CodeSystem/observation-category",
                "code": "laboratory"
              }
            ]
          }
        ],
        "code": {
          "coding": [
            {
              "code": "2514-8",
              "system": "http://loinc.org",
              "display": "Ketones [Presence] in Urine by Test strip"
            }
          ],
          "text": "Ketones [Presence] in Urine by Test strip"
        },
        "text": {
          "status": "generated",
          "div": "<div xmlns=\"http://www.w3.org/1999/xhtml\"><table class=\"hl7__eu__lab__report\"><tr><th>Test</th><th>08-Feb-2021</th><th>Reference&#xA0;Range</th><th>Unit</th></tr><tr><td>Ketones [Presence] in Urine by Test strip</td></tr></table></div>"
        },
        "status": "final",
        "subject": {
          "reference": "urn:uuid:ee78f6ce-ae43-4fd2-88e0-352b9d2f38f6",
          "display": "Meaghan Neary"
        },
        "effectiveDateTime": "2021-02-08T22:11:04Z",
        "specimen": {
          "reference": "urn:uuid:2166622a-b8fd-4b17-b7e4-9abc2b0a1b2b"
        }
      }
    },
    {
      "fullUrl": "urn:uuid:ae61b219-60b6-43ca-b21e-96102dd88aa7",
      "resource": {
        "resourceType": "Observation",
        "id": "ae61b219-60b6-43ca-b21e-96102dd88aa7",
        "meta": {
          "profile": [
            "http://hl7.eu/fhir/laboratory/StructureDefinition/Observation-resultslab-eu-lab"
          ]
        },
        "performer": [
          {
            "display": "The Central European Lab"
          }
        ],
        "category": [
          {
            "coding": [
              {
                "system": "http://terminology.hl7.org/CodeSystem/observation-category",
                "code": "laboratory"
              }
            ]
          }
        ],
        "code": {
          "coding": [
            {
              "code": "5811-5",
              "system": "http://loinc.org",
              "display": "Specific gravity of Urine by Test strip"
            }
          ],
          "text": "Specific gravity of Urine by Test strip"
        },
        "valueQuantity": {
          "system": "http://unitsofmeasure.org",
          "value": 1,
          "unit": "{nominal}",
          "code": "{nominal}"
        },
        "referenceRange": [
          {
            "low": {
              "value": 1.005,
              "code": "g/mL",
              "system": "http://unitsofmeasure.org"
            }
          },
          {
            "high": {
              "value": 1.03,
              "code": "g/mL",
              "system": "http://unitsofmeasure.org"
            }
          }
        ],
        "interpretation": [
          {
            "coding": [
              {
                "code": "L",
                "system": "http://terminology.hl7.org/CodeSystem/v3-ObservationInterpretation",
                "display": "Low"
              }
            ]
          }
        ],
        "text": {
          "status": "generated",
          "div": "<div xmlns=\"http://www.w3.org/1999/xhtml\"><table class=\"hl7__eu__lab__report\"><tr><th>Test</th><th>08-Feb-2021</th><th>Reference&#xA0;Range</th><th>Unit</th></tr><tr><td>Specific gravity of Urine by Test strip</td><td>1.0</td><td>1.005 - 1.03</td><td>L</td><td>{nominal}</td></tr></table></div>"
        },
        "status": "final",
        "subject": {
          "reference": "urn:uuid:ee78f6ce-ae43-4fd2-88e0-352b9d2f38f6",
          "display": "Meaghan Neary"
        },
        "effectiveDateTime": "2021-02-08T22:11:04Z",
        "specimen": {
          "reference": "urn:uuid:2166622a-b8fd-4b17-b7e4-9abc2b0a1b2b"
        }
      }
    },
    {
      "fullUrl": "urn:uuid:36ac0096-176b-410a-942f-82bdb0ca0e13",
      "resource": {
        "resourceType": "Observation",
        "id": "36ac0096-176b-410a-942f-82bdb0ca0e13",
        "meta": {
          "profile": [
            "http://hl7.eu/fhir/laboratory/StructureDefinition/Observation-resultslab-eu-lab"
          ]
        },
        "performer": [
          {
            "display": "The Central European Lab"
          }
        ],
        "category": [
          {
            "coding": [
              {
                "system": "http://terminology.hl7.org/CodeSystem/observation-category",
                "code": "laboratory"
              }
            ]
          }
        ],
        "code": {
          "coding": [
            {
              "code": "5803-2",
              "system": "http://loinc.org",
              "display": "pH of Urine by Test strip"
            }
          ],
          "text": "pH of Urine by Test strip"
        },
        "valueQuantity": {
          "system": "http://unitsofmeasure.org",
          "value": 5.5,
          "unit": "pH",
          "code": "pH"
        },
        "referenceRange": [
          {
            "low": {
              "value": 4.6,
              "code": "pH",
              "system": "http://unitsofmeasure.org"
            }
          },
          {
            "high": {
              "value": 7,
              "code": "pH",
              "system": "http://unitsofmeasure.org"
            }
          }
        ],
        "text": {
          "status": "generated",
          "div": "<div xmlns=\"http://www.w3.org/1999/xhtml\"><table class=\"hl7__eu__lab__report\"><tr><th>Test</th><th>08-Feb-2021</th><th>Reference&#xA0;Range</th><th>Unit</th></tr><tr><td>pH of Urine by Test strip</td><td>5.5</td><td>4.6 - 7</td><td></td><td>pH</td></tr></table></div>"
        },
        "status": "final",
        "subject": {
          "reference": "urn:uuid:ee78f6ce-ae43-4fd2-88e0-352b9d2f38f6",
          "display": "Meaghan Neary"
        },
        "effectiveDateTime": "2021-02-08T22:11:04Z",
        "specimen": {
          "reference": "urn:uuid:2166622a-b8fd-4b17-b7e4-9abc2b0a1b2b"
        }
      }
    },
    {
      "fullUrl": "urn:uuid:40f7b055-4ac3-493c-8b2d-dc4d5b386d16",
      "resource": {
        "resourceType": "Observation",
        "id": "40f7b055-4ac3-493c-8b2d-dc4d5b386d16",
        "meta": {
          "profile": [
            "http://hl7.eu/fhir/laboratory/StructureDefinition/Observation-resultslab-eu-lab"
          ]
        },
        "performer": [
          {
            "display": "The Central European Lab"
          }
        ],
        "category": [
          {
            "coding": [
              {
                "system": "http://terminology.hl7.org/CodeSystem/observation-category",
                "code": "laboratory"
              }
            ]
          }
        ],
        "code": {
          "coding": [
            {
              "code": "5804-0",
              "system": "http://loinc.org",
              "display": "Protein [Mass/volume] in Urine by Test strip"
            }
          ],
          "text": "Protein [Mass/volume] in Urine by Test strip"
        },
        "valueQuantity": {
          "system": "http://unitsofmeasure.org",
          "value": 335.5,
          "unit": "mg/dL",
          "code": "mg/dL"
        },
        "referenceRange": [
          {
            "low": {
              "value": 0,
              "code": "mg/dL",
              "system": "http://unitsofmeasure.org"
            }
          },
          {
            "high": {
              "value": 14,
              "code": "mg/dL",
              "system": "http://unitsofmeasure.org"
            }
          }
        ],
        "interpretation": [
          {
            "coding": [
              {
                "code": "H",
                "system": "http://terminology.hl7.org/CodeSystem/v3-ObservationInterpretation",
                "display": "High"
              }
            ]
          }
        ],
        "text": {
          "status": "generated",
          "div": "<div xmlns=\"http://www.w3.org/1999/xhtml\"><table class=\"hl7__eu__lab__report\"><tr><th>Test</th><th>08-Feb-2021</th><th>Reference&#xA0;Range</th><th>Unit</th></tr><tr><td>Protein [Mass/volume] in Urine by Test strip</td><td>335.5</td><td>0 - 14</td><td>H</td><td>mg/dL</td></tr></table></div>"
        },
        "status": "final",
        "subject": {
          "reference": "urn:uuid:ee78f6ce-ae43-4fd2-88e0-352b9d2f38f6",
          "display": "Meaghan Neary"
        },
        "effectiveDateTime": "2021-02-08T22:11:04Z",
        "specimen": {
          "reference": "urn:uuid:2166622a-b8fd-4b17-b7e4-9abc2b0a1b2b"
        }
      }
    },
    {
      "fullUrl": "urn:uuid:82e8b377-bb76-4507-8e14-515c7be02008",
      "resource": {
        "resourceType": "Observation",
        "id": "82e8b377-bb76-4507-8e14-515c7be02008",
        "meta": {
          "profile": [
            "http://hl7.eu/fhir/laboratory/StructureDefinition/Observation-resultslab-eu-lab"
          ]
        },
        "performer": [
          {
            "display": "The Central European Lab"
          }
        ],
        "category": [
          {
            "coding": [
              {
                "system": "http://terminology.hl7.org/CodeSystem/observation-category",
                "code": "laboratory"
              }
            ]
          }
        ],
        "code": {
          "coding": [
            {
              "code": "20454-5",
              "system": "http://loinc.org",
              "display": "Protein [Presence] in Urine by Test strip"
            }
          ],
          "text": "Protein [Presence] in Urine by Test strip"
        },
        "text": {
          "status": "generated",
          "div": "<div xmlns=\"http://www.w3.org/1999/xhtml\"><table class=\"hl7__eu__lab__report\"><tr><th>Test</th><th>08-Feb-2021</th><th>Reference&#xA0;Range</th><th>Unit</th></tr><tr><td>Protein [Presence] in Urine by Test strip</td></tr></table></div>"
        },
        "status": "final",
        "subject": {
          "reference": "urn:uuid:ee78f6ce-ae43-4fd2-88e0-352b9d2f38f6",
          "display": "Meaghan Neary"
        },
        "effectiveDateTime": "2021-02-08T22:11:04Z",
        "specimen": {
          "reference": "urn:uuid:2166622a-b8fd-4b17-b7e4-9abc2b0a1b2b"
        }
      }
    },
    {
      "fullUrl": "urn:uuid:9f417a96-e47f-4bb2-8025-a61b94a8d042",
      "resource": {
        "resourceType": "Observation",
        "id": "9f417a96-e47f-4bb2-8025-a61b94a8d042",
        "meta": {
          "profile": [
            "http://hl7.eu/fhir/laboratory/StructureDefinition/Observation-resultslab-eu-lab"
          ]
        },
        "performer": [
          {
            "display": "The Central European Lab"
          }
        ],
        "category": [
          {
            "coding": [
              {
                "system": "http://terminology.hl7.org/CodeSystem/observation-category",
                "code": "laboratory"
              }
            ]
          }
        ],
        "code": {
          "coding": [
            {
              "code": "5802-4",
              "system": "http://loinc.org",
              "display": "Nitrite [Presence] in Urine by Test strip"
            }
          ],
          "text": "Nitrite [Presence] in Urine by Test strip"
        },
        "text": {
          "status": "generated",
          "div": "<div xmlns=\"http://www.w3.org/1999/xhtml\"><table class=\"hl7__eu__lab__report\"><tr><th>Test</th><th>08-Feb-2021</th><th>Reference&#xA0;Range</th><th>Unit</th></tr><tr><td>Nitrite [Presence] in Urine by Test strip</td></tr></table></div>"
        },
        "status": "final",
        "subject": {
          "reference": "urn:uuid:ee78f6ce-ae43-4fd2-88e0-352b9d2f38f6",
          "display": "Meaghan Neary"
        },
        "effectiveDateTime": "2021-02-08T22:11:04Z",
        "specimen": {
          "reference": "urn:uuid:2166622a-b8fd-4b17-b7e4-9abc2b0a1b2b"
        }
      }
    },
    {
      "fullUrl": "urn:uuid:ffd1d4de-45f0-453c-9827-c04fb08700a5",
      "resource": {
        "resourceType": "Observation",
        "id": "ffd1d4de-45f0-453c-9827-c04fb08700a5",
        "meta": {
          "profile": [
            "http://hl7.eu/fhir/laboratory/StructureDefinition/Observation-resultslab-eu-lab"
          ]
        },
        "performer": [
          {
            "display": "The Central European Lab"
          }
        ],
        "category": [
          {
            "coding": [
              {
                "system": "http://terminology.hl7.org/CodeSystem/observation-category",
                "code": "laboratory"
              }
            ]
          }
        ],
        "code": {
          "coding": [
            {
              "code": "5794-3",
              "system": "http://loinc.org",
              "display": "Hemoglobin [Presence] in Urine by Test strip"
            }
          ],
          "text": "Hemoglobin [Presence] in Urine by Test strip"
        },
        "text": {
          "status": "generated",
          "div": "<div xmlns=\"http://www.w3.org/1999/xhtml\"><table class=\"hl7__eu__lab__report\"><tr><th>Test</th><th>08-Feb-2021</th><th>Reference&#xA0;Range</th><th>Unit</th></tr><tr><td>Hemoglobin [Presence] in Urine by Test strip</td></tr></table></div>"
        },
        "status": "final",
        "subject": {
          "reference": "urn:uuid:ee78f6ce-ae43-4fd2-88e0-352b9d2f38f6",
          "display": "Meaghan Neary"
        },
        "effectiveDateTime": "2021-02-08T22:11:04Z",
        "specimen": {
          "reference": "urn:uuid:2166622a-b8fd-4b17-b7e4-9abc2b0a1b2b"
        }
      }
    },
    {
      "fullUrl": "urn:uuid:fb666f98-ede5-4422-b04c-b2157553d918",
      "resource": {
        "resourceType": "Observation",
        "id": "fb666f98-ede5-4422-b04c-b2157553d918",
        "meta": {
          "profile": [
            "http://hl7.eu/fhir/laboratory/StructureDefinition/Observation-resultslab-eu-lab"
          ]
        },
        "performer": [
          {
            "display": "The Central European Lab"
          }
        ],
        "category": [
          {
            "coding": [
              {
                "system": "http://terminology.hl7.org/CodeSystem/observation-category",
                "code": "laboratory"
              }
            ]
          }
        ],
        "code": {
          "coding": [
            {
              "code": "5799-2",
              "system": "http://loinc.org",
              "display": "Leukocyte esterase [Presence] in Urine by Test strip"
            }
          ],
          "text": "Leukocyte esterase [Presence] in Urine by Test strip"
        },
        "text": {
          "status": "generated",
          "div": "<div xmlns=\"http://www.w3.org/1999/xhtml\"><table class=\"hl7__eu__lab__report\"><tr><th>Test</th><th>08-Feb-2021</th><th>Reference&#xA0;Range</th><th>Unit</th></tr><tr><td>Leukocyte esterase [Presence] in Urine by Test strip</td></tr></table></div>"
        },
        "status": "final",
        "subject": {
          "reference": "urn:uuid:ee78f6ce-ae43-4fd2-88e0-352b9d2f38f6",
          "display": "Meaghan Neary"
        },
        "effectiveDateTime": "2021-02-08T22:11:04Z",
        "specimen": {
          "reference": "urn:uuid:2166622a-b8fd-4b17-b7e4-9abc2b0a1b2b"
        }
      }
    },
    {
      "fullUrl": "urn:uuid:31285715-eee3-4c94-9b79-7cb2fe8ca66b",
      "resource": {
        "resourceType": "Observation",
        "id": "31285715-eee3-4c94-9b79-7cb2fe8ca66b",
        "meta": {
          "profile": [
            "http://hl7.eu/fhir/laboratory/StructureDefinition/Observation-resultslab-eu-lab"
          ]
        },
        "performer": [
          {
            "display": "The Central European Lab"
          }
        ],
        "category": [
          {
            "coding": [
              {
                "system": "http://terminology.hl7.org/CodeSystem/observation-category",
                "code": "laboratory"
              }
            ]
          }
        ],
        "code": {
          "coding": [
            {
              "code": "4548-4",
              "system": "http://loinc.org",
              "display": "Hemoglobin A1c/Hemoglobin.total in Blood"
            }
          ],
          "text": "Hemoglobin A1c/Hemoglobin.total in Blood"
        },
        "valueQuantity": {
          "system": "http://unitsofmeasure.org",
          "value": 3.1,
          "unit": "%",
          "code": "%"
        },
        "referenceRange": [
          {
            "low": {
              "value": 4,
              "code": "%",
              "system": "http://unitsofmeasure.org"
            }
          },
          {
            "high": {
              "value": 6.4,
              "code": "%",
              "system": "http://unitsofmeasure.org"
            }
          }
        ],
        "interpretation": [
          {
            "coding": [
              {
                "code": "L",
                "system": "http://terminology.hl7.org/CodeSystem/v3-ObservationInterpretation",
                "display": "Low"
              }
            ]
          }
        ],
        "text": {
          "status": "generated",
          "div": "<div xmlns=\"http://www.w3.org/1999/xhtml\"><table class=\"hl7__eu__lab__report\"><tr><th>Test</th><th>08-Feb-2021</th><th>Reference&#xA0;Range</th><th>Unit</th></tr><tr><td>Hemoglobin A1c/Hemoglobin.total in Blood</td><td>3.1</td><td>4 - 6.4</td><td>L</td><td>%</td></tr></table></div>"
        },
        "status": "final",
        "subject": {
          "reference": "urn:uuid:ee78f6ce-ae43-4fd2-88e0-352b9d2f38f6",
          "display": "Meaghan Neary"
        },
        "effectiveDateTime": "2021-02-08T22:11:04Z",
        "specimen": {
          "reference": "urn:uuid:e1975a20-c77e-427e-96cb-1809449a5511"
        }
      }
    },
    {
      "fullUrl": "urn:uuid:c4606606-be2a-4ec0-ae04-0058a3467cf5",
      "resource": {
        "resourceType": "Observation",
        "id": "c4606606-be2a-4ec0-ae04-0058a3467cf5",
        "meta": {
          "profile": [
            "http://hl7.eu/fhir/laboratory/StructureDefinition/Observation-resultslab-eu-lab"
          ]
        },
        "performer": [
          {
            "display": "The Central European Lab"
          }
        ],
        "category": [
          {
            "coding": [
              {
                "system": "http://terminology.hl7.org/CodeSystem/observation-category",
                "code": "laboratory"
              }
            ]
          }
        ],
        "code": {
          "coding": [
            {
              "code": "2339-0",
              "system": "http://loinc.org",
              "display": "Glucose [Mass/volume] in Blood"
            }
          ],
          "text": "Glucose [Mass/volume] in Blood"
        },
        "valueQuantity": {
          "system": "http://unitsofmeasure.org",
          "value": 78.3,
          "unit": "mg/dL",
          "code": "mg/dL"
        },
        "referenceRange": [
          {
            "low": {
              "value": 70,
              "code": "mg/dL",
              "system": "http://unitsofmeasure.org"
            }
          },
          {
            "high": {
              "value": 100,
              "code": "mg/dL",
              "system": "http://unitsofmeasure.org"
            }
          }
        ],
        "text": {
          "status": "generated",
          "div": "<div xmlns=\"http://www.w3.org/1999/xhtml\"><table class=\"hl7__eu__lab__report\"><tr><th>Test</th><th>08-Feb-2021</th><th>Reference&#xA0;Range</th><th>Unit</th></tr><tr><td>Glucose [Mass/volume] in Blood</td><td>78.3</td><td>70 - 100</td><td></td><td>mg/dL</td></tr></table></div>"
        },
        "status": "final",
        "subject": {
          "reference": "urn:uuid:ee78f6ce-ae43-4fd2-88e0-352b9d2f38f6",
          "display": "Meaghan Neary"
        },
        "effectiveDateTime": "2021-02-08T22:11:04Z",
        "specimen": {
          "reference": "urn:uuid:e1975a20-c77e-427e-96cb-1809449a5511"
        }
      }
    },
    {
      "fullUrl": "urn:uuid:3619cbdc-326c-46bb-8430-1f50f2055c1d",
      "resource": {
        "resourceType": "Observation",
        "id": "3619cbdc-326c-46bb-8430-1f50f2055c1d",
        "meta": {
          "profile": [
            "http://hl7.eu/fhir/laboratory/StructureDefinition/Observation-resultslab-eu-lab"
          ]
        },
        "performer": [
          {
            "display": "The Central European Lab"
          }
        ],
        "category": [
          {
            "coding": [
              {
                "system": "http://terminology.hl7.org/CodeSystem/observation-category",
                "code": "laboratory"
              }
            ]
          }
        ],
        "code": {
          "coding": [
            {
              "code": "6299-2",
              "system": "http://loinc.org",
              "display": "Urea nitrogen [Mass/volume] in Blood"
            }
          ],
          "text": "Urea nitrogen [Mass/volume] in Blood"
        },
        "valueQuantity": {
          "system": "http://unitsofmeasure.org",
          "value": 15,
          "unit": "mg/dL",
          "code": "mg/dL"
        },
        "referenceRange": [
          {
            "low": {
              "value": 7,
              "code": "mg/dL",
              "system": "http://unitsofmeasure.org"
            }
          },
          {
            "high": {
              "value": 43,
              "code": "mg/dL",
              "system": "http://unitsofmeasure.org"
            }
          }
        ],
        "text": {
          "status": "generated",
          "div": "<div xmlns=\"http://www.w3.org/1999/xhtml\"><table class=\"hl7__eu__lab__report\"><tr><th>Test</th><th>08-Feb-2021</th><th>Reference&#xA0;Range</th><th>Unit</th></tr><tr><td>Urea nitrogen [Mass/volume] in Blood</td><td>15.0</td><td>7 - 43</td><td></td><td>mg/dL</td></tr></table></div>"
        },
        "status": "final",
        "subject": {
          "reference": "urn:uuid:ee78f6ce-ae43-4fd2-88e0-352b9d2f38f6",
          "display": "Meaghan Neary"
        },
        "effectiveDateTime": "2021-02-08T22:11:04Z",
        "specimen": {
          "reference": "urn:uuid:e1975a20-c77e-427e-96cb-1809449a5511"
        }
      }
    },
    {
      "fullUrl": "urn:uuid:befe9584-cfc0-4455-b703-726510853a43",
      "resource": {
        "resourceType": "Observation",
        "id": "befe9584-cfc0-4455-b703-726510853a43",
        "meta": {
          "profile": [
            "http://hl7.eu/fhir/laboratory/StructureDefinition/Observation-resultslab-eu-lab"
          ]
        },
        "performer": [
          {
            "display": "The Central European Lab"
          }
        ],
        "category": [
          {
            "coding": [
              {
                "system": "http://terminology.hl7.org/CodeSystem/observation-category",
                "code": "laboratory"
              }
            ]
          }
        ],
        "code": {
          "coding": [
            {
              "code": "38483-4",
              "system": "http://loinc.org",
              "display": "Creatinine [Mass/volume] in Blood"
            }
          ],
          "text": "Creatinine [Mass/volume] in Blood"
        },
        "valueQuantity": {
          "system": "http://unitsofmeasure.org",
          "value": 4.7,
          "unit": "mg/dL",
          "code": "mg/dL"
        },
        "referenceRange": [
          {
            "low": {
              "value": 0.6,
              "code": "mg/dL",
              "system": "http://unitsofmeasure.org"
            }
          },
          {
            "high": {
              "value": 1.1,
              "code": "mg/dL",
              "system": "http://unitsofmeasure.org"
            }
          }
        ],
        "interpretation": [
          {
            "coding": [
              {
                "code": "H",
                "system": "http://terminology.hl7.org/CodeSystem/v3-ObservationInterpretation",
                "display": "High"
              }
            ]
          }
        ],
        "text": {
          "status": "generated",
          "div": "<div xmlns=\"http://www.w3.org/1999/xhtml\"><table class=\"hl7__eu__lab__report\"><tr><th>Test</th><th>08-Feb-2021</th><th>Reference&#xA0;Range</th><th>Unit</th></tr><tr><td>Creatinine [Mass/volume] in Blood</td><td>4.7</td><td>0.6 - 1.1</td><td>H</td><td>mg/dL</td></tr></table></div>"
        },
        "status": "final",
        "subject": {
          "reference": "urn:uuid:ee78f6ce-ae43-4fd2-88e0-352b9d2f38f6",
          "display": "Meaghan Neary"
        },
        "effectiveDateTime": "2021-02-08T22:11:04Z",
        "specimen": {
          "reference": "urn:uuid:e1975a20-c77e-427e-96cb-1809449a5511"
        }
      }
    },
    {
      "fullUrl": "urn:uuid:a35abbae-7d30-4d10-83f2-455145d1600e",
      "resource": {
        "resourceType": "Observation",
        "id": "a35abbae-7d30-4d10-83f2-455145d1600e",
        "meta": {
          "profile": [
            "http://hl7.eu/fhir/laboratory/StructureDefinition/Observation-resultslab-eu-lab"
          ]
        },
        "performer": [
          {
            "display": "The Central European Lab"
          }
        ],
        "category": [
          {
            "coding": [
              {
                "system": "http://terminology.hl7.org/CodeSystem/observation-category",
                "code": "laboratory"
              }
            ]
          }
        ],
        "code": {
          "coding": [
            {
              "code": "49765-1",
              "system": "http://loinc.org",
              "display": "Calcium [Mass/volume] in Blood"
            }
          ],
          "text": "Calcium [Mass/volume] in Blood"
        },
        "valueQuantity": {
          "system": "http://unitsofmeasure.org",
          "value": 9.8,
          "unit": "mg/dL",
          "code": "mg/dL"
        },
        "referenceRange": [
          {
            "low": {
              "value": 8.5,
              "code": "mg/dL",
              "system": "http://unitsofmeasure.org"
            }
          },
          {
            "high": {
              "value": 10.5,
              "code": "mg/dL",
              "system": "http://unitsofmeasure.org"
            }
          }
        ],
        "text": {
          "status": "generated",
          "div": "<div xmlns=\"http://www.w3.org/1999/xhtml\"><table class=\"hl7__eu__lab__report\"><tr><th>Test</th><th>08-Feb-2021</th><th>Reference&#xA0;Range</th><th>Unit</th></tr><tr><td>Calcium [Mass/volume] in Blood</td><td>9.8</td><td>8.5 - 10.5</td><td></td><td>mg/dL</td></tr></table></div>"
        },
        "status": "final",
        "subject": {
          "reference": "urn:uuid:ee78f6ce-ae43-4fd2-88e0-352b9d2f38f6",
          "display": "Meaghan Neary"
        },
        "effectiveDateTime": "2021-02-08T22:11:04Z",
        "specimen": {
          "reference": "urn:uuid:e1975a20-c77e-427e-96cb-1809449a5511"
        }
      }
    },
    {
      "fullUrl": "urn:uuid:21817de9-4b99-483e-9fc5-88ebc97b44f0",
      "resource": {
        "resourceType": "Observation",
        "id": "21817de9-4b99-483e-9fc5-88ebc97b44f0",
        "meta": {
          "profile": [
            "http://hl7.eu/fhir/laboratory/StructureDefinition/Observation-resultslab-eu-lab"
          ]
        },
        "performer": [
          {
            "display": "The Central European Lab"
          }
        ],
        "category": [
          {
            "coding": [
              {
                "system": "http://terminology.hl7.org/CodeSystem/observation-category",
                "code": "laboratory"
              }
            ]
          }
        ],
        "code": {
          "coding": [
            {
              "code": "2947-0",
              "system": "http://loinc.org",
              "display": "Sodium [Moles/volume] in Blood"
            }
          ],
          "text": "Sodium [Moles/volume] in Blood"
        },
        "valueQuantity": {
          "system": "http://unitsofmeasure.org",
          "value": 138.9,
          "unit": "mmol/L",
          "code": "mmol/L"
        },
        "referenceRange": [
          {
            "low": {
              "value": 135,
              "code": "mmol/L",
              "system": "http://unitsofmeasure.org"
            }
          },
          {
            "high": {
              "value": 145,
              "code": "mmol/L",
              "system": "http://unitsofmeasure.org"
            }
          }
        ],
        "text": {
          "status": "generated",
          "div": "<div xmlns=\"http://www.w3.org/1999/xhtml\"><table class=\"hl7__eu__lab__report\"><tr><th>Test</th><th>08-Feb-2021</th><th>Reference&#xA0;Range</th><th>Unit</th></tr><tr><td>Sodium [Moles/volume] in Blood</td><td>138.9</td><td>135 - 145</td><td></td><td>mmol/L</td></tr></table></div>"
        },
        "status": "final",
        "subject": {
          "reference": "urn:uuid:ee78f6ce-ae43-4fd2-88e0-352b9d2f38f6",
          "display": "Meaghan Neary"
        },
        "effectiveDateTime": "2021-02-08T22:11:04Z",
        "specimen": {
          "reference": "urn:uuid:e1975a20-c77e-427e-96cb-1809449a5511"
        }
      }
    },
    {
      "fullUrl": "urn:uuid:23f09d05-6bd4-4bde-892f-856ebdd8f339",
      "resource": {
        "resourceType": "Observation",
        "id": "23f09d05-6bd4-4bde-892f-856ebdd8f339",
        "meta": {
          "profile": [
            "http://hl7.eu/fhir/laboratory/StructureDefinition/Observation-resultslab-eu-lab"
          ]
        },
        "performer": [
          {
            "display": "The Central European Lab"
          }
        ],
        "category": [
          {
            "coding": [
              {
                "system": "http://terminology.hl7.org/CodeSystem/observation-category",
                "code": "laboratory"
              }
            ]
          }
        ],
        "code": {
          "coding": [
            {
              "code": "6298-4",
              "system": "http://loinc.org",
              "display": "Potassium [Moles/volume] in Blood"
            }
          ],
          "text": "Potassium [Moles/volume] in Blood"
        },
        "valueQuantity": {
          "system": "http://unitsofmeasure.org",
          "value": 4.2,
          "unit": "mmol/L",
          "code": "mmol/L"
        },
        "referenceRange": [
          {
            "low": {
              "value": 3.5,
              "code": "mmol/L",
              "system": "http://unitsofmeasure.org"
            }
          },
          {
            "high": {
              "value": 5.1,
              "code": "mmol/L",
              "system": "http://unitsofmeasure.org"
            }
          }
        ],
        "text": {
          "status": "generated",
          "div": "<div xmlns=\"http://www.w3.org/1999/xhtml\"><table class=\"hl7__eu__lab__report\"><tr><th>Test</th><th>08-Feb-2021</th><th>Reference&#xA0;Range</th><th>Unit</th></tr><tr><td>Potassium [Moles/volume] in Blood</td><td>4.2</td><td>3.5 - 5.1</td><td></td><td>mmol/L</td></tr></table></div>"
        },
        "status": "final",
        "subject": {
          "reference": "urn:uuid:ee78f6ce-ae43-4fd2-88e0-352b9d2f38f6",
          "display": "Meaghan Neary"
        },
        "effectiveDateTime": "2021-02-08T22:11:04Z",
        "specimen": {
          "reference": "urn:uuid:e1975a20-c77e-427e-96cb-1809449a5511"
        }
      }
    },
    {
      "fullUrl": "urn:uuid:404ea2b4-5953-4e4c-bb46-3526735db175",
      "resource": {
        "resourceType": "Observation",
        "id": "404ea2b4-5953-4e4c-bb46-3526735db175",
        "meta": {
          "profile": [
            "http://hl7.eu/fhir/laboratory/StructureDefinition/Observation-resultslab-eu-lab"
          ]
        },
        "performer": [
          {
            "display": "The Central European Lab"
          }
        ],
        "category": [
          {
            "coding": [
              {
                "system": "http://terminology.hl7.org/CodeSystem/observation-category",
                "code": "laboratory"
              }
            ]
          }
        ],
        "code": {
          "coding": [
            {
              "code": "2069-3",
              "system": "http://loinc.org",
              "display": "Chloride [Moles/volume] in Blood"
            }
          ],
          "text": "Chloride [Moles/volume] in Blood"
        },
        "valueQuantity": {
          "system": "http://unitsofmeasure.org",
          "value": 104.3,
          "unit": "mmol/L",
          "code": "mmol/L"
        },
        "referenceRange": [
          {
            "low": {
              "value": 98,
              "code": "mmol/L",
              "system": "http://unitsofmeasure.org"
            }
          },
          {
            "high": {
              "value": 108,
              "code": "mmol/L",
              "system": "http://unitsofmeasure.org"
            }
          }
        ],
        "text": {
          "status": "generated",
          "div": "<div xmlns=\"http://www.w3.org/1999/xhtml\"><table class=\"hl7__eu__lab__report\"><tr><th>Test</th><th>08-Feb-2021</th><th>Reference&#xA0;Range</th><th>Unit</th></tr><tr><td>Chloride [Moles/volume] in Blood</td><td>104.3</td><td>98 - 108</td><td></td><td>mmol/L</td></tr></table></div>"
        },
        "status": "final",
        "subject": {
          "reference": "urn:uuid:ee78f6ce-ae43-4fd2-88e0-352b9d2f38f6",
          "display": "Meaghan Neary"
        },
        "effectiveDateTime": "2021-02-08T22:11:04Z",
        "specimen": {
          "reference": "urn:uuid:e1975a20-c77e-427e-96cb-1809449a5511"
        }
      }
    },
    {
      "fullUrl": "urn:uuid:dbde540c-775d-42b2-a3f8-08239db9a3a9",
      "resource": {
        "resourceType": "Observation",
        "id": "dbde540c-775d-42b2-a3f8-08239db9a3a9",
        "meta": {
          "profile": [
            "http://hl7.eu/fhir/laboratory/StructureDefinition/Observation-resultslab-eu-lab"
          ]
        },
        "performer": [
          {
            "display": "The Central European Lab"
          }
        ],
        "category": [
          {
            "coding": [
              {
                "system": "http://terminology.hl7.org/CodeSystem/observation-category",
                "code": "laboratory"
              }
            ]
          }
        ],
        "code": {
          "coding": [
            {
              "code": "20565-8",
              "system": "http://loinc.org",
              "display": "Carbon dioxide, total [Moles/volume] in Blood"
            }
          ],
          "text": "Carbon dioxide, total [Moles/volume] in Blood"
        },
        "valueQuantity": {
          "system": "http://unitsofmeasure.org",
          "value": 27.4,
          "unit": "mmol/L",
          "code": "mmol/L"
        },
        "referenceRange": [
          {
            "low": {
              "value": 22,
              "code": "mmol/L",
              "system": "http://unitsofmeasure.org"
            }
          },
          {
            "high": {
              "value": 29,
              "code": "mmol/L",
              "system": "http://unitsofmeasure.org"
            }
          }
        ],
        "text": {
          "status": "generated",
          "div": "<div xmlns=\"http://www.w3.org/1999/xhtml\"><table class=\"hl7__eu__lab__report\"><tr><th>Test</th><th>08-Feb-2021</th><th>Reference&#xA0;Range</th><th>Unit</th></tr><tr><td>Carbon dioxide, total [Moles/volume] in Blood</td><td>27.4</td><td>22 - 29</td><td></td><td>mmol/L</td></tr></table></div>"
        },
        "status": "final",
        "subject": {
          "reference": "urn:uuid:ee78f6ce-ae43-4fd2-88e0-352b9d2f38f6",
          "display": "Meaghan Neary"
        },
        "effectiveDateTime": "2021-02-08T22:11:04Z",
        "specimen": {
          "reference": "urn:uuid:e1975a20-c77e-427e-96cb-1809449a5511"
        }
      }
    },
    {
      "fullUrl": "urn:uuid:0b360723-54de-491a-8f5b-5ca389a976ef",
      "resource": {
        "resourceType": "Device",
        "id": "0b360723-54de-491a-8f5b-5ca389a976ef",
        "deviceName": [
          {
            "name": "SYNDERAI Synthetic Generator",
            "type": "manufacturer-name"
          }
        ],
        "version": [
          {
            "value": "5.0"
          }
        ],
        "text": {
          "status": "generated",
          "div": "<div xmlns=\"http://www.w3.org/1999/xhtml\">SYNDERAI Synthetic Generator v5.0</div>"
        },
        "status": "active\"",
        "distinctIdentifier": "synderai-generator-50",
        "manufacturer": "SYNDERAI Project"
      }
    },
    {
      "fullUrl": "urn:uuid:54f18eaf-e97e-4d2b-9f9a-05fe7fff24e9",
      "resource": {
        "resourceType": "Provenance",
        "id": "54f18eaf-e97e-4d2b-9f9a-05fe7fff24e9",
        "target": [
          {
            "reference": "Patient/ee78f6ce-ae43-4fd2-88e0-352b9d2f38f6"
          },
          {
            "reference": "Bundle/1910ca25-93d9-4c90-8fd1-be3a0c786d1e"
          },
          {
            "reference": "Composition/dae750dd-5e54-43f4-984d-8d567c61226e"
          },
          {
            "reference": "PractitionerRole/71d69187-6fcb-486b-b92b-e3736ca9ed94"
          },
          {
            "reference": "Practitioner/2030af68-f6c6-4e89-ae5e-b21ac1f9f6cc"
          },
          {
            "reference": "PractitionerRole/68736bff-6b10-486d-b355-77feb5824340"
          },
          {
            "reference": "Organization/17b9d63c-2366-4cf9-8af4-8b2ac95267a5"
          }
        ],
        "activity": {
          "text": "Synthetic Example Data Generation"
        },
        "policy": [
          "https://synderai.net/synderai-synthetic-data-policy"
        ],
        "agent": [
          {
            "type": {
              "text": "author"
            },
            "who": {
              "reference": "Device/0b360723-54de-491a-8f5b-5ca389a976ef"
            }
          }
        ],
        "reason": [
          {
            "text": "Interoperability Testing and Training (non-clinical use)"
          }
        ],
        "text": {
          "status": "generated",
          "div": "<div xmlns=\"http://www.w3.org/1999/xhtml\">Provenance for SYNDERAI Synthetic Example Data Resource</div>"
        },
        "recorded": "2021-02-08T23:11:04Z"
      }
    },
    {
      "fullUrl": "urn:uuid:71d69187-6fcb-486b-b92b-e3736ca9ed94",
      "resource": {
        "resourceType": "PractitionerRole",
        "id": "71d69187-6fcb-486b-b92b-e3736ca9ed94",
        "meta": {
          "profile": [
            "http://hl7.eu/fhir/base/StructureDefinition/practitionerRole-eu"
          ]
        },
        "text": {
          "status": "generated",
          "div": "<div xmlns=\"http://www.w3.org/1999/xhtml\">Laboratory Role Id: 71d69187-6fcb-486b-b92b-e3736ca9ed94</div>"
        },
        "practitioner": {
          "reference": "urn:uuid:2030af68-f6c6-4e89-ae5e-b21ac1f9f6cc"
        }
      }
    },
    {
      "fullUrl": "urn:uuid:2030af68-f6c6-4e89-ae5e-b21ac1f9f6cc",
      "resource": {
        "resourceType": "Practitioner",
        "id": "2030af68-f6c6-4e89-ae5e-b21ac1f9f6cc",
        "meta": {
          "profile": [
            "http://hl7.eu/fhir/base/StructureDefinition/practitioner-eu"
          ]
        },
        "identifier": [
          {
            "assigner": {
              "display": "HL7 Europe"
            },
            "system": "urn:oid:2.16.840.1.113883.2.51.999",
            "value": "ef086f30-da67-4d95-bf94-1143ea031d9b"
          }
        ],
        "name": [
          {
            "prefix": [
              "dr"
            ],
            "given": [
              "Ex"
            ],
            "family": "Ample"
          }
        ],
        "address": [
          {
            "line": [
              "Laboratoire Central Européenne",
              "Boulevard du Jardin Botanique 32"
            ],
            "postalCode": "1000",
            "city": "Brussels",
            "country": "Belgium"
          }
        ],
        "text": {
          "status": "generated",
          "div": "<div xmlns=\"http://www.w3.org/1999/xhtml\">Laboratory: Laboratoire Central Européenne, 1000 Brussels, Belgium</div>"
        }
      }
    }
  ],
  "type": "document",
  "timestamp": "2021-02-08T23:11:04Z"
}
