{
  "resourceType": "Bundle",
  "id": "120ef862-5e0a-4bfc-af4c-6c375bb26189",
  "meta": {
    "profile": [
      "http://hl7.eu/fhir/laboratory/StructureDefinition/Bundle-eu-lab"
    ]
  },
  "identifier": {
    "assigner": {
      "display": "HL7 Europe"
    },
    "system": "urn:oid:2.16.840.1.113883.2.51.999",
    "value": "89469c31-4d90-4a84-974e-1bc443c2ce73"
  },
  "entry": [
    {
      "fullUrl": "urn:uuid:a8c2d1d7-0c56-4b7d-a727-603d8433d9b3",
      "resource": {
        "resourceType": "Composition",
        "id": "a8c2d1d7-0c56-4b7d-a727-603d8433d9b3",
        "meta": {
          "profile": [
            "http://hl7.eu/fhir/laboratory/StructureDefinition/Composition-eu-lab"
          ]
        },
        "identifier": {
          "assigner": {
            "display": "HL7 Europe"
          },
          "system": "urn:oid:2.16.840.1.113883.2.51.999",
          "value": "f8263206-e10c-41b2-800e-2a82e7747672"
        },
        "author": [
          {
            "reference": "urn:uuid:6959ece8-e35c-427e-8d5a-d8cdeddff095"
          }
        ],
        "category": [
          {
            "coding": [
              {
                "code": "26436-6",
                "system": "http://loinc.org",
                "display": "Laboratory studies (set)"
              }
            ]
          }
        ],
        "type": {
          "coding": [
            {
              "code": "11502-2",
              "system": "http://loinc.org",
              "display": "Laboratory report"
            }
          ],
          "text": "Laboratory Report"
        },
        "section": [
          {
            "code": {
              "coding": [
                {
                  "code": "26436-6",
                  "system": "http://loinc.org",
                  "display": "Laboratory studies (set)"
                }
              ],
              "text": "Laboratory studies"
            },
            "section": [
              {
                "code": {
                  "coding": [
                    {
                      "code": "$18719-5",
                      "system": "http://loinc.org",
                      "display": "Chemistry studies (set)"
                    }
                  ],
                  "text": "Chemistry"
                },
                "entry": [
                  {
                    "reference": "urn:uuid:a93b81a6-eda9-4635-8004-5902e6cc233b"
                  },
                  {
                    "reference": "urn:uuid:a7937d68-bf5a-479c-a874-907670abedd0"
                  },
                  {
                    "reference": "urn:uuid:21d2e71b-5a30-424c-90b3-8c921b38be07"
                  },
                  {
                    "reference": "urn:uuid:c550eb8e-eaea-4886-9d7a-e6911e7e1000"
                  },
                  {
                    "reference": "urn:uuid:ed2d861f-bd1a-4b17-9130-689810573568"
                  },
                  {
                    "reference": "urn:uuid:b130a76e-8cff-4c87-8c47-8f4553869bf5"
                  },
                  {
                    "reference": "urn:uuid:cc0f4c1f-aead-41a1-bc7f-29f72d4b2ab4"
                  },
                  {
                    "reference": "urn:uuid:10177c2b-a8e2-465b-a866-e7d05b882ca7"
                  },
                  {
                    "reference": "urn:uuid:9a423d1e-f15b-48c2-8d9a-af30422368dd"
                  },
                  {
                    "reference": "urn:uuid:a6b107b8-dbe4-4553-8fba-9e9e37d791e4"
                  }
                ],
                "text": {
                  "status": "generated",
                  "div": "<div xmlns=\"http://www.w3.org/1999/xhtml\"><h3>Chemistry</h3><table class=\"hl7__eu__lab__report\"><thead><tr><th>Test</th><th>04-DEC-2015</th><th>Reference&#xA0;Range</th><th>Unit</th></tr></thead><tbody><tr><td>Glucose [Mass/volume] in Serum or Plasma</td><td>95.2</td><td>70 - 140</td><td>mg/dL</td></tr><tr><td>Urea nitrogen [Mass/volume] in Serum or Plasma</td><td>18.3</td><td>7 - 20</td><td>mg/dL</td></tr><tr><td>Creatinine [Mass/volume] in Serum or Plasma</td><td><strong>1.9 H</strong></td><td>0.9 - 1.3</td><td>mg/dL</td></tr><tr><td>Calcium [Mass/volume] in Serum or Plasma</td><td>9.5</td><td>8.5 - 10.5</td><td>mg/dL</td></tr><tr><td>Sodium [Moles/volume] in Serum or Plasma</td><td>137.9</td><td>135 - 145</td><td>mmol/L</td></tr><tr><td>Potassium [Moles/volume] in Serum or Plasma</td><td>4.5</td><td>3.5 - 5.3</td><td>mmol/L</td></tr><tr><td>Chloride [Moles/volume] in Serum or Plasma</td><td>105.5</td><td>98 - 107</td><td>mmol/L</td></tr><tr><td>Carbon dioxide, total [Moles/volume] in Serum or Plasma</td><td><strong>20.5 L</strong></td><td>22 - 33</td><td>mmol/L</td></tr><tr><td>Ketones [Presence] in Urine by Test strip</td><td>Urine ketone test = +</td><td></td><td></td></tr><tr><td>Hemoglobin A1c/Hemoglobin.total in Blood</td><td><strong>3.3 L</strong></td><td>4.3 - 6</td><td>%</td></tr></tbody></table></div>"
                },
                "title": "Chemistry"
              },
              {
                "code": {
                  "coding": [
                    {
                      "code": "$18729-4",
                      "system": "http://loinc.org",
                      "display": "Urinalysis studies (set)"
                    }
                  ],
                  "text": "Urinalysis"
                },
                "entry": [
                  {
                    "reference": "urn:uuid:0044007d-5bad-4985-891a-8687fc08ea37"
                  },
                  {
                    "reference": "urn:uuid:056566bc-0725-4f8c-838a-bff621789e43"
                  },
                  {
                    "reference": "urn:uuid:cbfd3ae4-a294-4d7c-9fd1-d892c4b04182"
                  },
                  {
                    "reference": "urn:uuid:b10a4259-dead-48d5-9d72-9e4ddb0f9f43"
                  },
                  {
                    "reference": "urn:uuid:75e86445-3115-4d7b-bafc-2318d9236bf9"
                  },
                  {
                    "reference": "urn:uuid:1cecdd98-6202-488e-8861-48236a1a83e7"
                  },
                  {
                    "reference": "urn:uuid:d80b1777-8647-459d-b9cf-955febe3de31"
                  },
                  {
                    "reference": "urn:uuid:2c212698-8a90-424b-87e4-5c7a3396c084"
                  },
                  {
                    "reference": "urn:uuid:d3ed4fc2-5909-4f57-9c15-f4dd88faa8e8"
                  },
                  {
                    "reference": "urn:uuid:548063ac-8aa9-4f3c-a766-9f500a6d833f"
                  },
                  {
                    "reference": "urn:uuid:a4042ef8-0f1b-4d53-af63-6cd856b30eae"
                  },
                  {
                    "reference": "urn:uuid:ba6ada15-2157-4fc3-ab0a-c5d7b83bd59e"
                  }
                ],
                "text": {
                  "status": "generated",
                  "div": "<div xmlns=\"http://www.w3.org/1999/xhtml\"><h3>Urinalysis</h3><table class=\"hl7__eu__lab__report\"><thead><tr><th>Test</th><th>04-DEC-2015</th><th>Reference&#xA0;Range</th><th>Unit</th></tr></thead><tbody><tr><td>Glucose [Mass/volume] in Urine by Test strip</td><td><strong>2.4 H</strong></td><td>0 - 0.8</td><td>mg/dL</td></tr><tr><td>Glucose [Presence] in Urine by Test strip</td><td>++</td><td></td><td></td></tr><tr><td>Bilirubin.total [Mass/volume] in Urine by Test strip</td><td>1.4</td><td>0 - 1.9</td><td>mg/dL</td></tr><tr><td>Bilirubin.total [Presence] in Urine by Test strip</td><td>Finding of bilirubin in urine</td><td></td><td></td></tr><tr><td>Ketones [Mass/volume] in Urine by Test strip</td><td><strong>3.3 H</strong></td><td>0 - 3</td><td>mg/dL</td></tr><tr><td>Specific gravity of Urine by Test strip</td><td><strong>1.0 L</strong></td><td>1.01 - 1.03</td><td>{nominal}</td></tr><tr><td>pH of Urine by Test strip</td><td>6.1</td><td>4.5 - 7.5</td><td>pH</td></tr><tr><td>Protein [Mass/volume] in Urine by Test strip</td><td><strong>345.2 H</strong></td><td>0 - 149</td><td>mg/dL</td></tr><tr><td>Protein [Presence] in Urine by Test strip</td><td>Urine protein test = ++</td><td></td><td></td></tr><tr><td>Nitrite [Presence] in Urine by Test strip</td><td>Urine nitrite negative</td><td></td><td></td></tr><tr><td>Hemoglobin [Presence] in Urine by Test strip</td><td>Urine blood test = negative</td><td></td><td></td></tr><tr><td>Leukocyte esterase [Presence] in Urine by Test strip</td><td>Urine leukocyte test negative</td><td></td><td></td></tr></tbody></table></div>"
                },
                "title": "Urinalysis"
              },
              {
                "code": {
                  "coding": [
                    {
                      "code": "$LP7846-1",
                      "system": "http://loinc.org",
                      "display": "Specimen information"
                    }
                  ],
                  "text": "Specimen information"
                },
                "entry": [
                  {
                    "reference": "urn:uuid:7f5629fc-2b34-48c7-ba45-a0b5b2e396f4"
                  },
                  {
                    "reference": "urn:uuid:1fef2780-bac5-4bb9-96a4-ee558c97d27d"
                  },
                  {
                    "reference": "urn:uuid:b80907bd-f1b8-45bf-9712-0cfe102703fb"
                  },
                  {
                    "reference": "urn:uuid:c158580f-8a78-4d91-bf3d-81421080aa46"
                  }
                ],
                "text": {
                  "status": "generated",
                  "div": "<div xmlns=\"http://www.w3.org/1999/xhtml\"><h3>Specimen information</h3><table class=\"hl7__eu__lab__report\"><thead><tr><th>Test</th><th>04-DEC-2015</th><th>Specimen</th><th></th></tr></thead><tbody><tr><td>Appearance of Urine</td><td>Cloudy urine</td><td>Urine</td><td></td></tr><tr><td>Odor of Urine</td><td>Urine smell ammoniacal</td><td>Urine</td><td></td></tr><tr><td>Clarity of Urine</td><td>Translucent</td><td>Urine</td><td></td></tr><tr><td>Color of Urine</td><td>Brown color</td><td>Urine</td><td></td></tr></tbody></table></div>"
                },
                "title": "Specimen information"
              }
            ],
            "title": "Laboratory Report"
          },
          {
            "text": {
              "status": "generated",
              "div": "<div xmlns=\"http://www.w3.org/1999/xhtml\"><h3>Annotation</h3><table class=\"hl7__eu__lab__report\"><tr><th>Conclusion and Recommendations based on this report and previous findings known to us</th></tr><tr><td>The patient shows mildly elevated serum creatinine, suggesting possible renal impairment. Urinalysis reveals proteinuria, glucosuria, ketonuria, low specific gravity, and abnormal urine appearance, indicating possible tubular dysfunction or diabetic nephropathy, though HbA1c is low. Low total CO₂ may suggest mild metabolic acidosis. No evidence of urinary infection. Recommend further renal evaluation and clinical correlation for possible underlying metabolic or renal pathology.</td></tr></table></div>"
            },
            "code": {
              "coding": [
                {
                  "system": "http://loinc.org",
                  "code": "48767-8",
                  "display": "Annotation comment"
                }
              ]
            },
            "title": "Annotation comment"
          }
        ],
        "status": "final",
        "subject": {
          "reference": "urn:uuid:36a67d81-b9c4-41ab-8718-11f0b336a2a5",
          "display": "Victor Lagarde"
        },
        "date": "2015-12-04T05:48:18Z",
        "title": "Laboratory Report",
        "confidentiality": "N"
      }
    },
    {
      "fullUrl": "urn:uuid:1141245d-dd6f-4b77-b2ef-1d4747e10bde",
      "resource": {
        "resourceType": "DiagnosticReport",
        "id": "1141245d-dd6f-4b77-b2ef-1d4747e10bde",
        "meta": {
          "profile": [
            "http://hl7.eu/fhir/laboratory/StructureDefinition/DiagnosticReport-eu-lab"
          ]
        },
        "identifier": [
          {
            "assigner": {
              "display": "HL7 Europe"
            },
            "system": "urn:oid:2.16.840.1.113883.2.51.999",
            "value": "4e1f8066-40de-4113-81b3-569d6ed1eda7"
          }
        ],
        "extension": [
          {
            "url": "http://hl7.org/fhir/5.0/StructureDefinition/extension-DiagnosticReport.composition",
            "valueReference": {
              "reference": "urn:uuid:f8263206-e10c-41b2-800e-2a82e7747672"
            }
          }
        ],
        "category": [
          {
            "coding": [
              {
                "code": "26436-6",
                "system": "http://loinc.org",
                "display": "Laboratory studies (set)"
              }
            ]
          }
        ],
        "specimen": [
          {
            "reference": "urn:uuid:65b5d533-40f7-4c72-b6d2-1ea044fd9eaf"
          },
          {
            "reference": "urn:uuid:6a0d16b2-75e6-4bfe-b6d1-ccfa2013be64"
          },
          {
            "reference": "urn:uuid:38bf71b2-a101-4363-8b0f-a9bcdbfe06a4"
          }
        ],
        "result": [
          {
            "reference": "urn:uuid:a93b81a6-eda9-4635-8004-5902e6cc233b"
          },
          {
            "reference": "urn:uuid:a7937d68-bf5a-479c-a874-907670abedd0"
          },
          {
            "reference": "urn:uuid:21d2e71b-5a30-424c-90b3-8c921b38be07"
          },
          {
            "reference": "urn:uuid:c550eb8e-eaea-4886-9d7a-e6911e7e1000"
          },
          {
            "reference": "urn:uuid:ed2d861f-bd1a-4b17-9130-689810573568"
          },
          {
            "reference": "urn:uuid:b130a76e-8cff-4c87-8c47-8f4553869bf5"
          },
          {
            "reference": "urn:uuid:cc0f4c1f-aead-41a1-bc7f-29f72d4b2ab4"
          },
          {
            "reference": "urn:uuid:10177c2b-a8e2-465b-a866-e7d05b882ca7"
          },
          {
            "reference": "urn:uuid:7f5629fc-2b34-48c7-ba45-a0b5b2e396f4"
          },
          {
            "reference": "urn:uuid:1fef2780-bac5-4bb9-96a4-ee558c97d27d"
          },
          {
            "reference": "urn:uuid:b80907bd-f1b8-45bf-9712-0cfe102703fb"
          },
          {
            "reference": "urn:uuid:c158580f-8a78-4d91-bf3d-81421080aa46"
          },
          {
            "reference": "urn:uuid:0044007d-5bad-4985-891a-8687fc08ea37"
          },
          {
            "reference": "urn:uuid:056566bc-0725-4f8c-838a-bff621789e43"
          },
          {
            "reference": "urn:uuid:cbfd3ae4-a294-4d7c-9fd1-d892c4b04182"
          },
          {
            "reference": "urn:uuid:b10a4259-dead-48d5-9d72-9e4ddb0f9f43"
          },
          {
            "reference": "urn:uuid:75e86445-3115-4d7b-bafc-2318d9236bf9"
          },
          {
            "reference": "urn:uuid:9a423d1e-f15b-48c2-8d9a-af30422368dd"
          },
          {
            "reference": "urn:uuid:1cecdd98-6202-488e-8861-48236a1a83e7"
          },
          {
            "reference": "urn:uuid:d80b1777-8647-459d-b9cf-955febe3de31"
          },
          {
            "reference": "urn:uuid:2c212698-8a90-424b-87e4-5c7a3396c084"
          },
          {
            "reference": "urn:uuid:d3ed4fc2-5909-4f57-9c15-f4dd88faa8e8"
          },
          {
            "reference": "urn:uuid:548063ac-8aa9-4f3c-a766-9f500a6d833f"
          },
          {
            "reference": "urn:uuid:a4042ef8-0f1b-4d53-af63-6cd856b30eae"
          },
          {
            "reference": "urn:uuid:ba6ada15-2157-4fc3-ab0a-c5d7b83bd59e"
          },
          {
            "reference": "urn:uuid:a6b107b8-dbe4-4553-8fba-9e9e37d791e4"
          }
        ],
        "status": "registered",
        "code": {
          "coding": [
            {
              "code": "11502-2",
              "system": "http://loinc.org",
              "display": "Laboratory report"
            }
          ]
        },
        "subject": {
          "reference": "urn:uuid:36a67d81-b9c4-41ab-8718-11f0b336a2a5",
          "display": "Victor Lagarde"
        }
      }
    },
    {
      "fullUrl": "urn:uuid:36a67d81-b9c4-41ab-8718-11f0b336a2a5",
      "resource": {
        "resourceType": "Patient",
        "id": "36a67d81-b9c4-41ab-8718-11f0b336a2a5",
        "meta": {
          "security": [
            {
              "system": "http://terminology.hl7.org/CodeSystem/v3-ActReason",
              "code": "HTEST"
            },
            {
              "system": "http://terminology.hl7.org/CodeSystem/v3-ActReason",
              "code": "TRAIN"
            }
          ],
          "tag": [
            {
              "system": "https://synderai.net/fhir/CodeSystem/tags",
              "code": "synthetic",
              "display": "SYNDERAI Synthetic data"
            }
          ],
          "profile": [
            "http://hl7.eu/fhir/base/StructureDefinition/patient-eu-core"
          ]
        },
        "identifier": [
          {
            "type": {
              "coding": [
                {
                  "code": "PT",
                  "system": "http://terminology.hl7.org/CodeSystem/v2-0203"
                }
              ]
            },
            "system": "http://ec.europa.eu/identifier/eci",
            "value": "9925-001801-9"
          },
          {
            "type": {
              "coding": [
                {
                  "code": "MR",
                  "system": "http://terminology.hl7.org/CodeSystem/v2-0203"
                }
              ]
            },
            "system": "http://local.setting.eu/identifier",
            "value": "22c2dfd0-ac57-8833-2532-848f180896a4"
          }
        ],
        "name": [
          {
            "family": "Lagarde"
          },
          {
            "given": [
              "Victor"
            ]
          },
          {
            "text": "Victor Lagarde"
          }
        ],
        "address": [
          {
            "line": [
              "avenue Robert"
            ],
            "use": "home",
            "type": "physical",
            "postalCode": "80300",
            "city": "Albert",
            "country": "France"
          }
        ],
        "telecom": [
          {
            "system": "phone",
            "value": "0177941801"
          }
        ],
        "extension": [
          {
            "url": "http://hl7.org/fhir/StructureDefinition/patient-nationality",
            "valueCodeableConcept": {
              "coding": [
                {
                  "code": "FR",
                  "system": "http://hl7.org/fhir/ValueSet/country"
                }
              ]
            }
          }
        ],
        "text": {
          "status": "generated",
          "div": "<div xmlns=\"http://www.w3.org/1999/xhtml\"><table class=\"hl7__ips\"><tr><td>Victor Lagarde</td><td>male</td><td>31-Aug-1939</td></tr></table></div>"
        },
        "gender": "male",
        "birthDate": "1939-08-31"
      }
    },
    {
      "fullUrl": "urn:uuid:2c4e0a64-51ed-4cff-a761-a5af8cd7861e",
      "resource": {
        "resourceType": "ServiceRequest",
        "id": "2c4e0a64-51ed-4cff-a761-a5af8cd7861e",
        "meta": {
          "profile": [
            "http://hl7.eu/fhir/laboratory/StructureDefinition/ServiceRequest-eu-lab"
          ]
        },
        "identifier": [
          {
            "system": "http://example.org",
            "value": "bcbea256-01ce-4700-8819-88ee65d48106"
          }
        ],
        "specimen": [
          {
            "reference": "urn:uuid:65b5d533-40f7-4c72-b6d2-1ea044fd9eaf"
          },
          {
            "reference": "urn:uuid:6a0d16b2-75e6-4bfe-b6d1-ccfa2013be64"
          },
          {
            "reference": "urn:uuid:38bf71b2-a101-4363-8b0f-a9bcdbfe06a4"
          }
        ],
        "reasonCode": [
          {
            "coding": [
              {
                "code": "433144002",
                "system": "http://snomed.info/sct",
                "display": "Chronic kidney disease stage 3"
              }
            ]
          },
          {
            "coding": [
              {
                "code": "157141000119108",
                "system": "http://snomed.info/sct",
                "display": "Proteinuria due to type 2 diabetes mellitus"
              }
            ]
          },
          {
            "coding": [
              {
                "code": "431856006",
                "system": "http://snomed.info/sct",
                "display": "Chronic kidney disease stage 2"
              }
            ]
          },
          {
            "coding": [
              {
                "code": "90781000119102",
                "system": "http://snomed.info/sct",
                "display": "Microalbuminuria due to type 2 diabetes mellitus"
              }
            ]
          },
          {
            "coding": [
              {
                "code": "127013003",
                "system": "http://snomed.info/sct",
                "display": "Disorder of kidney due to diabetes mellitus"
              }
            ]
          },
          {
            "coding": [
              {
                "code": "431855005",
                "system": "http://snomed.info/sct",
                "display": "Chronic kidney disease stage 1"
              }
            ]
          },
          {
            "coding": [
              {
                "code": "55822004",
                "system": "http://snomed.info/sct",
                "display": "Hyperlipidemia"
              }
            ]
          },
          {
            "coding": [
              {
                "code": "59621000",
                "system": "http://snomed.info/sct",
                "display": "Essential hypertension"
              }
            ]
          },
          {
            "coding": [
              {
                "code": "237602007",
                "system": "http://snomed.info/sct",
                "display": "Metabolic syndrome X"
              }
            ]
          },
          {
            "coding": [
              {
                "code": "414545008",
                "system": "http://snomed.info/sct",
                "display": "Ischemic heart disease"
              }
            ]
          },
          {
            "coding": [
              {
                "code": "40055000",
                "system": "http://snomed.info/sct",
                "display": "Chronic sinusitis"
              }
            ]
          },
          {
            "coding": [
              {
                "code": "15777000",
                "system": "http://snomed.info/sct",
                "display": "Prediabetes"
              }
            ]
          },
          {
            "coding": [
              {
                "code": "271737000",
                "system": "http://snomed.info/sct",
                "display": "Anemia"
              }
            ]
          }
        ],
        "status": "active",
        "intent": "order",
        "code": {
          "coding": [
            {
              "code": "108252007",
              "system": "http://snomed.info/sct",
              "display": "Laboratory procedure"
            }
          ]
        },
        "subject": {
          "reference": "urn:uuid:36a67d81-b9c4-41ab-8718-11f0b336a2a5",
          "display": "Victor Lagarde"
        },
        "requester": {
          "reference": "urn:uuid:67b2a461-22ef-4938-85dc-d56e303b4707"
        }
      }
    },
    {
      "fullUrl": "urn:uuid:67b2a461-22ef-4938-85dc-d56e303b4707",
      "resource": {
        "resourceType": "PractitionerRole",
        "id": "67b2a461-22ef-4938-85dc-d56e303b4707",
        "meta": {
          "profile": [
            "http://hl7.eu/fhir/base/StructureDefinition/practitionerRole-eu"
          ]
        },
        "text": {
          "status": "generated",
          "div": "<div xmlns=\"http://www.w3.org/1999/xhtml\">Provider Role Id: 67b2a461-22ef-4938-85dc-d56e303b4707</div>"
        },
        "organization": {
          "reference": "urn:uuid:7865fdbd-e238-4247-8f19-8cca074abe38"
        }
      }
    },
    {
      "fullUrl": "urn:uuid:7865fdbd-e238-4247-8f19-8cca074abe38",
      "resource": {
        "resourceType": "Organization",
        "id": "7865fdbd-e238-4247-8f19-8cca074abe38",
        "meta": {
          "profile": [
            "http://hl7.eu/fhir/base/StructureDefinition/organization-eu"
          ]
        },
        "identifier": [
          {
            "assigner": {
              "display": "HL7 Europe"
            },
            "system": "urn:oid:2.16.840.1.113883.2.51.999",
            "value": "efaaeddf-f951-4f75-ae87-0010bb40729a"
          }
        ],
        "address": [
          {
            "city": "Auxerre",
            "postalCode": "89000",
            "country": "France"
          }
        ],
        "text": {
          "status": "generated",
          "div": "<div xmlns=\"http://www.w3.org/1999/xhtml\">Provider Organization: Thiriot Didier (Cardiologie)</div>"
        },
        "name": "Thiriot Didier (Cardiologie)"
      }
    },
    {
      "fullUrl": "urn:uuid:65b5d533-40f7-4c72-b6d2-1ea044fd9eaf",
      "resource": {
        "resourceType": "Specimen",
        "id": "65b5d533-40f7-4c72-b6d2-1ea044fd9eaf",
        "meta": {
          "profile": [
            "http://hl7.eu/fhir/laboratory/StructureDefinition/Specimen-eu-lab"
          ]
        },
        "collection": {
          "collectedDateTime": "2015-12-04"
        },
        "text": {
          "status": "generated",
          "div": "<div xmlns=\"http://www.w3.org/1999/xhtml\"><table class=\"hl7__eu__lab__report\"><tr><th>Specimen</th><th>Collection Date</th></tr><tr><td>Acellular blood (serum or plasma) specimen</td><td><span class=\"nb\">04-Dec-2015</span></td></tr></table></div>"
        },
        "type": {
          "coding": [
            {
              "code": "122592007",
              "system": "http://snomed.info/sct",
              "display": "Acellular blood (serum or plasma) specimen"
            }
          ]
        }
      }
    },
    {
      "fullUrl": "urn:uuid:6a0d16b2-75e6-4bfe-b6d1-ccfa2013be64",
      "resource": {
        "resourceType": "Specimen",
        "id": "6a0d16b2-75e6-4bfe-b6d1-ccfa2013be64",
        "meta": {
          "profile": [
            "http://hl7.eu/fhir/laboratory/StructureDefinition/Specimen-eu-lab"
          ]
        },
        "collection": {
          "collectedDateTime": "2015-12-04"
        },
        "text": {
          "status": "generated",
          "div": "<div xmlns=\"http://www.w3.org/1999/xhtml\"><table class=\"hl7__eu__lab__report\"><tr><th>Specimen</th><th>Collection Date</th></tr><tr><td>Urine specimen</td><td><span class=\"nb\">04-Dec-2015</span></td></tr></table></div>"
        },
        "type": {
          "coding": [
            {
              "code": "122575003",
              "system": "http://snomed.info/sct",
              "display": "Urine specimen"
            }
          ]
        }
      }
    },
    {
      "fullUrl": "urn:uuid:38bf71b2-a101-4363-8b0f-a9bcdbfe06a4",
      "resource": {
        "resourceType": "Specimen",
        "id": "38bf71b2-a101-4363-8b0f-a9bcdbfe06a4",
        "meta": {
          "profile": [
            "http://hl7.eu/fhir/laboratory/StructureDefinition/Specimen-eu-lab"
          ]
        },
        "collection": {
          "collectedDateTime": "2015-12-04"
        },
        "text": {
          "status": "generated",
          "div": "<div xmlns=\"http://www.w3.org/1999/xhtml\"><table class=\"hl7__eu__lab__report\"><tr><th>Specimen</th><th>Collection Date</th></tr><tr><td>Whole blood specimen (specimen)</td><td><span class=\"nb\">04-Dec-2015</span></td></tr></table></div>"
        },
        "type": {
          "coding": [
            {
              "code": "258580003",
              "system": "http://snomed.info/sct",
              "display": "Whole blood specimen (specimen)"
            }
          ]
        }
      }
    },
    {
      "fullUrl": "urn:uuid:a93b81a6-eda9-4635-8004-5902e6cc233b",
      "resource": {
        "resourceType": "Observation",
        "id": "a93b81a6-eda9-4635-8004-5902e6cc233b",
        "meta": {
          "profile": [
            "http://hl7.eu/fhir/laboratory/StructureDefinition/Observation-resultslab-eu-lab"
          ]
        },
        "performer": [
          {
            "display": "The Central European Lab"
          }
        ],
        "category": [
          {
            "coding": [
              {
                "system": "http://terminology.hl7.org/CodeSystem/observation-category",
                "code": "laboratory"
              }
            ]
          }
        ],
        "code": {
          "coding": [
            {
              "code": "2345-7",
              "system": "http://loinc.org",
              "display": "Glucose [Mass/volume] in Serum or Plasma"
            }
          ],
          "text": "Glucose [Mass/volume] in Serum or Plasma"
        },
        "valueQuantity": {
          "system": "http://unitsofmeasure.org",
          "value": 95.2,
          "unit": "mg/dL",
          "code": "mg/dL"
        },
        "referenceRange": [
          {
            "low": {
              "value": 70,
              "code": "mg/dL",
              "system": "http://unitsofmeasure.org"
            }
          },
          {
            "high": {
              "value": 140,
              "code": "mg/dL",
              "system": "http://unitsofmeasure.org"
            }
          }
        ],
        "text": {
          "status": "generated",
          "div": "<div xmlns=\"http://www.w3.org/1999/xhtml\"><table class=\"hl7__eu__lab__report\"><tr><th>Test</th><th>04-Dec-2015</th><th>Reference&#xA0;Range</th><th>Unit</th></tr><tr><td>Glucose [Mass/volume] in Serum or Plasma</td><td>95.2</td><td>70 - 140</td><td></td><td>mg/dL</td></tr></table></div>"
        },
        "status": "final",
        "subject": {
          "reference": "urn:uuid:36a67d81-b9c4-41ab-8718-11f0b336a2a5",
          "display": "Victor Lagarde"
        },
        "effectiveDateTime": "2015-12-04T04:48:18Z",
        "specimen": {
          "reference": "urn:uuid:65b5d533-40f7-4c72-b6d2-1ea044fd9eaf"
        }
      }
    },
    {
      "fullUrl": "urn:uuid:a7937d68-bf5a-479c-a874-907670abedd0",
      "resource": {
        "resourceType": "Observation",
        "id": "a7937d68-bf5a-479c-a874-907670abedd0",
        "meta": {
          "profile": [
            "http://hl7.eu/fhir/laboratory/StructureDefinition/Observation-resultslab-eu-lab"
          ]
        },
        "performer": [
          {
            "display": "The Central European Lab"
          }
        ],
        "category": [
          {
            "coding": [
              {
                "system": "http://terminology.hl7.org/CodeSystem/observation-category",
                "code": "laboratory"
              }
            ]
          }
        ],
        "code": {
          "coding": [
            {
              "code": "3094-0",
              "system": "http://loinc.org",
              "display": "Urea nitrogen [Mass/volume] in Serum or Plasma"
            }
          ],
          "text": "Urea nitrogen [Mass/volume] in Serum or Plasma"
        },
        "valueQuantity": {
          "system": "http://unitsofmeasure.org",
          "value": 18.3,
          "unit": "mg/dL",
          "code": "mg/dL"
        },
        "referenceRange": [
          {
            "low": {
              "value": 7,
              "code": "mg/dL",
              "system": "http://unitsofmeasure.org"
            }
          },
          {
            "high": {
              "value": 20,
              "code": "mg/dL",
              "system": "http://unitsofmeasure.org"
            }
          }
        ],
        "text": {
          "status": "generated",
          "div": "<div xmlns=\"http://www.w3.org/1999/xhtml\"><table class=\"hl7__eu__lab__report\"><tr><th>Test</th><th>04-Dec-2015</th><th>Reference&#xA0;Range</th><th>Unit</th></tr><tr><td>Urea nitrogen [Mass/volume] in Serum or Plasma</td><td>18.3</td><td>7 - 20</td><td></td><td>mg/dL</td></tr></table></div>"
        },
        "status": "final",
        "subject": {
          "reference": "urn:uuid:36a67d81-b9c4-41ab-8718-11f0b336a2a5",
          "display": "Victor Lagarde"
        },
        "effectiveDateTime": "2015-12-04T04:48:18Z",
        "specimen": {
          "reference": "urn:uuid:65b5d533-40f7-4c72-b6d2-1ea044fd9eaf"
        }
      }
    },
    {
      "fullUrl": "urn:uuid:21d2e71b-5a30-424c-90b3-8c921b38be07",
      "resource": {
        "resourceType": "Observation",
        "id": "21d2e71b-5a30-424c-90b3-8c921b38be07",
        "meta": {
          "profile": [
            "http://hl7.eu/fhir/laboratory/StructureDefinition/Observation-resultslab-eu-lab"
          ]
        },
        "performer": [
          {
            "display": "The Central European Lab"
          }
        ],
        "category": [
          {
            "coding": [
              {
                "system": "http://terminology.hl7.org/CodeSystem/observation-category",
                "code": "laboratory"
              }
            ]
          }
        ],
        "code": {
          "coding": [
            {
              "code": "2160-0",
              "system": "http://loinc.org",
              "display": "Creatinine [Mass/volume] in Serum or Plasma"
            }
          ],
          "text": "Creatinine [Mass/volume] in Serum or Plasma"
        },
        "valueQuantity": {
          "system": "http://unitsofmeasure.org",
          "value": 1.9,
          "unit": "mg/dL",
          "code": "mg/dL"
        },
        "referenceRange": [
          {
            "low": {
              "value": 0.9,
              "code": "mg/dL",
              "system": "http://unitsofmeasure.org"
            }
          },
          {
            "high": {
              "value": 1.3,
              "code": "mg/dL",
              "system": "http://unitsofmeasure.org"
            }
          }
        ],
        "interpretation": [
          {
            "coding": [
              {
                "code": "H",
                "system": "http://terminology.hl7.org/CodeSystem/v3-ObservationInterpretation",
                "display": "High"
              }
            ]
          }
        ],
        "text": {
          "status": "generated",
          "div": "<div xmlns=\"http://www.w3.org/1999/xhtml\"><table class=\"hl7__eu__lab__report\"><tr><th>Test</th><th>04-Dec-2015</th><th>Reference&#xA0;Range</th><th>Unit</th></tr><tr><td>Creatinine [Mass/volume] in Serum or Plasma</td><td>1.9</td><td>0.9 - 1.3</td><td>H</td><td>mg/dL</td></tr></table></div>"
        },
        "status": "final",
        "subject": {
          "reference": "urn:uuid:36a67d81-b9c4-41ab-8718-11f0b336a2a5",
          "display": "Victor Lagarde"
        },
        "effectiveDateTime": "2015-12-04T04:48:18Z",
        "specimen": {
          "reference": "urn:uuid:65b5d533-40f7-4c72-b6d2-1ea044fd9eaf"
        }
      }
    },
    {
      "fullUrl": "urn:uuid:c550eb8e-eaea-4886-9d7a-e6911e7e1000",
      "resource": {
        "resourceType": "Observation",
        "id": "c550eb8e-eaea-4886-9d7a-e6911e7e1000",
        "meta": {
          "profile": [
            "http://hl7.eu/fhir/laboratory/StructureDefinition/Observation-resultslab-eu-lab"
          ]
        },
        "performer": [
          {
            "display": "The Central European Lab"
          }
        ],
        "category": [
          {
            "coding": [
              {
                "system": "http://terminology.hl7.org/CodeSystem/observation-category",
                "code": "laboratory"
              }
            ]
          }
        ],
        "code": {
          "coding": [
            {
              "code": "17861-6",
              "system": "http://loinc.org",
              "display": "Calcium [Mass/volume] in Serum or Plasma"
            }
          ],
          "text": "Calcium [Mass/volume] in Serum or Plasma"
        },
        "valueQuantity": {
          "system": "http://unitsofmeasure.org",
          "value": 9.5,
          "unit": "mg/dL",
          "code": "mg/dL"
        },
        "referenceRange": [
          {
            "low": {
              "value": 8.5,
              "code": "mg/dL",
              "system": "http://unitsofmeasure.org"
            }
          },
          {
            "high": {
              "value": 10.5,
              "code": "mg/dL",
              "system": "http://unitsofmeasure.org"
            }
          }
        ],
        "text": {
          "status": "generated",
          "div": "<div xmlns=\"http://www.w3.org/1999/xhtml\"><table class=\"hl7__eu__lab__report\"><tr><th>Test</th><th>04-Dec-2015</th><th>Reference&#xA0;Range</th><th>Unit</th></tr><tr><td>Calcium [Mass/volume] in Serum or Plasma</td><td>9.5</td><td>8.5 - 10.5</td><td></td><td>mg/dL</td></tr></table></div>"
        },
        "status": "final",
        "subject": {
          "reference": "urn:uuid:36a67d81-b9c4-41ab-8718-11f0b336a2a5",
          "display": "Victor Lagarde"
        },
        "effectiveDateTime": "2015-12-04T04:48:18Z",
        "specimen": {
          "reference": "urn:uuid:65b5d533-40f7-4c72-b6d2-1ea044fd9eaf"
        }
      }
    },
    {
      "fullUrl": "urn:uuid:ed2d861f-bd1a-4b17-9130-689810573568",
      "resource": {
        "resourceType": "Observation",
        "id": "ed2d861f-bd1a-4b17-9130-689810573568",
        "meta": {
          "profile": [
            "http://hl7.eu/fhir/laboratory/StructureDefinition/Observation-resultslab-eu-lab"
          ]
        },
        "performer": [
          {
            "display": "The Central European Lab"
          }
        ],
        "category": [
          {
            "coding": [
              {
                "system": "http://terminology.hl7.org/CodeSystem/observation-category",
                "code": "laboratory"
              }
            ]
          }
        ],
        "code": {
          "coding": [
            {
              "code": "2951-2",
              "system": "http://loinc.org",
              "display": "Sodium [Moles/volume] in Serum or Plasma"
            }
          ],
          "text": "Sodium [Moles/volume] in Serum or Plasma"
        },
        "valueQuantity": {
          "system": "http://unitsofmeasure.org",
          "value": 137.9,
          "unit": "mmol/L",
          "code": "mmol/L"
        },
        "referenceRange": [
          {
            "low": {
              "value": 135,
              "code": "mmol/L",
              "system": "http://unitsofmeasure.org"
            }
          },
          {
            "high": {
              "value": 145,
              "code": "mmol/L",
              "system": "http://unitsofmeasure.org"
            }
          }
        ],
        "text": {
          "status": "generated",
          "div": "<div xmlns=\"http://www.w3.org/1999/xhtml\"><table class=\"hl7__eu__lab__report\"><tr><th>Test</th><th>04-Dec-2015</th><th>Reference&#xA0;Range</th><th>Unit</th></tr><tr><td>Sodium [Moles/volume] in Serum or Plasma</td><td>137.9</td><td>135 - 145</td><td></td><td>mmol/L</td></tr></table></div>"
        },
        "status": "final",
        "subject": {
          "reference": "urn:uuid:36a67d81-b9c4-41ab-8718-11f0b336a2a5",
          "display": "Victor Lagarde"
        },
        "effectiveDateTime": "2015-12-04T04:48:18Z",
        "specimen": {
          "reference": "urn:uuid:65b5d533-40f7-4c72-b6d2-1ea044fd9eaf"
        }
      }
    },
    {
      "fullUrl": "urn:uuid:b130a76e-8cff-4c87-8c47-8f4553869bf5",
      "resource": {
        "resourceType": "Observation",
        "id": "b130a76e-8cff-4c87-8c47-8f4553869bf5",
        "meta": {
          "profile": [
            "http://hl7.eu/fhir/laboratory/StructureDefinition/Observation-resultslab-eu-lab"
          ]
        },
        "performer": [
          {
            "display": "The Central European Lab"
          }
        ],
        "category": [
          {
            "coding": [
              {
                "system": "http://terminology.hl7.org/CodeSystem/observation-category",
                "code": "laboratory"
              }
            ]
          }
        ],
        "code": {
          "coding": [
            {
              "code": "2823-3",
              "system": "http://loinc.org",
              "display": "Potassium [Moles/volume] in Serum or Plasma"
            }
          ],
          "text": "Potassium [Moles/volume] in Serum or Plasma"
        },
        "valueQuantity": {
          "system": "http://unitsofmeasure.org",
          "value": 4.5,
          "unit": "mmol/L",
          "code": "mmol/L"
        },
        "referenceRange": [
          {
            "low": {
              "value": 3.5,
              "code": "mmol/L",
              "system": "http://unitsofmeasure.org"
            }
          },
          {
            "high": {
              "value": 5.3,
              "code": "mmol/L",
              "system": "http://unitsofmeasure.org"
            }
          }
        ],
        "text": {
          "status": "generated",
          "div": "<div xmlns=\"http://www.w3.org/1999/xhtml\"><table class=\"hl7__eu__lab__report\"><tr><th>Test</th><th>04-Dec-2015</th><th>Reference&#xA0;Range</th><th>Unit</th></tr><tr><td>Potassium [Moles/volume] in Serum or Plasma</td><td>4.5</td><td>3.5 - 5.3</td><td></td><td>mmol/L</td></tr></table></div>"
        },
        "status": "final",
        "subject": {
          "reference": "urn:uuid:36a67d81-b9c4-41ab-8718-11f0b336a2a5",
          "display": "Victor Lagarde"
        },
        "effectiveDateTime": "2015-12-04T04:48:18Z",
        "specimen": {
          "reference": "urn:uuid:65b5d533-40f7-4c72-b6d2-1ea044fd9eaf"
        }
      }
    },
    {
      "fullUrl": "urn:uuid:cc0f4c1f-aead-41a1-bc7f-29f72d4b2ab4",
      "resource": {
        "resourceType": "Observation",
        "id": "cc0f4c1f-aead-41a1-bc7f-29f72d4b2ab4",
        "meta": {
          "profile": [
            "http://hl7.eu/fhir/laboratory/StructureDefinition/Observation-resultslab-eu-lab"
          ]
        },
        "performer": [
          {
            "display": "The Central European Lab"
          }
        ],
        "category": [
          {
            "coding": [
              {
                "system": "http://terminology.hl7.org/CodeSystem/observation-category",
                "code": "laboratory"
              }
            ]
          }
        ],
        "code": {
          "coding": [
            {
              "code": "2075-0",
              "system": "http://loinc.org",
              "display": "Chloride [Moles/volume] in Serum or Plasma"
            }
          ],
          "text": "Chloride [Moles/volume] in Serum or Plasma"
        },
        "valueQuantity": {
          "system": "http://unitsofmeasure.org",
          "value": 105.5,
          "unit": "mmol/L",
          "code": "mmol/L"
        },
        "referenceRange": [
          {
            "low": {
              "value": 98,
              "code": "mmol/L",
              "system": "http://unitsofmeasure.org"
            }
          },
          {
            "high": {
              "value": 107,
              "code": "mmol/L",
              "system": "http://unitsofmeasure.org"
            }
          }
        ],
        "text": {
          "status": "generated",
          "div": "<div xmlns=\"http://www.w3.org/1999/xhtml\"><table class=\"hl7__eu__lab__report\"><tr><th>Test</th><th>04-Dec-2015</th><th>Reference&#xA0;Range</th><th>Unit</th></tr><tr><td>Chloride [Moles/volume] in Serum or Plasma</td><td>105.5</td><td>98 - 107</td><td></td><td>mmol/L</td></tr></table></div>"
        },
        "status": "final",
        "subject": {
          "reference": "urn:uuid:36a67d81-b9c4-41ab-8718-11f0b336a2a5",
          "display": "Victor Lagarde"
        },
        "effectiveDateTime": "2015-12-04T04:48:18Z",
        "specimen": {
          "reference": "urn:uuid:65b5d533-40f7-4c72-b6d2-1ea044fd9eaf"
        }
      }
    },
    {
      "fullUrl": "urn:uuid:10177c2b-a8e2-465b-a866-e7d05b882ca7",
      "resource": {
        "resourceType": "Observation",
        "id": "10177c2b-a8e2-465b-a866-e7d05b882ca7",
        "meta": {
          "profile": [
            "http://hl7.eu/fhir/laboratory/StructureDefinition/Observation-resultslab-eu-lab"
          ]
        },
        "performer": [
          {
            "display": "The Central European Lab"
          }
        ],
        "category": [
          {
            "coding": [
              {
                "system": "http://terminology.hl7.org/CodeSystem/observation-category",
                "code": "laboratory"
              }
            ]
          }
        ],
        "code": {
          "coding": [
            {
              "code": "2028-9",
              "system": "http://loinc.org",
              "display": "Carbon dioxide, total [Moles/volume] in Serum or Plasma"
            }
          ],
          "text": "Carbon dioxide, total [Moles/volume] in Serum or Plasma"
        },
        "valueQuantity": {
          "system": "http://unitsofmeasure.org",
          "value": 20.5,
          "unit": "mmol/L",
          "code": "mmol/L"
        },
        "referenceRange": [
          {
            "low": {
              "value": 22,
              "code": "mmol/L",
              "system": "http://unitsofmeasure.org"
            }
          },
          {
            "high": {
              "value": 33,
              "code": "mmol/L",
              "system": "http://unitsofmeasure.org"
            }
          }
        ],
        "interpretation": [
          {
            "coding": [
              {
                "code": "L",
                "system": "http://terminology.hl7.org/CodeSystem/v3-ObservationInterpretation",
                "display": "Low"
              }
            ]
          }
        ],
        "text": {
          "status": "generated",
          "div": "<div xmlns=\"http://www.w3.org/1999/xhtml\"><table class=\"hl7__eu__lab__report\"><tr><th>Test</th><th>04-Dec-2015</th><th>Reference&#xA0;Range</th><th>Unit</th></tr><tr><td>Carbon dioxide, total [Moles/volume] in Serum or Plasma</td><td>20.5</td><td>22 - 33</td><td>L</td><td>mmol/L</td></tr></table></div>"
        },
        "status": "final",
        "subject": {
          "reference": "urn:uuid:36a67d81-b9c4-41ab-8718-11f0b336a2a5",
          "display": "Victor Lagarde"
        },
        "effectiveDateTime": "2015-12-04T04:48:18Z",
        "specimen": {
          "reference": "urn:uuid:65b5d533-40f7-4c72-b6d2-1ea044fd9eaf"
        }
      }
    },
    {
      "fullUrl": "urn:uuid:7f5629fc-2b34-48c7-ba45-a0b5b2e396f4",
      "resource": {
        "resourceType": "Observation",
        "id": "7f5629fc-2b34-48c7-ba45-a0b5b2e396f4",
        "meta": {
          "profile": [
            "http://hl7.eu/fhir/laboratory/StructureDefinition/Observation-resultslab-eu-lab"
          ]
        },
        "performer": [
          {
            "display": "The Central European Lab"
          }
        ],
        "category": [
          {
            "coding": [
              {
                "system": "http://terminology.hl7.org/CodeSystem/observation-category",
                "code": "laboratory"
              }
            ]
          }
        ],
        "code": {
          "coding": [
            {
              "code": "5767-9",
              "system": "http://loinc.org",
              "display": "Appearance of Urine"
            }
          ],
          "text": "Appearance of Urine"
        },
        "text": {
          "status": "generated",
          "div": "<div xmlns=\"http://www.w3.org/1999/xhtml\"><table class=\"hl7__eu__lab__report\"><tr><th>Test</th><th>04-Dec-2015</th><th>Reference&#xA0;Range</th><th>Unit</th></tr><tr><td>Appearance of Urine</td></tr></table></div>"
        },
        "status": "final",
        "subject": {
          "reference": "urn:uuid:36a67d81-b9c4-41ab-8718-11f0b336a2a5",
          "display": "Victor Lagarde"
        },
        "effectiveDateTime": "2015-12-04T04:48:18Z",
        "specimen": {
          "reference": "urn:uuid:6a0d16b2-75e6-4bfe-b6d1-ccfa2013be64"
        }
      }
    },
    {
      "fullUrl": "urn:uuid:1fef2780-bac5-4bb9-96a4-ee558c97d27d",
      "resource": {
        "resourceType": "Observation",
        "id": "1fef2780-bac5-4bb9-96a4-ee558c97d27d",
        "meta": {
          "profile": [
            "http://hl7.eu/fhir/laboratory/StructureDefinition/Observation-resultslab-eu-lab"
          ]
        },
        "performer": [
          {
            "display": "The Central European Lab"
          }
        ],
        "category": [
          {
            "coding": [
              {
                "system": "http://terminology.hl7.org/CodeSystem/observation-category",
                "code": "laboratory"
              }
            ]
          }
        ],
        "code": {
          "coding": [
            {
              "code": "34533-0",
              "system": "http://loinc.org",
              "display": "Odor of Urine"
            }
          ],
          "text": "Odor of Urine"
        },
        "text": {
          "status": "generated",
          "div": "<div xmlns=\"http://www.w3.org/1999/xhtml\"><table class=\"hl7__eu__lab__report\"><tr><th>Test</th><th>04-Dec-2015</th><th>Reference&#xA0;Range</th><th>Unit</th></tr><tr><td>Odor of Urine</td></tr></table></div>"
        },
        "status": "final",
        "subject": {
          "reference": "urn:uuid:36a67d81-b9c4-41ab-8718-11f0b336a2a5",
          "display": "Victor Lagarde"
        },
        "effectiveDateTime": "2015-12-04T04:48:18Z",
        "specimen": {
          "reference": "urn:uuid:6a0d16b2-75e6-4bfe-b6d1-ccfa2013be64"
        }
      }
    },
    {
      "fullUrl": "urn:uuid:b80907bd-f1b8-45bf-9712-0cfe102703fb",
      "resource": {
        "resourceType": "Observation",
        "id": "b80907bd-f1b8-45bf-9712-0cfe102703fb",
        "meta": {
          "profile": [
            "http://hl7.eu/fhir/laboratory/StructureDefinition/Observation-resultslab-eu-lab"
          ]
        },
        "performer": [
          {
            "display": "The Central European Lab"
          }
        ],
        "category": [
          {
            "coding": [
              {
                "system": "http://terminology.hl7.org/CodeSystem/observation-category",
                "code": "laboratory"
              }
            ]
          }
        ],
        "code": {
          "coding": [
            {
              "code": "32167-9",
              "system": "http://loinc.org",
              "display": "Clarity of Urine"
            }
          ],
          "text": "Clarity of Urine"
        },
        "text": {
          "status": "generated",
          "div": "<div xmlns=\"http://www.w3.org/1999/xhtml\"><table class=\"hl7__eu__lab__report\"><tr><th>Test</th><th>04-Dec-2015</th><th>Reference&#xA0;Range</th><th>Unit</th></tr><tr><td>Clarity of Urine</td></tr></table></div>"
        },
        "status": "final",
        "subject": {
          "reference": "urn:uuid:36a67d81-b9c4-41ab-8718-11f0b336a2a5",
          "display": "Victor Lagarde"
        },
        "effectiveDateTime": "2015-12-04T04:48:18Z",
        "specimen": {
          "reference": "urn:uuid:6a0d16b2-75e6-4bfe-b6d1-ccfa2013be64"
        }
      }
    },
    {
      "fullUrl": "urn:uuid:c158580f-8a78-4d91-bf3d-81421080aa46",
      "resource": {
        "resourceType": "Observation",
        "id": "c158580f-8a78-4d91-bf3d-81421080aa46",
        "meta": {
          "profile": [
            "http://hl7.eu/fhir/laboratory/StructureDefinition/Observation-resultslab-eu-lab"
          ]
        },
        "performer": [
          {
            "display": "The Central European Lab"
          }
        ],
        "category": [
          {
            "coding": [
              {
                "system": "http://terminology.hl7.org/CodeSystem/observation-category",
                "code": "laboratory"
              }
            ]
          }
        ],
        "code": {
          "coding": [
            {
              "code": "5778-6",
              "system": "http://loinc.org",
              "display": "Color of Urine"
            }
          ],
          "text": "Color of Urine"
        },
        "text": {
          "status": "generated",
          "div": "<div xmlns=\"http://www.w3.org/1999/xhtml\"><table class=\"hl7__eu__lab__report\"><tr><th>Test</th><th>04-Dec-2015</th><th>Reference&#xA0;Range</th><th>Unit</th></tr><tr><td>Color of Urine</td></tr></table></div>"
        },
        "status": "final",
        "subject": {
          "reference": "urn:uuid:36a67d81-b9c4-41ab-8718-11f0b336a2a5",
          "display": "Victor Lagarde"
        },
        "effectiveDateTime": "2015-12-04T04:48:18Z",
        "specimen": {
          "reference": "urn:uuid:6a0d16b2-75e6-4bfe-b6d1-ccfa2013be64"
        }
      }
    },
    {
      "fullUrl": "urn:uuid:0044007d-5bad-4985-891a-8687fc08ea37",
      "resource": {
        "resourceType": "Observation",
        "id": "0044007d-5bad-4985-891a-8687fc08ea37",
        "meta": {
          "profile": [
            "http://hl7.eu/fhir/laboratory/StructureDefinition/Observation-resultslab-eu-lab"
          ]
        },
        "performer": [
          {
            "display": "The Central European Lab"
          }
        ],
        "category": [
          {
            "coding": [
              {
                "system": "http://terminology.hl7.org/CodeSystem/observation-category",
                "code": "laboratory"
              }
            ]
          }
        ],
        "code": {
          "coding": [
            {
              "code": "5792-7",
              "system": "http://loinc.org",
              "display": "Glucose [Mass/volume] in Urine by Test strip"
            }
          ],
          "text": "Glucose [Mass/volume] in Urine by Test strip"
        },
        "valueQuantity": {
          "system": "http://unitsofmeasure.org",
          "value": 2.4,
          "unit": "mg/dL",
          "code": "mg/dL"
        },
        "referenceRange": [
          {
            "low": {
              "value": 0,
              "code": "mg/dL",
              "system": "http://unitsofmeasure.org"
            }
          },
          {
            "high": {
              "value": 0.8,
              "code": "mg/dL",
              "system": "http://unitsofmeasure.org"
            }
          }
        ],
        "interpretation": [
          {
            "coding": [
              {
                "code": "H",
                "system": "http://terminology.hl7.org/CodeSystem/v3-ObservationInterpretation",
                "display": "High"
              }
            ]
          }
        ],
        "text": {
          "status": "generated",
          "div": "<div xmlns=\"http://www.w3.org/1999/xhtml\"><table class=\"hl7__eu__lab__report\"><tr><th>Test</th><th>04-Dec-2015</th><th>Reference&#xA0;Range</th><th>Unit</th></tr><tr><td>Glucose [Mass/volume] in Urine by Test strip</td><td>2.4</td><td>0 - 0.8</td><td>H</td><td>mg/dL</td></tr></table></div>"
        },
        "status": "final",
        "subject": {
          "reference": "urn:uuid:36a67d81-b9c4-41ab-8718-11f0b336a2a5",
          "display": "Victor Lagarde"
        },
        "effectiveDateTime": "2015-12-04T04:48:18Z",
        "specimen": {
          "reference": "urn:uuid:6a0d16b2-75e6-4bfe-b6d1-ccfa2013be64"
        }
      }
    },
    {
      "fullUrl": "urn:uuid:056566bc-0725-4f8c-838a-bff621789e43",
      "resource": {
        "resourceType": "Observation",
        "id": "056566bc-0725-4f8c-838a-bff621789e43",
        "meta": {
          "profile": [
            "http://hl7.eu/fhir/laboratory/StructureDefinition/Observation-resultslab-eu-lab"
          ]
        },
        "performer": [
          {
            "display": "The Central European Lab"
          }
        ],
        "category": [
          {
            "coding": [
              {
                "system": "http://terminology.hl7.org/CodeSystem/observation-category",
                "code": "laboratory"
              }
            ]
          }
        ],
        "code": {
          "coding": [
            {
              "code": "25428-4",
              "system": "http://loinc.org",
              "display": "Glucose [Presence] in Urine by Test strip"
            }
          ],
          "text": "Glucose [Presence] in Urine by Test strip"
        },
        "text": {
          "status": "generated",
          "div": "<div xmlns=\"http://www.w3.org/1999/xhtml\"><table class=\"hl7__eu__lab__report\"><tr><th>Test</th><th>04-Dec-2015</th><th>Reference&#xA0;Range</th><th>Unit</th></tr><tr><td>Glucose [Presence] in Urine by Test strip</td></tr></table></div>"
        },
        "status": "final",
        "subject": {
          "reference": "urn:uuid:36a67d81-b9c4-41ab-8718-11f0b336a2a5",
          "display": "Victor Lagarde"
        },
        "effectiveDateTime": "2015-12-04T04:48:18Z",
        "specimen": {
          "reference": "urn:uuid:6a0d16b2-75e6-4bfe-b6d1-ccfa2013be64"
        }
      }
    },
    {
      "fullUrl": "urn:uuid:cbfd3ae4-a294-4d7c-9fd1-d892c4b04182",
      "resource": {
        "resourceType": "Observation",
        "id": "cbfd3ae4-a294-4d7c-9fd1-d892c4b04182",
        "meta": {
          "profile": [
            "http://hl7.eu/fhir/laboratory/StructureDefinition/Observation-resultslab-eu-lab"
          ]
        },
        "performer": [
          {
            "display": "The Central European Lab"
          }
        ],
        "category": [
          {
            "coding": [
              {
                "system": "http://terminology.hl7.org/CodeSystem/observation-category",
                "code": "laboratory"
              }
            ]
          }
        ],
        "code": {
          "coding": [
            {
              "code": "20505-4",
              "system": "http://loinc.org",
              "display": "Bilirubin.total [Mass/volume] in Urine by Test strip"
            }
          ],
          "text": "Bilirubin.total [Mass/volume] in Urine by Test strip"
        },
        "valueQuantity": {
          "system": "http://unitsofmeasure.org",
          "value": 1.4,
          "unit": "mg/dL",
          "code": "mg/dL"
        },
        "referenceRange": [
          {
            "low": {
              "value": 0,
              "code": "mg/dL",
              "system": "http://unitsofmeasure.org"
            }
          },
          {
            "high": {
              "value": 1.9,
              "code": "mg/dL",
              "system": "http://unitsofmeasure.org"
            }
          }
        ],
        "text": {
          "status": "generated",
          "div": "<div xmlns=\"http://www.w3.org/1999/xhtml\"><table class=\"hl7__eu__lab__report\"><tr><th>Test</th><th>04-Dec-2015</th><th>Reference&#xA0;Range</th><th>Unit</th></tr><tr><td>Bilirubin.total [Mass/volume] in Urine by Test strip</td><td>1.4</td><td>0 - 1.9</td><td></td><td>mg/dL</td></tr></table></div>"
        },
        "status": "final",
        "subject": {
          "reference": "urn:uuid:36a67d81-b9c4-41ab-8718-11f0b336a2a5",
          "display": "Victor Lagarde"
        },
        "effectiveDateTime": "2015-12-04T04:48:18Z",
        "specimen": {
          "reference": "urn:uuid:6a0d16b2-75e6-4bfe-b6d1-ccfa2013be64"
        }
      }
    },
    {
      "fullUrl": "urn:uuid:b10a4259-dead-48d5-9d72-9e4ddb0f9f43",
      "resource": {
        "resourceType": "Observation",
        "id": "b10a4259-dead-48d5-9d72-9e4ddb0f9f43",
        "meta": {
          "profile": [
            "http://hl7.eu/fhir/laboratory/StructureDefinition/Observation-resultslab-eu-lab"
          ]
        },
        "performer": [
          {
            "display": "The Central European Lab"
          }
        ],
        "category": [
          {
            "coding": [
              {
                "system": "http://terminology.hl7.org/CodeSystem/observation-category",
                "code": "laboratory"
              }
            ]
          }
        ],
        "code": {
          "coding": [
            {
              "code": "5770-3",
              "system": "http://loinc.org",
              "display": "Bilirubin.total [Presence] in Urine by Test strip"
            }
          ],
          "text": "Bilirubin.total [Presence] in Urine by Test strip"
        },
        "text": {
          "status": "generated",
          "div": "<div xmlns=\"http://www.w3.org/1999/xhtml\"><table class=\"hl7__eu__lab__report\"><tr><th>Test</th><th>04-Dec-2015</th><th>Reference&#xA0;Range</th><th>Unit</th></tr><tr><td>Bilirubin.total [Presence] in Urine by Test strip</td></tr></table></div>"
        },
        "status": "final",
        "subject": {
          "reference": "urn:uuid:36a67d81-b9c4-41ab-8718-11f0b336a2a5",
          "display": "Victor Lagarde"
        },
        "effectiveDateTime": "2015-12-04T04:48:18Z",
        "specimen": {
          "reference": "urn:uuid:6a0d16b2-75e6-4bfe-b6d1-ccfa2013be64"
        }
      }
    },
    {
      "fullUrl": "urn:uuid:75e86445-3115-4d7b-bafc-2318d9236bf9",
      "resource": {
        "resourceType": "Observation",
        "id": "75e86445-3115-4d7b-bafc-2318d9236bf9",
        "meta": {
          "profile": [
            "http://hl7.eu/fhir/laboratory/StructureDefinition/Observation-resultslab-eu-lab"
          ]
        },
        "performer": [
          {
            "display": "The Central European Lab"
          }
        ],
        "category": [
          {
            "coding": [
              {
                "system": "http://terminology.hl7.org/CodeSystem/observation-category",
                "code": "laboratory"
              }
            ]
          }
        ],
        "code": {
          "coding": [
            {
              "code": "5797-6",
              "system": "http://loinc.org",
              "display": "Ketones [Mass/volume] in Urine by Test strip"
            }
          ],
          "text": "Ketones [Mass/volume] in Urine by Test strip"
        },
        "valueQuantity": {
          "system": "http://unitsofmeasure.org",
          "value": 3.3,
          "unit": "mg/dL",
          "code": "mg/dL"
        },
        "referenceRange": [
          {
            "low": {
              "value": 0,
              "code": "mg/dL",
              "system": "http://unitsofmeasure.org"
            }
          },
          {
            "high": {
              "value": 3,
              "code": "mg/dL",
              "system": "http://unitsofmeasure.org"
            }
          }
        ],
        "interpretation": [
          {
            "coding": [
              {
                "code": "H",
                "system": "http://terminology.hl7.org/CodeSystem/v3-ObservationInterpretation",
                "display": "High"
              }
            ]
          }
        ],
        "text": {
          "status": "generated",
          "div": "<div xmlns=\"http://www.w3.org/1999/xhtml\"><table class=\"hl7__eu__lab__report\"><tr><th>Test</th><th>04-Dec-2015</th><th>Reference&#xA0;Range</th><th>Unit</th></tr><tr><td>Ketones [Mass/volume] in Urine by Test strip</td><td>3.3</td><td>0 - 3</td><td>H</td><td>mg/dL</td></tr></table></div>"
        },
        "status": "final",
        "subject": {
          "reference": "urn:uuid:36a67d81-b9c4-41ab-8718-11f0b336a2a5",
          "display": "Victor Lagarde"
        },
        "effectiveDateTime": "2015-12-04T04:48:18Z",
        "specimen": {
          "reference": "urn:uuid:6a0d16b2-75e6-4bfe-b6d1-ccfa2013be64"
        }
      }
    },
    {
      "fullUrl": "urn:uuid:9a423d1e-f15b-48c2-8d9a-af30422368dd",
      "resource": {
        "resourceType": "Observation",
        "id": "9a423d1e-f15b-48c2-8d9a-af30422368dd",
        "meta": {
          "profile": [
            "http://hl7.eu/fhir/laboratory/StructureDefinition/Observation-resultslab-eu-lab"
          ]
        },
        "performer": [
          {
            "display": "The Central European Lab"
          }
        ],
        "category": [
          {
            "coding": [
              {
                "system": "http://terminology.hl7.org/CodeSystem/observation-category",
                "code": "laboratory"
              }
            ]
          }
        ],
        "code": {
          "coding": [
            {
              "code": "2514-8",
              "system": "http://loinc.org",
              "display": "Ketones [Presence] in Urine by Test strip"
            }
          ],
          "text": "Ketones [Presence] in Urine by Test strip"
        },
        "text": {
          "status": "generated",
          "div": "<div xmlns=\"http://www.w3.org/1999/xhtml\"><table class=\"hl7__eu__lab__report\"><tr><th>Test</th><th>04-Dec-2015</th><th>Reference&#xA0;Range</th><th>Unit</th></tr><tr><td>Ketones [Presence] in Urine by Test strip</td></tr></table></div>"
        },
        "status": "final",
        "subject": {
          "reference": "urn:uuid:36a67d81-b9c4-41ab-8718-11f0b336a2a5",
          "display": "Victor Lagarde"
        },
        "effectiveDateTime": "2015-12-04T04:48:18Z",
        "specimen": {
          "reference": "urn:uuid:6a0d16b2-75e6-4bfe-b6d1-ccfa2013be64"
        }
      }
    },
    {
      "fullUrl": "urn:uuid:1cecdd98-6202-488e-8861-48236a1a83e7",
      "resource": {
        "resourceType": "Observation",
        "id": "1cecdd98-6202-488e-8861-48236a1a83e7",
        "meta": {
          "profile": [
            "http://hl7.eu/fhir/laboratory/StructureDefinition/Observation-resultslab-eu-lab"
          ]
        },
        "performer": [
          {
            "display": "The Central European Lab"
          }
        ],
        "category": [
          {
            "coding": [
              {
                "system": "http://terminology.hl7.org/CodeSystem/observation-category",
                "code": "laboratory"
              }
            ]
          }
        ],
        "code": {
          "coding": [
            {
              "code": "5811-5",
              "system": "http://loinc.org",
              "display": "Specific gravity of Urine by Test strip"
            }
          ],
          "text": "Specific gravity of Urine by Test strip"
        },
        "valueQuantity": {
          "system": "http://unitsofmeasure.org",
          "value": 1,
          "unit": "{nominal}",
          "code": "{nominal}"
        },
        "referenceRange": [
          {
            "low": {
              "value": 1.01,
              "code": "g/mL",
              "system": "http://unitsofmeasure.org"
            }
          },
          {
            "high": {
              "value": 1.03,
              "code": "g/mL",
              "system": "http://unitsofmeasure.org"
            }
          }
        ],
        "interpretation": [
          {
            "coding": [
              {
                "code": "L",
                "system": "http://terminology.hl7.org/CodeSystem/v3-ObservationInterpretation",
                "display": "Low"
              }
            ]
          }
        ],
        "text": {
          "status": "generated",
          "div": "<div xmlns=\"http://www.w3.org/1999/xhtml\"><table class=\"hl7__eu__lab__report\"><tr><th>Test</th><th>04-Dec-2015</th><th>Reference&#xA0;Range</th><th>Unit</th></tr><tr><td>Specific gravity of Urine by Test strip</td><td>1.0</td><td>1.01 - 1.03</td><td>L</td><td>{nominal}</td></tr></table></div>"
        },
        "status": "final",
        "subject": {
          "reference": "urn:uuid:36a67d81-b9c4-41ab-8718-11f0b336a2a5",
          "display": "Victor Lagarde"
        },
        "effectiveDateTime": "2015-12-04T04:48:18Z",
        "specimen": {
          "reference": "urn:uuid:6a0d16b2-75e6-4bfe-b6d1-ccfa2013be64"
        }
      }
    },
    {
      "fullUrl": "urn:uuid:d80b1777-8647-459d-b9cf-955febe3de31",
      "resource": {
        "resourceType": "Observation",
        "id": "d80b1777-8647-459d-b9cf-955febe3de31",
        "meta": {
          "profile": [
            "http://hl7.eu/fhir/laboratory/StructureDefinition/Observation-resultslab-eu-lab"
          ]
        },
        "performer": [
          {
            "display": "The Central European Lab"
          }
        ],
        "category": [
          {
            "coding": [
              {
                "system": "http://terminology.hl7.org/CodeSystem/observation-category",
                "code": "laboratory"
              }
            ]
          }
        ],
        "code": {
          "coding": [
            {
              "code": "5803-2",
              "system": "http://loinc.org",
              "display": "pH of Urine by Test strip"
            }
          ],
          "text": "pH of Urine by Test strip"
        },
        "valueQuantity": {
          "system": "http://unitsofmeasure.org",
          "value": 6.1,
          "unit": "pH",
          "code": "pH"
        },
        "referenceRange": [
          {
            "low": {
              "value": 4.5,
              "code": "pH",
              "system": "http://unitsofmeasure.org"
            }
          },
          {
            "high": {
              "value": 7.5,
              "code": "pH",
              "system": "http://unitsofmeasure.org"
            }
          }
        ],
        "text": {
          "status": "generated",
          "div": "<div xmlns=\"http://www.w3.org/1999/xhtml\"><table class=\"hl7__eu__lab__report\"><tr><th>Test</th><th>04-Dec-2015</th><th>Reference&#xA0;Range</th><th>Unit</th></tr><tr><td>pH of Urine by Test strip</td><td>6.1</td><td>4.5 - 7.5</td><td></td><td>pH</td></tr></table></div>"
        },
        "status": "final",
        "subject": {
          "reference": "urn:uuid:36a67d81-b9c4-41ab-8718-11f0b336a2a5",
          "display": "Victor Lagarde"
        },
        "effectiveDateTime": "2015-12-04T04:48:18Z",
        "specimen": {
          "reference": "urn:uuid:6a0d16b2-75e6-4bfe-b6d1-ccfa2013be64"
        }
      }
    },
    {
      "fullUrl": "urn:uuid:2c212698-8a90-424b-87e4-5c7a3396c084",
      "resource": {
        "resourceType": "Observation",
        "id": "2c212698-8a90-424b-87e4-5c7a3396c084",
        "meta": {
          "profile": [
            "http://hl7.eu/fhir/laboratory/StructureDefinition/Observation-resultslab-eu-lab"
          ]
        },
        "performer": [
          {
            "display": "The Central European Lab"
          }
        ],
        "category": [
          {
            "coding": [
              {
                "system": "http://terminology.hl7.org/CodeSystem/observation-category",
                "code": "laboratory"
              }
            ]
          }
        ],
        "code": {
          "coding": [
            {
              "code": "5804-0",
              "system": "http://loinc.org",
              "display": "Protein [Mass/volume] in Urine by Test strip"
            }
          ],
          "text": "Protein [Mass/volume] in Urine by Test strip"
        },
        "valueQuantity": {
          "system": "http://unitsofmeasure.org",
          "value": 345.2,
          "unit": "mg/dL",
          "code": "mg/dL"
        },
        "referenceRange": [
          {
            "low": {
              "value": 0,
              "code": "mg/dL",
              "system": "http://unitsofmeasure.org"
            }
          },
          {
            "high": {
              "value": 149,
              "code": "mg/dL",
              "system": "http://unitsofmeasure.org"
            }
          }
        ],
        "interpretation": [
          {
            "coding": [
              {
                "code": "H",
                "system": "http://terminology.hl7.org/CodeSystem/v3-ObservationInterpretation",
                "display": "High"
              }
            ]
          }
        ],
        "text": {
          "status": "generated",
          "div": "<div xmlns=\"http://www.w3.org/1999/xhtml\"><table class=\"hl7__eu__lab__report\"><tr><th>Test</th><th>04-Dec-2015</th><th>Reference&#xA0;Range</th><th>Unit</th></tr><tr><td>Protein [Mass/volume] in Urine by Test strip</td><td>345.2</td><td>0 - 149</td><td>H</td><td>mg/dL</td></tr></table></div>"
        },
        "status": "final",
        "subject": {
          "reference": "urn:uuid:36a67d81-b9c4-41ab-8718-11f0b336a2a5",
          "display": "Victor Lagarde"
        },
        "effectiveDateTime": "2015-12-04T04:48:18Z",
        "specimen": {
          "reference": "urn:uuid:6a0d16b2-75e6-4bfe-b6d1-ccfa2013be64"
        }
      }
    },
    {
      "fullUrl": "urn:uuid:d3ed4fc2-5909-4f57-9c15-f4dd88faa8e8",
      "resource": {
        "resourceType": "Observation",
        "id": "d3ed4fc2-5909-4f57-9c15-f4dd88faa8e8",
        "meta": {
          "profile": [
            "http://hl7.eu/fhir/laboratory/StructureDefinition/Observation-resultslab-eu-lab"
          ]
        },
        "performer": [
          {
            "display": "The Central European Lab"
          }
        ],
        "category": [
          {
            "coding": [
              {
                "system": "http://terminology.hl7.org/CodeSystem/observation-category",
                "code": "laboratory"
              }
            ]
          }
        ],
        "code": {
          "coding": [
            {
              "code": "20454-5",
              "system": "http://loinc.org",
              "display": "Protein [Presence] in Urine by Test strip"
            }
          ],
          "text": "Protein [Presence] in Urine by Test strip"
        },
        "text": {
          "status": "generated",
          "div": "<div xmlns=\"http://www.w3.org/1999/xhtml\"><table class=\"hl7__eu__lab__report\"><tr><th>Test</th><th>04-Dec-2015</th><th>Reference&#xA0;Range</th><th>Unit</th></tr><tr><td>Protein [Presence] in Urine by Test strip</td></tr></table></div>"
        },
        "status": "final",
        "subject": {
          "reference": "urn:uuid:36a67d81-b9c4-41ab-8718-11f0b336a2a5",
          "display": "Victor Lagarde"
        },
        "effectiveDateTime": "2015-12-04T04:48:18Z",
        "specimen": {
          "reference": "urn:uuid:6a0d16b2-75e6-4bfe-b6d1-ccfa2013be64"
        }
      }
    },
    {
      "fullUrl": "urn:uuid:548063ac-8aa9-4f3c-a766-9f500a6d833f",
      "resource": {
        "resourceType": "Observation",
        "id": "548063ac-8aa9-4f3c-a766-9f500a6d833f",
        "meta": {
          "profile": [
            "http://hl7.eu/fhir/laboratory/StructureDefinition/Observation-resultslab-eu-lab"
          ]
        },
        "performer": [
          {
            "display": "The Central European Lab"
          }
        ],
        "category": [
          {
            "coding": [
              {
                "system": "http://terminology.hl7.org/CodeSystem/observation-category",
                "code": "laboratory"
              }
            ]
          }
        ],
        "code": {
          "coding": [
            {
              "code": "5802-4",
              "system": "http://loinc.org",
              "display": "Nitrite [Presence] in Urine by Test strip"
            }
          ],
          "text": "Nitrite [Presence] in Urine by Test strip"
        },
        "text": {
          "status": "generated",
          "div": "<div xmlns=\"http://www.w3.org/1999/xhtml\"><table class=\"hl7__eu__lab__report\"><tr><th>Test</th><th>04-Dec-2015</th><th>Reference&#xA0;Range</th><th>Unit</th></tr><tr><td>Nitrite [Presence] in Urine by Test strip</td></tr></table></div>"
        },
        "status": "final",
        "subject": {
          "reference": "urn:uuid:36a67d81-b9c4-41ab-8718-11f0b336a2a5",
          "display": "Victor Lagarde"
        },
        "effectiveDateTime": "2015-12-04T04:48:18Z",
        "specimen": {
          "reference": "urn:uuid:6a0d16b2-75e6-4bfe-b6d1-ccfa2013be64"
        }
      }
    },
    {
      "fullUrl": "urn:uuid:a4042ef8-0f1b-4d53-af63-6cd856b30eae",
      "resource": {
        "resourceType": "Observation",
        "id": "a4042ef8-0f1b-4d53-af63-6cd856b30eae",
        "meta": {
          "profile": [
            "http://hl7.eu/fhir/laboratory/StructureDefinition/Observation-resultslab-eu-lab"
          ]
        },
        "performer": [
          {
            "display": "The Central European Lab"
          }
        ],
        "category": [
          {
            "coding": [
              {
                "system": "http://terminology.hl7.org/CodeSystem/observation-category",
                "code": "laboratory"
              }
            ]
          }
        ],
        "code": {
          "coding": [
            {
              "code": "5794-3",
              "system": "http://loinc.org",
              "display": "Hemoglobin [Presence] in Urine by Test strip"
            }
          ],
          "text": "Hemoglobin [Presence] in Urine by Test strip"
        },
        "text": {
          "status": "generated",
          "div": "<div xmlns=\"http://www.w3.org/1999/xhtml\"><table class=\"hl7__eu__lab__report\"><tr><th>Test</th><th>04-Dec-2015</th><th>Reference&#xA0;Range</th><th>Unit</th></tr><tr><td>Hemoglobin [Presence] in Urine by Test strip</td></tr></table></div>"
        },
        "status": "final",
        "subject": {
          "reference": "urn:uuid:36a67d81-b9c4-41ab-8718-11f0b336a2a5",
          "display": "Victor Lagarde"
        },
        "effectiveDateTime": "2015-12-04T04:48:18Z",
        "specimen": {
          "reference": "urn:uuid:6a0d16b2-75e6-4bfe-b6d1-ccfa2013be64"
        }
      }
    },
    {
      "fullUrl": "urn:uuid:ba6ada15-2157-4fc3-ab0a-c5d7b83bd59e",
      "resource": {
        "resourceType": "Observation",
        "id": "ba6ada15-2157-4fc3-ab0a-c5d7b83bd59e",
        "meta": {
          "profile": [
            "http://hl7.eu/fhir/laboratory/StructureDefinition/Observation-resultslab-eu-lab"
          ]
        },
        "performer": [
          {
            "display": "The Central European Lab"
          }
        ],
        "category": [
          {
            "coding": [
              {
                "system": "http://terminology.hl7.org/CodeSystem/observation-category",
                "code": "laboratory"
              }
            ]
          }
        ],
        "code": {
          "coding": [
            {
              "code": "5799-2",
              "system": "http://loinc.org",
              "display": "Leukocyte esterase [Presence] in Urine by Test strip"
            }
          ],
          "text": "Leukocyte esterase [Presence] in Urine by Test strip"
        },
        "text": {
          "status": "generated",
          "div": "<div xmlns=\"http://www.w3.org/1999/xhtml\"><table class=\"hl7__eu__lab__report\"><tr><th>Test</th><th>04-Dec-2015</th><th>Reference&#xA0;Range</th><th>Unit</th></tr><tr><td>Leukocyte esterase [Presence] in Urine by Test strip</td></tr></table></div>"
        },
        "status": "final",
        "subject": {
          "reference": "urn:uuid:36a67d81-b9c4-41ab-8718-11f0b336a2a5",
          "display": "Victor Lagarde"
        },
        "effectiveDateTime": "2015-12-04T04:48:18Z",
        "specimen": {
          "reference": "urn:uuid:6a0d16b2-75e6-4bfe-b6d1-ccfa2013be64"
        }
      }
    },
    {
      "fullUrl": "urn:uuid:a6b107b8-dbe4-4553-8fba-9e9e37d791e4",
      "resource": {
        "resourceType": "Observation",
        "id": "a6b107b8-dbe4-4553-8fba-9e9e37d791e4",
        "meta": {
          "profile": [
            "http://hl7.eu/fhir/laboratory/StructureDefinition/Observation-resultslab-eu-lab"
          ]
        },
        "performer": [
          {
            "display": "The Central European Lab"
          }
        ],
        "category": [
          {
            "coding": [
              {
                "system": "http://terminology.hl7.org/CodeSystem/observation-category",
                "code": "laboratory"
              }
            ]
          }
        ],
        "code": {
          "coding": [
            {
              "code": "4548-4",
              "system": "http://loinc.org",
              "display": "Hemoglobin A1c/Hemoglobin.total in Blood"
            }
          ],
          "text": "Hemoglobin A1c/Hemoglobin.total in Blood"
        },
        "valueQuantity": {
          "system": "http://unitsofmeasure.org",
          "value": 3.3,
          "unit": "%",
          "code": "%"
        },
        "referenceRange": [
          {
            "low": {
              "value": 4.3,
              "code": "%",
              "system": "http://unitsofmeasure.org"
            }
          },
          {
            "high": {
              "value": 6,
              "code": "%",
              "system": "http://unitsofmeasure.org"
            }
          }
        ],
        "interpretation": [
          {
            "coding": [
              {
                "code": "L",
                "system": "http://terminology.hl7.org/CodeSystem/v3-ObservationInterpretation",
                "display": "Low"
              }
            ]
          }
        ],
        "text": {
          "status": "generated",
          "div": "<div xmlns=\"http://www.w3.org/1999/xhtml\"><table class=\"hl7__eu__lab__report\"><tr><th>Test</th><th>04-Dec-2015</th><th>Reference&#xA0;Range</th><th>Unit</th></tr><tr><td>Hemoglobin A1c/Hemoglobin.total in Blood</td><td>3.3</td><td>4.3 - 6</td><td>L</td><td>%</td></tr></table></div>"
        },
        "status": "final",
        "subject": {
          "reference": "urn:uuid:36a67d81-b9c4-41ab-8718-11f0b336a2a5",
          "display": "Victor Lagarde"
        },
        "effectiveDateTime": "2015-12-04T04:48:18Z",
        "specimen": {
          "reference": "urn:uuid:38bf71b2-a101-4363-8b0f-a9bcdbfe06a4"
        }
      }
    },
    {
      "fullUrl": "urn:uuid:d869fa59-9b8d-43c5-91de-9b23e7d2728c",
      "resource": {
        "resourceType": "Device",
        "id": "d869fa59-9b8d-43c5-91de-9b23e7d2728c",
        "deviceName": [
          {
            "name": "SYNDERAI Synthetic Generator",
            "type": "manufacturer-name"
          }
        ],
        "version": [
          {
            "value": "5.0"
          }
        ],
        "text": {
          "status": "generated",
          "div": "<div xmlns=\"http://www.w3.org/1999/xhtml\">SYNDERAI Synthetic Generator v5.0</div>"
        },
        "status": "active\"",
        "distinctIdentifier": "synderai-generator-50",
        "manufacturer": "SYNDERAI Project"
      }
    },
    {
      "fullUrl": "urn:uuid:4dfb9656-d438-4b88-81fc-9334fd5aedb6",
      "resource": {
        "resourceType": "Provenance",
        "id": "4dfb9656-d438-4b88-81fc-9334fd5aedb6",
        "target": [
          {
            "reference": "Patient/36a67d81-b9c4-41ab-8718-11f0b336a2a5"
          },
          {
            "reference": "Bundle/120ef862-5e0a-4bfc-af4c-6c375bb26189"
          },
          {
            "reference": "Composition/a8c2d1d7-0c56-4b7d-a727-603d8433d9b3"
          },
          {
            "reference": "PractitionerRole/6959ece8-e35c-427e-8d5a-d8cdeddff095"
          },
          {
            "reference": "Practitioner/285f0039-0cce-4872-92d5-efd4e315c857"
          },
          {
            "reference": "PractitionerRole/67b2a461-22ef-4938-85dc-d56e303b4707"
          },
          {
            "reference": "Organization/7865fdbd-e238-4247-8f19-8cca074abe38"
          }
        ],
        "activity": {
          "text": "Synthetic Example Data Generation"
        },
        "policy": [
          "https://synderai.net/synderai-synthetic-data-policy"
        ],
        "agent": [
          {
            "type": {
              "text": "author"
            },
            "who": {
              "reference": "Device/d869fa59-9b8d-43c5-91de-9b23e7d2728c"
            }
          }
        ],
        "reason": [
          {
            "text": "Interoperability Testing and Training (non-clinical use)"
          }
        ],
        "text": {
          "status": "generated",
          "div": "<div xmlns=\"http://www.w3.org/1999/xhtml\">Provenance for SYNDERAI Synthetic Example Data Resource</div>"
        },
        "recorded": "2015-12-04T05:48:18Z"
      }
    },
    {
      "fullUrl": "urn:uuid:6959ece8-e35c-427e-8d5a-d8cdeddff095",
      "resource": {
        "resourceType": "PractitionerRole",
        "id": "6959ece8-e35c-427e-8d5a-d8cdeddff095",
        "meta": {
          "profile": [
            "http://hl7.eu/fhir/base/StructureDefinition/practitionerRole-eu"
          ]
        },
        "text": {
          "status": "generated",
          "div": "<div xmlns=\"http://www.w3.org/1999/xhtml\">Laboratory Role Id: 6959ece8-e35c-427e-8d5a-d8cdeddff095</div>"
        },
        "practitioner": {
          "reference": "urn:uuid:285f0039-0cce-4872-92d5-efd4e315c857"
        }
      }
    },
    {
      "fullUrl": "urn:uuid:285f0039-0cce-4872-92d5-efd4e315c857",
      "resource": {
        "resourceType": "Practitioner",
        "id": "285f0039-0cce-4872-92d5-efd4e315c857",
        "meta": {
          "profile": [
            "http://hl7.eu/fhir/base/StructureDefinition/practitioner-eu"
          ]
        },
        "identifier": [
          {
            "assigner": {
              "display": "HL7 Europe"
            },
            "system": "urn:oid:2.16.840.1.113883.2.51.999",
            "value": "aac3dc92-0be9-4488-aa64-f7d72f5ab7d3"
          }
        ],
        "name": [
          {
            "prefix": [
              "dr"
            ],
            "given": [
              "Ex"
            ],
            "family": "Ample"
          }
        ],
        "address": [
          {
            "line": [
              "Laboratoire Central Européenne",
              "Boulevard du Jardin Botanique 32"
            ],
            "postalCode": "1000",
            "city": "Brussels",
            "country": "Belgium"
          }
        ],
        "text": {
          "status": "generated",
          "div": "<div xmlns=\"http://www.w3.org/1999/xhtml\">Laboratory: Laboratoire Central Européenne, 1000 Brussels, Belgium</div>"
        }
      }
    }
  ],
  "type": "document",
  "timestamp": "2015-12-04T05:48:18Z"
}
