{
  "resourceType": "Bundle",
  "id": "ca73dc2b-141d-4351-b0dc-9cf77b301c30",
  "meta": {
    "profile": [
      "http://hl7.eu/fhir/laboratory/StructureDefinition/Bundle-eu-lab"
    ]
  },
  "identifier": {
    "assigner": {
      "display": "HL7 Europe"
    },
    "system": "urn:oid:2.16.840.1.113883.2.51.999",
    "value": "6cb31378-b5a0-4a52-abb2-10bde055e6ce"
  },
  "entry": [
    {
      "fullUrl": "urn:uuid:479480d2-b4b9-4110-b1d2-756f920aebb7",
      "resource": {
        "resourceType": "Composition",
        "id": "479480d2-b4b9-4110-b1d2-756f920aebb7",
        "meta": {
          "profile": [
            "http://hl7.eu/fhir/laboratory/StructureDefinition/Composition-eu-lab"
          ]
        },
        "identifier": {
          "assigner": {
            "display": "HL7 Europe"
          },
          "system": "urn:oid:2.16.840.1.113883.2.51.999",
          "value": "f1c0eaa7-8ff8-4570-a5e6-169d8cfc6223"
        },
        "author": [
          {
            "reference": "urn:uuid:b16ee363-85c0-414f-858c-18a72e2abd6f"
          }
        ],
        "category": [
          {
            "coding": [
              {
                "code": "26436-6",
                "system": "http://loinc.org",
                "display": "Laboratory studies (set)"
              }
            ]
          }
        ],
        "type": {
          "coding": [
            {
              "code": "11502-2",
              "system": "http://loinc.org",
              "display": "Laboratory report"
            }
          ],
          "text": "Laboratory Report"
        },
        "section": [
          {
            "code": {
              "coding": [
                {
                  "code": "26436-6",
                  "system": "http://loinc.org",
                  "display": "Laboratory studies (set)"
                }
              ],
              "text": "Laboratory studies"
            },
            "section": [
              {
                "code": {
                  "coding": [
                    {
                      "code": "$18723-7",
                      "system": "http://loinc.org",
                      "display": "Hematology studies (set)"
                    }
                  ],
                  "text": "Hematology"
                },
                "entry": [
                  {
                    "reference": "urn:uuid:f112a136-c208-403c-9739-cdc320697bce"
                  },
                  {
                    "reference": "urn:uuid:063c62c1-a604-4127-ab3b-58faf7fafc2a"
                  },
                  {
                    "reference": "urn:uuid:9a048fb7-b646-45f3-ae96-5abc70b8ce9f"
                  },
                  {
                    "reference": "urn:uuid:22def93e-bcd6-43d6-b62e-4352ca184c41"
                  },
                  {
                    "reference": "urn:uuid:4200b710-896a-4e7c-b759-2be7370939f5"
                  },
                  {
                    "reference": "urn:uuid:d8522d6b-2b16-4f64-b5c5-3f8838196174"
                  },
                  {
                    "reference": "urn:uuid:76d7a151-59c6-45cf-a30b-0d1d70dd983b"
                  },
                  {
                    "reference": "urn:uuid:8c410d3a-43b0-4a4b-9ad9-27195fdaf33c"
                  },
                  {
                    "reference": "urn:uuid:aac4ab89-ffbe-4e94-9503-1ecf63808765"
                  },
                  {
                    "reference": "urn:uuid:9e74ea00-af43-4109-bb9c-05b2a0156eed"
                  },
                  {
                    "reference": "urn:uuid:be176146-3c6c-4de1-bfc8-20ecc9af8445"
                  }
                ],
                "text": {
                  "status": "generated",
                  "div": "<div xmlns=\"http://www.w3.org/1999/xhtml\"><h3>Hematology</h3><table class=\"hl7__eu__lab__report\"><thead><tr><th>Test</th><th>09-APR-2024</th><th>Reference&#xA0;Range</th><th>Unit</th></tr></thead><tbody><tr><td>Leukocytes [#/volume] in Blood by Automated count</td><td>3.6</td><td>3.6 - 10.5</td><td>10*3/uL</td></tr><tr><td>Erythrocytes [#/volume] in Blood by Automated count</td><td><strong>5.2 H</strong></td><td>4.5 - 5</td><td>10*6/uL</td></tr><tr><td>Hemoglobin [Mass/volume] in Blood</td><td>12.3</td><td>12 - 15.5</td><td>g/dL</td></tr><tr><td>Hematocrit [Volume Fraction] of Blood by Automated count</td><td><strong>36.8 L</strong></td><td>37 - 52</td><td>%</td></tr><tr><td>MCV [Entitic volume] by Automated count</td><td>87.7</td><td>82 - 98</td><td>fL</td></tr><tr><td>MCH [Entitic mass] by Automated count</td><td>28.0</td><td>27 - 34.5</td><td>pg</td></tr><tr><td>MCHC [Mass/volume] by Automated count</td><td>34.7</td><td>32 - 37</td><td>g/dL</td></tr><tr><td>Erythrocyte distribution width [Entitic volume] by Automated count</td><td>42.5</td><td>36 - 55</td><td>fL</td></tr><tr><td>Platelets [#/volume] in Blood by Automated count</td><td>370.2</td><td>150 - 400</td><td>10*3/uL</td></tr><tr><td>Platelet distribution width [Entitic volume] in Blood by Automated count</td><td><strong>417.0 H</strong></td><td>11.6 - 17.4</td><td>fL</td></tr><tr><td>Platelet mean volume [Entitic volume] in Blood by Automated count</td><td>11.4</td><td>7.2 - 13.5</td><td>fL</td></tr></tbody></table></div>"
                },
                "title": "Hematology"
              },
              {
                "code": {
                  "coding": [
                    {
                      "code": "$18719-5",
                      "system": "http://loinc.org",
                      "display": "Chemistry studies (set)"
                    }
                  ],
                  "text": "Chemistry"
                },
                "entry": [
                  {
                    "reference": "urn:uuid:9f3ca84b-abff-4b5a-a350-2979acc7768b"
                  },
                  {
                    "reference": "urn:uuid:a94ad568-5328-4f07-9c34-273e491d1c8d"
                  },
                  {
                    "reference": "urn:uuid:4c0ff6b7-b31d-4e84-bd8d-e1bf504be60c"
                  },
                  {
                    "reference": "urn:uuid:70fcaa6e-bf61-4eed-8f01-785fa873f75a"
                  },
                  {
                    "reference": "urn:uuid:b5dfa060-e7a2-4457-9338-a7cb93e06647"
                  },
                  {
                    "reference": "urn:uuid:ecf3c6ca-7b68-481d-a2d2-722ee2964c17"
                  },
                  {
                    "reference": "urn:uuid:69df54ab-0772-4efc-9400-647b77f544f3"
                  },
                  {
                    "reference": "urn:uuid:e0ce40ef-75a6-432f-873d-49a7d6c33ff3"
                  },
                  {
                    "reference": "urn:uuid:2c1b0394-d7de-4453-a0e5-c74c96b6f258"
                  }
                ],
                "text": {
                  "status": "generated",
                  "div": "<div xmlns=\"http://www.w3.org/1999/xhtml\"><h3>Chemistry</h3><table class=\"hl7__eu__lab__report\"><thead><tr><th>Test</th><th>09-APR-2024</th><th>Reference&#xA0;Range</th><th>Unit</th></tr></thead><tbody><tr><td>Glucose [Mass/volume] in Serum or Plasma</td><td>75.4</td><td>70 - 139</td><td>mg/dL</td></tr><tr><td>Urea nitrogen [Mass/volume] in Serum or Plasma</td><td>16.0</td><td>7 - 20</td><td>mg/dL</td></tr><tr><td>Creatinine [Mass/volume] in Serum or Plasma</td><td><strong>1.9 H</strong></td><td>0.6 - 1.1</td><td>mg/dL</td></tr><tr><td>Calcium [Mass/volume] in Serum or Plasma</td><td>9.1</td><td>8.5 - 10.4</td><td>mg/dL</td></tr><tr><td>Sodium [Moles/volume] in Serum or Plasma</td><td>143.3</td><td>135 - 145</td><td>mmol/L</td></tr><tr><td>Potassium [Moles/volume] in Serum or Plasma</td><td>4.5</td><td>3.5 - 5.1</td><td>mmol/L</td></tr><tr><td>Chloride [Moles/volume] in Serum or Plasma</td><td>106.8</td><td>98 - 110</td><td>mmol/L</td></tr><tr><td>Carbon dioxide, total [Moles/volume] in Serum or Plasma</td><td><strong>21.5 L</strong></td><td>22 - 32</td><td>mmol/L</td></tr><tr><td>Ketones [Presence] in Urine by Test strip</td><td>Urine ketone test = +</td><td></td><td></td></tr></tbody></table></div>"
                },
                "title": "Chemistry"
              },
              {
                "code": {
                  "coding": [
                    {
                      "code": "$18729-4",
                      "system": "http://loinc.org",
                      "display": "Urinalysis studies (set)"
                    }
                  ],
                  "text": "Urinalysis"
                },
                "entry": [
                  {
                    "reference": "urn:uuid:cac547ee-1a1e-456c-9b00-2bc4ade933fd"
                  },
                  {
                    "reference": "urn:uuid:42a4621e-8ffa-41fa-b8ec-278d34b3e696"
                  },
                  {
                    "reference": "urn:uuid:38e661f1-6fa7-4564-8e78-b2045b78c906"
                  },
                  {
                    "reference": "urn:uuid:654c638f-5220-4c3e-a0c8-df216c68b725"
                  },
                  {
                    "reference": "urn:uuid:e7133436-0993-4ebf-896f-bc1ce04e0488"
                  },
                  {
                    "reference": "urn:uuid:7a39a1fa-345d-4f0d-a804-f3c7fc911211"
                  },
                  {
                    "reference": "urn:uuid:4a12a4ef-19dd-471d-89d0-ed25a75c3eb2"
                  },
                  {
                    "reference": "urn:uuid:803fbef9-e621-4949-a143-996960f6b333"
                  },
                  {
                    "reference": "urn:uuid:47ef0b7d-5ab9-465e-8759-4edb03466b3a"
                  },
                  {
                    "reference": "urn:uuid:07c7bd19-f38a-4a5b-a9c1-ef49e5678ee9"
                  },
                  {
                    "reference": "urn:uuid:aa836534-9e32-41fd-8488-5847116ecfbf"
                  },
                  {
                    "reference": "urn:uuid:250dbf08-c6f3-44c5-b892-19a11013b437"
                  }
                ],
                "text": {
                  "status": "generated",
                  "div": "<div xmlns=\"http://www.w3.org/1999/xhtml\"><h3>Urinalysis</h3><table class=\"hl7__eu__lab__report\"><thead><tr><th>Test</th><th>09-APR-2024</th><th>Reference&#xA0;Range</th><th>Unit</th></tr></thead><tbody><tr><td>Glucose [Mass/volume] in Urine by Test strip</td><td><strong>1.9 H</strong></td><td>0 - 0</td><td>mg/dL</td></tr><tr><td>Glucose [Presence] in Urine by Test strip</td><td>++</td><td></td><td></td></tr><tr><td>Bilirubin.total [Mass/volume] in Urine by Test strip</td><td>0.8</td><td>0 - 1.6</td><td>mg/dL</td></tr><tr><td>Bilirubin.total [Presence] in Urine by Test strip</td><td>Finding of bilirubin in urine</td><td></td><td></td></tr><tr><td>Ketones [Mass/volume] in Urine by Test strip</td><td><strong>18.3 H</strong></td><td>0 - 0.5</td><td>mg/dL</td></tr><tr><td>Specific gravity of Urine by Test strip</td><td><strong>1.0 L</strong></td><td>1.005 - 1.03</td><td>{nominal}</td></tr><tr><td>pH of Urine by Test strip</td><td>5.0</td><td>4.5 - 7.5</td><td>pH</td></tr><tr><td>Protein [Mass/volume] in Urine by Test strip</td><td><strong>262.4 H</strong></td><td>0 - 15</td><td>mg/dL</td></tr><tr><td>Protein [Presence] in Urine by Test strip</td><td>Urine protein test = ++</td><td></td><td></td></tr><tr><td>Nitrite [Presence] in Urine by Test strip</td><td>Urine nitrite negative</td><td></td><td></td></tr><tr><td>Hemoglobin [Presence] in Urine by Test strip</td><td>Urine blood test = negative</td><td></td><td></td></tr><tr><td>Leukocyte esterase [Presence] in Urine by Test strip</td><td>Urine leukocyte test negative</td><td></td><td></td></tr></tbody></table></div>"
                },
                "title": "Urinalysis"
              },
              {
                "code": {
                  "coding": [
                    {
                      "code": "$LP7846-1",
                      "system": "http://loinc.org",
                      "display": "Specimen information"
                    }
                  ],
                  "text": "Specimen information"
                },
                "entry": [
                  {
                    "reference": "urn:uuid:418a337a-5c69-473f-b88a-2cbb0ecc5bc7"
                  },
                  {
                    "reference": "urn:uuid:ab6eea23-cbe5-4174-9fc5-b648602d74d1"
                  },
                  {
                    "reference": "urn:uuid:108cfdfc-82fa-45a2-b65f-471ed2a39dba"
                  },
                  {
                    "reference": "urn:uuid:b9626763-719f-41c7-bfe8-0a839457e95a"
                  }
                ],
                "text": {
                  "status": "generated",
                  "div": "<div xmlns=\"http://www.w3.org/1999/xhtml\"><h3>Specimen information</h3><table class=\"hl7__eu__lab__report\"><thead><tr><th>Test</th><th>09-APR-2024</th><th>Specimen</th><th></th></tr></thead><tbody><tr><td>Appearance of Urine</td><td>Cloudy urine</td><td>Urine</td><td></td></tr><tr><td>Odor of Urine</td><td>Urine smell ammoniacal</td><td>Urine</td><td></td></tr><tr><td>Clarity of Urine</td><td>Translucent</td><td>Urine</td><td></td></tr><tr><td>Color of Urine</td><td>Brown color</td><td>Urine</td><td></td></tr></tbody></table></div>"
                },
                "title": "Specimen information"
              }
            ],
            "title": "Laboratory Report"
          },
          {
            "text": {
              "status": "generated",
              "div": "<div xmlns=\"http://www.w3.org/1999/xhtml\"><h3>Annotation</h3><table class=\"hl7__eu__lab__report\"><tr><th>Conclusion and Recommendations based on this report and previous findings known to us</th></tr><tr><td>The patient shows elevated serum creatinine, proteinuria, glycosuria, and ketonuria, suggesting possible renal dysfunction and impaired glucose metabolism (e.g., diabetes with possible ketoacidosis). Low total CO₂ may indicate metabolic acidosis. Urine is abnormal in appearance and color. Hematocrit is slightly low, and erythrocyte count is high, possibly reflecting dehydration or early anemia. Prompt clinical evaluation for renal and metabolic disorders is recommended.</td></tr></table></div>"
            },
            "code": {
              "coding": [
                {
                  "system": "http://loinc.org",
                  "code": "48767-8",
                  "display": "Annotation comment"
                }
              ]
            },
            "title": "Annotation comment"
          }
        ],
        "status": "final",
        "subject": {
          "reference": "urn:uuid:d3eb5628-50d6-4ccc-b8ae-da7e41097120",
          "display": "Hortense Gallet"
        },
        "date": "2024-04-09T22:16:45Z",
        "title": "Laboratory Report",
        "confidentiality": "N"
      }
    },
    {
      "fullUrl": "urn:uuid:d34ac583-d09b-41b9-9422-c50341929b32",
      "resource": {
        "resourceType": "DiagnosticReport",
        "id": "d34ac583-d09b-41b9-9422-c50341929b32",
        "meta": {
          "profile": [
            "http://hl7.eu/fhir/laboratory/StructureDefinition/DiagnosticReport-eu-lab"
          ]
        },
        "identifier": [
          {
            "assigner": {
              "display": "HL7 Europe"
            },
            "system": "urn:oid:2.16.840.1.113883.2.51.999",
            "value": "5ca51be3-2af8-4bdb-a2b2-0e7ed799efc9"
          }
        ],
        "extension": [
          {
            "url": "http://hl7.org/fhir/5.0/StructureDefinition/extension-DiagnosticReport.composition",
            "valueReference": {
              "reference": "urn:uuid:f1c0eaa7-8ff8-4570-a5e6-169d8cfc6223"
            }
          }
        ],
        "category": [
          {
            "coding": [
              {
                "code": "26436-6",
                "system": "http://loinc.org",
                "display": "Laboratory studies (set)"
              }
            ]
          }
        ],
        "specimen": [
          {
            "reference": "urn:uuid:b9a230a7-aed0-4391-a04a-aedc9ba227b6"
          },
          {
            "reference": "urn:uuid:47280bb9-ba92-4954-b27d-945a2482bc81"
          },
          {
            "reference": "urn:uuid:c27300db-57a6-4f4e-9d49-0f1fcdd82570"
          },
          {
            "reference": "urn:uuid:c27300db-57a6-4f4e-9d49-0f1fcdd82570"
          }
        ],
        "result": [
          {
            "reference": "urn:uuid:9f3ca84b-abff-4b5a-a350-2979acc7768b"
          },
          {
            "reference": "urn:uuid:a94ad568-5328-4f07-9c34-273e491d1c8d"
          },
          {
            "reference": "urn:uuid:4c0ff6b7-b31d-4e84-bd8d-e1bf504be60c"
          },
          {
            "reference": "urn:uuid:70fcaa6e-bf61-4eed-8f01-785fa873f75a"
          },
          {
            "reference": "urn:uuid:b5dfa060-e7a2-4457-9338-a7cb93e06647"
          },
          {
            "reference": "urn:uuid:ecf3c6ca-7b68-481d-a2d2-722ee2964c17"
          },
          {
            "reference": "urn:uuid:69df54ab-0772-4efc-9400-647b77f544f3"
          },
          {
            "reference": "urn:uuid:e0ce40ef-75a6-432f-873d-49a7d6c33ff3"
          },
          {
            "reference": "urn:uuid:418a337a-5c69-473f-b88a-2cbb0ecc5bc7"
          },
          {
            "reference": "urn:uuid:ab6eea23-cbe5-4174-9fc5-b648602d74d1"
          },
          {
            "reference": "urn:uuid:108cfdfc-82fa-45a2-b65f-471ed2a39dba"
          },
          {
            "reference": "urn:uuid:b9626763-719f-41c7-bfe8-0a839457e95a"
          },
          {
            "reference": "urn:uuid:cac547ee-1a1e-456c-9b00-2bc4ade933fd"
          },
          {
            "reference": "urn:uuid:42a4621e-8ffa-41fa-b8ec-278d34b3e696"
          },
          {
            "reference": "urn:uuid:38e661f1-6fa7-4564-8e78-b2045b78c906"
          },
          {
            "reference": "urn:uuid:654c638f-5220-4c3e-a0c8-df216c68b725"
          },
          {
            "reference": "urn:uuid:e7133436-0993-4ebf-896f-bc1ce04e0488"
          },
          {
            "reference": "urn:uuid:2c1b0394-d7de-4453-a0e5-c74c96b6f258"
          },
          {
            "reference": "urn:uuid:7a39a1fa-345d-4f0d-a804-f3c7fc911211"
          },
          {
            "reference": "urn:uuid:4a12a4ef-19dd-471d-89d0-ed25a75c3eb2"
          },
          {
            "reference": "urn:uuid:803fbef9-e621-4949-a143-996960f6b333"
          },
          {
            "reference": "urn:uuid:47ef0b7d-5ab9-465e-8759-4edb03466b3a"
          },
          {
            "reference": "urn:uuid:07c7bd19-f38a-4a5b-a9c1-ef49e5678ee9"
          },
          {
            "reference": "urn:uuid:aa836534-9e32-41fd-8488-5847116ecfbf"
          },
          {
            "reference": "urn:uuid:250dbf08-c6f3-44c5-b892-19a11013b437"
          },
          {
            "reference": "urn:uuid:f112a136-c208-403c-9739-cdc320697bce"
          },
          {
            "reference": "urn:uuid:063c62c1-a604-4127-ab3b-58faf7fafc2a"
          },
          {
            "reference": "urn:uuid:9a048fb7-b646-45f3-ae96-5abc70b8ce9f"
          },
          {
            "reference": "urn:uuid:22def93e-bcd6-43d6-b62e-4352ca184c41"
          },
          {
            "reference": "urn:uuid:4200b710-896a-4e7c-b759-2be7370939f5"
          },
          {
            "reference": "urn:uuid:d8522d6b-2b16-4f64-b5c5-3f8838196174"
          },
          {
            "reference": "urn:uuid:76d7a151-59c6-45cf-a30b-0d1d70dd983b"
          },
          {
            "reference": "urn:uuid:8c410d3a-43b0-4a4b-9ad9-27195fdaf33c"
          },
          {
            "reference": "urn:uuid:aac4ab89-ffbe-4e94-9503-1ecf63808765"
          },
          {
            "reference": "urn:uuid:9e74ea00-af43-4109-bb9c-05b2a0156eed"
          },
          {
            "reference": "urn:uuid:be176146-3c6c-4de1-bfc8-20ecc9af8445"
          }
        ],
        "status": "registered",
        "code": {
          "coding": [
            {
              "code": "11502-2",
              "system": "http://loinc.org",
              "display": "Laboratory report"
            }
          ]
        },
        "subject": {
          "reference": "urn:uuid:d3eb5628-50d6-4ccc-b8ae-da7e41097120",
          "display": "Hortense Gallet"
        }
      }
    },
    {
      "fullUrl": "urn:uuid:d3eb5628-50d6-4ccc-b8ae-da7e41097120",
      "resource": {
        "resourceType": "Patient",
        "id": "d3eb5628-50d6-4ccc-b8ae-da7e41097120",
        "meta": {
          "security": [
            {
              "system": "http://terminology.hl7.org/CodeSystem/v3-ActReason",
              "code": "HTEST"
            },
            {
              "system": "http://terminology.hl7.org/CodeSystem/v3-ActReason",
              "code": "TRAIN"
            }
          ],
          "tag": [
            {
              "system": "https://synderai.net/fhir/CodeSystem/tags",
              "code": "synthetic",
              "display": "SYNDERAI Synthetic data"
            }
          ],
          "profile": [
            "http://hl7.eu/fhir/base/StructureDefinition/patient-eu-core"
          ]
        },
        "identifier": [
          {
            "type": {
              "coding": [
                {
                  "code": "PT",
                  "system": "http://terminology.hl7.org/CodeSystem/v2-0203"
                }
              ]
            },
            "system": "http://ec.europa.eu/identifier/eci",
            "value": "7727-126450-7"
          },
          {
            "type": {
              "coding": [
                {
                  "code": "MR",
                  "system": "http://terminology.hl7.org/CodeSystem/v2-0203"
                }
              ]
            },
            "system": "http://local.setting.eu/identifier",
            "value": "7f40b956-404d-dd5b-92ca-442ee97c8277"
          }
        ],
        "name": [
          {
            "family": "Gallet"
          },
          {
            "given": [
              "Hortense"
            ]
          },
          {
            "text": "Hortense Gallet"
          }
        ],
        "address": [
          {
            "line": [
              "98, boulevard de Faure"
            ],
            "use": "home",
            "type": "physical",
            "postalCode": "03210",
            "city": "Besson",
            "country": "France"
          }
        ],
        "telecom": [
          {
            "system": "phone",
            "value": "03 26 87 89 04"
          }
        ],
        "extension": [
          {
            "url": "http://hl7.org/fhir/StructureDefinition/patient-nationality",
            "valueCodeableConcept": {
              "coding": [
                {
                  "code": "FR",
                  "system": "http://hl7.org/fhir/ValueSet/country"
                }
              ]
            }
          }
        ],
        "text": {
          "status": "generated",
          "div": "<div xmlns=\"http://www.w3.org/1999/xhtml\"><table class=\"hl7__ips\"><tr><td>Hortense Gallet</td><td>female</td><td>14-Feb-1967</td></tr></table></div>"
        },
        "gender": "female",
        "birthDate": "1967-02-14"
      }
    },
    {
      "fullUrl": "urn:uuid:1ade2a1c-d6df-48ae-b9c1-9051cb7f44c0",
      "resource": {
        "resourceType": "ServiceRequest",
        "id": "1ade2a1c-d6df-48ae-b9c1-9051cb7f44c0",
        "meta": {
          "profile": [
            "http://hl7.eu/fhir/laboratory/StructureDefinition/ServiceRequest-eu-lab"
          ]
        },
        "identifier": [
          {
            "system": "http://example.org",
            "value": "35980de2-0e77-474c-a7de-971693c09b4e"
          }
        ],
        "specimen": [
          {
            "reference": "urn:uuid:b9a230a7-aed0-4391-a04a-aedc9ba227b6"
          },
          {
            "reference": "urn:uuid:47280bb9-ba92-4954-b27d-945a2482bc81"
          },
          {
            "reference": "urn:uuid:c27300db-57a6-4f4e-9d49-0f1fcdd82570"
          }
        ],
        "reasonCode": [
          {
            "coding": [
              {
                "code": "431856006",
                "system": "http://snomed.info/sct",
                "display": "Chronic kidney disease stage 2"
              }
            ]
          },
          {
            "coding": [
              {
                "code": "90781000119102",
                "system": "http://snomed.info/sct",
                "display": "Microalbuminuria due to type 2 diabetes mellitus"
              }
            ]
          },
          {
            "coding": [
              {
                "code": "127013003",
                "system": "http://snomed.info/sct",
                "display": "Disorder of kidney due to diabetes mellitus"
              }
            ]
          },
          {
            "coding": [
              {
                "code": "431855005",
                "system": "http://snomed.info/sct",
                "display": "Chronic kidney disease stage 1"
              }
            ]
          },
          {
            "coding": [
              {
                "code": "59621000",
                "system": "http://snomed.info/sct",
                "display": "Essential hypertension"
              }
            ]
          }
        ],
        "status": "active",
        "intent": "order",
        "code": {
          "coding": [
            {
              "code": "108252007",
              "system": "http://snomed.info/sct",
              "display": "Laboratory procedure"
            }
          ]
        },
        "subject": {
          "reference": "urn:uuid:d3eb5628-50d6-4ccc-b8ae-da7e41097120",
          "display": "Hortense Gallet"
        },
        "requester": {
          "reference": "urn:uuid:b5540b8c-1260-4787-8464-1a014bada40c"
        }
      }
    },
    {
      "fullUrl": "urn:uuid:b5540b8c-1260-4787-8464-1a014bada40c",
      "resource": {
        "resourceType": "PractitionerRole",
        "id": "b5540b8c-1260-4787-8464-1a014bada40c",
        "meta": {
          "profile": [
            "http://hl7.eu/fhir/base/StructureDefinition/practitionerRole-eu"
          ]
        },
        "text": {
          "status": "generated",
          "div": "<div xmlns=\"http://www.w3.org/1999/xhtml\">Provider Role Id: b5540b8c-1260-4787-8464-1a014bada40c</div>"
        },
        "organization": {
          "reference": "urn:uuid:9a16fb7f-d5f9-4968-9ae8-4ba2d841b774"
        }
      }
    },
    {
      "fullUrl": "urn:uuid:9a16fb7f-d5f9-4968-9ae8-4ba2d841b774",
      "resource": {
        "resourceType": "Organization",
        "id": "9a16fb7f-d5f9-4968-9ae8-4ba2d841b774",
        "meta": {
          "profile": [
            "http://hl7.eu/fhir/base/StructureDefinition/organization-eu"
          ]
        },
        "identifier": [
          {
            "assigner": {
              "display": "HL7 Europe"
            },
            "system": "urn:oid:2.16.840.1.113883.2.51.999",
            "value": "0131b870-8bc1-47cd-b295-4f00ef53f4fb"
          }
        ],
        "address": [
          {
            "line": [
              "Rue Jean Jaurès 140"
            ],
            "city": "Vichy",
            "postalCode": "03200",
            "country": "France"
          }
        ],
        "text": {
          "status": "generated",
          "div": "<div xmlns=\"http://www.w3.org/1999/xhtml\">Provider Organization: Centre La Chrysalide</div>"
        },
        "name": "Centre La Chrysalide"
      }
    },
    {
      "fullUrl": "urn:uuid:b9a230a7-aed0-4391-a04a-aedc9ba227b6",
      "resource": {
        "resourceType": "Specimen",
        "id": "b9a230a7-aed0-4391-a04a-aedc9ba227b6",
        "meta": {
          "profile": [
            "http://hl7.eu/fhir/laboratory/StructureDefinition/Specimen-eu-lab"
          ]
        },
        "collection": {
          "collectedDateTime": "2024-04-09"
        },
        "text": {
          "status": "generated",
          "div": "<div xmlns=\"http://www.w3.org/1999/xhtml\"><table class=\"hl7__eu__lab__report\"><tr><th>Specimen</th><th>Collection Date</th></tr><tr><td>Acellular blood (serum or plasma) specimen</td><td><span class=\"nb\">09-Apr-2024</span></td></tr></table></div>"
        },
        "type": {
          "coding": [
            {
              "code": "122592007",
              "system": "http://snomed.info/sct",
              "display": "Acellular blood (serum or plasma) specimen"
            }
          ]
        }
      }
    },
    {
      "fullUrl": "urn:uuid:47280bb9-ba92-4954-b27d-945a2482bc81",
      "resource": {
        "resourceType": "Specimen",
        "id": "47280bb9-ba92-4954-b27d-945a2482bc81",
        "meta": {
          "profile": [
            "http://hl7.eu/fhir/laboratory/StructureDefinition/Specimen-eu-lab"
          ]
        },
        "collection": {
          "collectedDateTime": "2024-04-09"
        },
        "text": {
          "status": "generated",
          "div": "<div xmlns=\"http://www.w3.org/1999/xhtml\"><table class=\"hl7__eu__lab__report\"><tr><th>Specimen</th><th>Collection Date</th></tr><tr><td>Urine specimen</td><td><span class=\"nb\">09-Apr-2024</span></td></tr></table></div>"
        },
        "type": {
          "coding": [
            {
              "code": "122575003",
              "system": "http://snomed.info/sct",
              "display": "Urine specimen"
            }
          ]
        }
      }
    },
    {
      "fullUrl": "urn:uuid:c27300db-57a6-4f4e-9d49-0f1fcdd82570",
      "resource": {
        "resourceType": "Specimen",
        "id": "c27300db-57a6-4f4e-9d49-0f1fcdd82570",
        "meta": {
          "profile": [
            "http://hl7.eu/fhir/laboratory/StructureDefinition/Specimen-eu-lab"
          ]
        },
        "collection": {
          "collectedDateTime": "2024-04-09"
        },
        "text": {
          "status": "generated",
          "div": "<div xmlns=\"http://www.w3.org/1999/xhtml\"><table class=\"hl7__eu__lab__report\"><tr><th>Specimen</th><th>Collection Date</th></tr><tr><td>Whole blood specimen (specimen)</td><td><span class=\"nb\">09-Apr-2024</span></td></tr></table></div>"
        },
        "type": {
          "coding": [
            {
              "code": "258580003",
              "system": "http://snomed.info/sct",
              "display": "Whole blood specimen (specimen)"
            }
          ]
        }
      }
    },
    {
      "fullUrl": "urn:uuid:c27300db-57a6-4f4e-9d49-0f1fcdd82570",
      "resource": {
        "resourceType": "Specimen",
        "id": "c27300db-57a6-4f4e-9d49-0f1fcdd82570",
        "meta": {
          "profile": [
            "http://hl7.eu/fhir/laboratory/StructureDefinition/Specimen-eu-lab"
          ]
        },
        "collection": {
          "collectedDateTime": "2024-04-09"
        },
        "text": {
          "status": "generated",
          "div": "<div xmlns=\"http://www.w3.org/1999/xhtml\"><table class=\"hl7__eu__lab__report\"><tr><th>Specimen</th><th>Collection Date</th></tr><tr><td>Whole blood specimen (specimen)</td><td><span class=\"nb\">09-Apr-2024</span></td></tr></table></div>"
        },
        "type": {
          "coding": [
            {
              "code": "258580003",
              "system": "http://snomed.info/sct",
              "display": "Whole blood specimen (specimen)"
            }
          ]
        }
      }
    },
    {
      "fullUrl": "urn:uuid:9f3ca84b-abff-4b5a-a350-2979acc7768b",
      "resource": {
        "resourceType": "Observation",
        "id": "9f3ca84b-abff-4b5a-a350-2979acc7768b",
        "meta": {
          "profile": [
            "http://hl7.eu/fhir/laboratory/StructureDefinition/Observation-resultslab-eu-lab"
          ]
        },
        "performer": [
          {
            "display": "The Central European Lab"
          }
        ],
        "category": [
          {
            "coding": [
              {
                "system": "http://terminology.hl7.org/CodeSystem/observation-category",
                "code": "laboratory"
              }
            ]
          }
        ],
        "code": {
          "coding": [
            {
              "code": "2345-7",
              "system": "http://loinc.org",
              "display": "Glucose [Mass/volume] in Serum or Plasma"
            }
          ],
          "text": "Glucose [Mass/volume] in Serum or Plasma"
        },
        "valueQuantity": {
          "system": "http://unitsofmeasure.org",
          "value": 75.4,
          "unit": "mg/dL",
          "code": "mg/dL"
        },
        "referenceRange": [
          {
            "low": {
              "value": 70,
              "code": "mg/dL",
              "system": "http://unitsofmeasure.org"
            }
          },
          {
            "high": {
              "value": 139,
              "code": "mg/dL",
              "system": "http://unitsofmeasure.org"
            }
          }
        ],
        "text": {
          "status": "generated",
          "div": "<div xmlns=\"http://www.w3.org/1999/xhtml\"><table class=\"hl7__eu__lab__report\"><tr><th>Test</th><th>09-Apr-2024</th><th>Reference&#xA0;Range</th><th>Unit</th></tr><tr><td>Glucose [Mass/volume] in Serum or Plasma</td><td>75.4</td><td>70 - 139</td><td></td><td>mg/dL</td></tr></table></div>"
        },
        "status": "final",
        "subject": {
          "reference": "urn:uuid:d3eb5628-50d6-4ccc-b8ae-da7e41097120",
          "display": "Hortense Gallet"
        },
        "effectiveDateTime": "2024-04-09T20:16:45Z",
        "specimen": {
          "reference": "urn:uuid:b9a230a7-aed0-4391-a04a-aedc9ba227b6"
        }
      }
    },
    {
      "fullUrl": "urn:uuid:a94ad568-5328-4f07-9c34-273e491d1c8d",
      "resource": {
        "resourceType": "Observation",
        "id": "a94ad568-5328-4f07-9c34-273e491d1c8d",
        "meta": {
          "profile": [
            "http://hl7.eu/fhir/laboratory/StructureDefinition/Observation-resultslab-eu-lab"
          ]
        },
        "performer": [
          {
            "display": "The Central European Lab"
          }
        ],
        "category": [
          {
            "coding": [
              {
                "system": "http://terminology.hl7.org/CodeSystem/observation-category",
                "code": "laboratory"
              }
            ]
          }
        ],
        "code": {
          "coding": [
            {
              "code": "3094-0",
              "system": "http://loinc.org",
              "display": "Urea nitrogen [Mass/volume] in Serum or Plasma"
            }
          ],
          "text": "Urea nitrogen [Mass/volume] in Serum or Plasma"
        },
        "valueQuantity": {
          "system": "http://unitsofmeasure.org",
          "value": 16,
          "unit": "mg/dL",
          "code": "mg/dL"
        },
        "referenceRange": [
          {
            "low": {
              "value": 7,
              "code": "mg/dL",
              "system": "http://unitsofmeasure.org"
            }
          },
          {
            "high": {
              "value": 20,
              "code": "mg/dL",
              "system": "http://unitsofmeasure.org"
            }
          }
        ],
        "text": {
          "status": "generated",
          "div": "<div xmlns=\"http://www.w3.org/1999/xhtml\"><table class=\"hl7__eu__lab__report\"><tr><th>Test</th><th>09-Apr-2024</th><th>Reference&#xA0;Range</th><th>Unit</th></tr><tr><td>Urea nitrogen [Mass/volume] in Serum or Plasma</td><td>16.0</td><td>7 - 20</td><td></td><td>mg/dL</td></tr></table></div>"
        },
        "status": "final",
        "subject": {
          "reference": "urn:uuid:d3eb5628-50d6-4ccc-b8ae-da7e41097120",
          "display": "Hortense Gallet"
        },
        "effectiveDateTime": "2024-04-09T20:16:45Z",
        "specimen": {
          "reference": "urn:uuid:b9a230a7-aed0-4391-a04a-aedc9ba227b6"
        }
      }
    },
    {
      "fullUrl": "urn:uuid:4c0ff6b7-b31d-4e84-bd8d-e1bf504be60c",
      "resource": {
        "resourceType": "Observation",
        "id": "4c0ff6b7-b31d-4e84-bd8d-e1bf504be60c",
        "meta": {
          "profile": [
            "http://hl7.eu/fhir/laboratory/StructureDefinition/Observation-resultslab-eu-lab"
          ]
        },
        "performer": [
          {
            "display": "The Central European Lab"
          }
        ],
        "category": [
          {
            "coding": [
              {
                "system": "http://terminology.hl7.org/CodeSystem/observation-category",
                "code": "laboratory"
              }
            ]
          }
        ],
        "code": {
          "coding": [
            {
              "code": "2160-0",
              "system": "http://loinc.org",
              "display": "Creatinine [Mass/volume] in Serum or Plasma"
            }
          ],
          "text": "Creatinine [Mass/volume] in Serum or Plasma"
        },
        "valueQuantity": {
          "system": "http://unitsofmeasure.org",
          "value": 1.9,
          "unit": "mg/dL",
          "code": "mg/dL"
        },
        "referenceRange": [
          {
            "low": {
              "value": 0.6,
              "code": "mg/dL",
              "system": "http://unitsofmeasure.org"
            }
          },
          {
            "high": {
              "value": 1.1,
              "code": "mg/dL",
              "system": "http://unitsofmeasure.org"
            }
          }
        ],
        "interpretation": [
          {
            "coding": [
              {
                "code": "H",
                "system": "http://terminology.hl7.org/CodeSystem/v3-ObservationInterpretation",
                "display": "High"
              }
            ]
          }
        ],
        "text": {
          "status": "generated",
          "div": "<div xmlns=\"http://www.w3.org/1999/xhtml\"><table class=\"hl7__eu__lab__report\"><tr><th>Test</th><th>09-Apr-2024</th><th>Reference&#xA0;Range</th><th>Unit</th></tr><tr><td>Creatinine [Mass/volume] in Serum or Plasma</td><td>1.9</td><td>0.6 - 1.1</td><td>H</td><td>mg/dL</td></tr></table></div>"
        },
        "status": "final",
        "subject": {
          "reference": "urn:uuid:d3eb5628-50d6-4ccc-b8ae-da7e41097120",
          "display": "Hortense Gallet"
        },
        "effectiveDateTime": "2024-04-09T20:16:45Z",
        "specimen": {
          "reference": "urn:uuid:b9a230a7-aed0-4391-a04a-aedc9ba227b6"
        }
      }
    },
    {
      "fullUrl": "urn:uuid:70fcaa6e-bf61-4eed-8f01-785fa873f75a",
      "resource": {
        "resourceType": "Observation",
        "id": "70fcaa6e-bf61-4eed-8f01-785fa873f75a",
        "meta": {
          "profile": [
            "http://hl7.eu/fhir/laboratory/StructureDefinition/Observation-resultslab-eu-lab"
          ]
        },
        "performer": [
          {
            "display": "The Central European Lab"
          }
        ],
        "category": [
          {
            "coding": [
              {
                "system": "http://terminology.hl7.org/CodeSystem/observation-category",
                "code": "laboratory"
              }
            ]
          }
        ],
        "code": {
          "coding": [
            {
              "code": "17861-6",
              "system": "http://loinc.org",
              "display": "Calcium [Mass/volume] in Serum or Plasma"
            }
          ],
          "text": "Calcium [Mass/volume] in Serum or Plasma"
        },
        "valueQuantity": {
          "system": "http://unitsofmeasure.org",
          "value": 9.1,
          "unit": "mg/dL",
          "code": "mg/dL"
        },
        "referenceRange": [
          {
            "low": {
              "value": 8.5,
              "code": "mg/dL",
              "system": "http://unitsofmeasure.org"
            }
          },
          {
            "high": {
              "value": 10.4,
              "code": "mg/dL",
              "system": "http://unitsofmeasure.org"
            }
          }
        ],
        "text": {
          "status": "generated",
          "div": "<div xmlns=\"http://www.w3.org/1999/xhtml\"><table class=\"hl7__eu__lab__report\"><tr><th>Test</th><th>09-Apr-2024</th><th>Reference&#xA0;Range</th><th>Unit</th></tr><tr><td>Calcium [Mass/volume] in Serum or Plasma</td><td>9.1</td><td>8.5 - 10.4</td><td></td><td>mg/dL</td></tr></table></div>"
        },
        "status": "final",
        "subject": {
          "reference": "urn:uuid:d3eb5628-50d6-4ccc-b8ae-da7e41097120",
          "display": "Hortense Gallet"
        },
        "effectiveDateTime": "2024-04-09T20:16:45Z",
        "specimen": {
          "reference": "urn:uuid:b9a230a7-aed0-4391-a04a-aedc9ba227b6"
        }
      }
    },
    {
      "fullUrl": "urn:uuid:b5dfa060-e7a2-4457-9338-a7cb93e06647",
      "resource": {
        "resourceType": "Observation",
        "id": "b5dfa060-e7a2-4457-9338-a7cb93e06647",
        "meta": {
          "profile": [
            "http://hl7.eu/fhir/laboratory/StructureDefinition/Observation-resultslab-eu-lab"
          ]
        },
        "performer": [
          {
            "display": "The Central European Lab"
          }
        ],
        "category": [
          {
            "coding": [
              {
                "system": "http://terminology.hl7.org/CodeSystem/observation-category",
                "code": "laboratory"
              }
            ]
          }
        ],
        "code": {
          "coding": [
            {
              "code": "2951-2",
              "system": "http://loinc.org",
              "display": "Sodium [Moles/volume] in Serum or Plasma"
            }
          ],
          "text": "Sodium [Moles/volume] in Serum or Plasma"
        },
        "valueQuantity": {
          "system": "http://unitsofmeasure.org",
          "value": 143.3,
          "unit": "mmol/L",
          "code": "mmol/L"
        },
        "referenceRange": [
          {
            "low": {
              "value": 135,
              "code": "mmol/L",
              "system": "http://unitsofmeasure.org"
            }
          },
          {
            "high": {
              "value": 145,
              "code": "mmol/L",
              "system": "http://unitsofmeasure.org"
            }
          }
        ],
        "text": {
          "status": "generated",
          "div": "<div xmlns=\"http://www.w3.org/1999/xhtml\"><table class=\"hl7__eu__lab__report\"><tr><th>Test</th><th>09-Apr-2024</th><th>Reference&#xA0;Range</th><th>Unit</th></tr><tr><td>Sodium [Moles/volume] in Serum or Plasma</td><td>143.3</td><td>135 - 145</td><td></td><td>mmol/L</td></tr></table></div>"
        },
        "status": "final",
        "subject": {
          "reference": "urn:uuid:d3eb5628-50d6-4ccc-b8ae-da7e41097120",
          "display": "Hortense Gallet"
        },
        "effectiveDateTime": "2024-04-09T20:16:45Z",
        "specimen": {
          "reference": "urn:uuid:b9a230a7-aed0-4391-a04a-aedc9ba227b6"
        }
      }
    },
    {
      "fullUrl": "urn:uuid:ecf3c6ca-7b68-481d-a2d2-722ee2964c17",
      "resource": {
        "resourceType": "Observation",
        "id": "ecf3c6ca-7b68-481d-a2d2-722ee2964c17",
        "meta": {
          "profile": [
            "http://hl7.eu/fhir/laboratory/StructureDefinition/Observation-resultslab-eu-lab"
          ]
        },
        "performer": [
          {
            "display": "The Central European Lab"
          }
        ],
        "category": [
          {
            "coding": [
              {
                "system": "http://terminology.hl7.org/CodeSystem/observation-category",
                "code": "laboratory"
              }
            ]
          }
        ],
        "code": {
          "coding": [
            {
              "code": "2823-3",
              "system": "http://loinc.org",
              "display": "Potassium [Moles/volume] in Serum or Plasma"
            }
          ],
          "text": "Potassium [Moles/volume] in Serum or Plasma"
        },
        "valueQuantity": {
          "system": "http://unitsofmeasure.org",
          "value": 4.5,
          "unit": "mmol/L",
          "code": "mmol/L"
        },
        "referenceRange": [
          {
            "low": {
              "value": 3.5,
              "code": "mmol/L",
              "system": "http://unitsofmeasure.org"
            }
          },
          {
            "high": {
              "value": 5.1,
              "code": "mmol/L",
              "system": "http://unitsofmeasure.org"
            }
          }
        ],
        "text": {
          "status": "generated",
          "div": "<div xmlns=\"http://www.w3.org/1999/xhtml\"><table class=\"hl7__eu__lab__report\"><tr><th>Test</th><th>09-Apr-2024</th><th>Reference&#xA0;Range</th><th>Unit</th></tr><tr><td>Potassium [Moles/volume] in Serum or Plasma</td><td>4.5</td><td>3.5 - 5.1</td><td></td><td>mmol/L</td></tr></table></div>"
        },
        "status": "final",
        "subject": {
          "reference": "urn:uuid:d3eb5628-50d6-4ccc-b8ae-da7e41097120",
          "display": "Hortense Gallet"
        },
        "effectiveDateTime": "2024-04-09T20:16:45Z",
        "specimen": {
          "reference": "urn:uuid:b9a230a7-aed0-4391-a04a-aedc9ba227b6"
        }
      }
    },
    {
      "fullUrl": "urn:uuid:69df54ab-0772-4efc-9400-647b77f544f3",
      "resource": {
        "resourceType": "Observation",
        "id": "69df54ab-0772-4efc-9400-647b77f544f3",
        "meta": {
          "profile": [
            "http://hl7.eu/fhir/laboratory/StructureDefinition/Observation-resultslab-eu-lab"
          ]
        },
        "performer": [
          {
            "display": "The Central European Lab"
          }
        ],
        "category": [
          {
            "coding": [
              {
                "system": "http://terminology.hl7.org/CodeSystem/observation-category",
                "code": "laboratory"
              }
            ]
          }
        ],
        "code": {
          "coding": [
            {
              "code": "2075-0",
              "system": "http://loinc.org",
              "display": "Chloride [Moles/volume] in Serum or Plasma"
            }
          ],
          "text": "Chloride [Moles/volume] in Serum or Plasma"
        },
        "valueQuantity": {
          "system": "http://unitsofmeasure.org",
          "value": 106.8,
          "unit": "mmol/L",
          "code": "mmol/L"
        },
        "referenceRange": [
          {
            "low": {
              "value": 98,
              "code": "mmol/L",
              "system": "http://unitsofmeasure.org"
            }
          },
          {
            "high": {
              "value": 110,
              "code": "mmol/L",
              "system": "http://unitsofmeasure.org"
            }
          }
        ],
        "text": {
          "status": "generated",
          "div": "<div xmlns=\"http://www.w3.org/1999/xhtml\"><table class=\"hl7__eu__lab__report\"><tr><th>Test</th><th>09-Apr-2024</th><th>Reference&#xA0;Range</th><th>Unit</th></tr><tr><td>Chloride [Moles/volume] in Serum or Plasma</td><td>106.8</td><td>98 - 110</td><td></td><td>mmol/L</td></tr></table></div>"
        },
        "status": "final",
        "subject": {
          "reference": "urn:uuid:d3eb5628-50d6-4ccc-b8ae-da7e41097120",
          "display": "Hortense Gallet"
        },
        "effectiveDateTime": "2024-04-09T20:16:45Z",
        "specimen": {
          "reference": "urn:uuid:b9a230a7-aed0-4391-a04a-aedc9ba227b6"
        }
      }
    },
    {
      "fullUrl": "urn:uuid:e0ce40ef-75a6-432f-873d-49a7d6c33ff3",
      "resource": {
        "resourceType": "Observation",
        "id": "e0ce40ef-75a6-432f-873d-49a7d6c33ff3",
        "meta": {
          "profile": [
            "http://hl7.eu/fhir/laboratory/StructureDefinition/Observation-resultslab-eu-lab"
          ]
        },
        "performer": [
          {
            "display": "The Central European Lab"
          }
        ],
        "category": [
          {
            "coding": [
              {
                "system": "http://terminology.hl7.org/CodeSystem/observation-category",
                "code": "laboratory"
              }
            ]
          }
        ],
        "code": {
          "coding": [
            {
              "code": "2028-9",
              "system": "http://loinc.org",
              "display": "Carbon dioxide, total [Moles/volume] in Serum or Plasma"
            }
          ],
          "text": "Carbon dioxide, total [Moles/volume] in Serum or Plasma"
        },
        "valueQuantity": {
          "system": "http://unitsofmeasure.org",
          "value": 21.5,
          "unit": "mmol/L",
          "code": "mmol/L"
        },
        "referenceRange": [
          {
            "low": {
              "value": 22,
              "code": "mmol/L",
              "system": "http://unitsofmeasure.org"
            }
          },
          {
            "high": {
              "value": 32,
              "code": "mmol/L",
              "system": "http://unitsofmeasure.org"
            }
          }
        ],
        "interpretation": [
          {
            "coding": [
              {
                "code": "L",
                "system": "http://terminology.hl7.org/CodeSystem/v3-ObservationInterpretation",
                "display": "Low"
              }
            ]
          }
        ],
        "text": {
          "status": "generated",
          "div": "<div xmlns=\"http://www.w3.org/1999/xhtml\"><table class=\"hl7__eu__lab__report\"><tr><th>Test</th><th>09-Apr-2024</th><th>Reference&#xA0;Range</th><th>Unit</th></tr><tr><td>Carbon dioxide, total [Moles/volume] in Serum or Plasma</td><td>21.5</td><td>22 - 32</td><td>L</td><td>mmol/L</td></tr></table></div>"
        },
        "status": "final",
        "subject": {
          "reference": "urn:uuid:d3eb5628-50d6-4ccc-b8ae-da7e41097120",
          "display": "Hortense Gallet"
        },
        "effectiveDateTime": "2024-04-09T20:16:45Z",
        "specimen": {
          "reference": "urn:uuid:b9a230a7-aed0-4391-a04a-aedc9ba227b6"
        }
      }
    },
    {
      "fullUrl": "urn:uuid:418a337a-5c69-473f-b88a-2cbb0ecc5bc7",
      "resource": {
        "resourceType": "Observation",
        "id": "418a337a-5c69-473f-b88a-2cbb0ecc5bc7",
        "meta": {
          "profile": [
            "http://hl7.eu/fhir/laboratory/StructureDefinition/Observation-resultslab-eu-lab"
          ]
        },
        "performer": [
          {
            "display": "The Central European Lab"
          }
        ],
        "category": [
          {
            "coding": [
              {
                "system": "http://terminology.hl7.org/CodeSystem/observation-category",
                "code": "laboratory"
              }
            ]
          }
        ],
        "code": {
          "coding": [
            {
              "code": "5767-9",
              "system": "http://loinc.org",
              "display": "Appearance of Urine"
            }
          ],
          "text": "Appearance of Urine"
        },
        "text": {
          "status": "generated",
          "div": "<div xmlns=\"http://www.w3.org/1999/xhtml\"><table class=\"hl7__eu__lab__report\"><tr><th>Test</th><th>09-Apr-2024</th><th>Reference&#xA0;Range</th><th>Unit</th></tr><tr><td>Appearance of Urine</td></tr></table></div>"
        },
        "status": "final",
        "subject": {
          "reference": "urn:uuid:d3eb5628-50d6-4ccc-b8ae-da7e41097120",
          "display": "Hortense Gallet"
        },
        "effectiveDateTime": "2024-04-09T20:16:45Z",
        "specimen": {
          "reference": "urn:uuid:47280bb9-ba92-4954-b27d-945a2482bc81"
        }
      }
    },
    {
      "fullUrl": "urn:uuid:ab6eea23-cbe5-4174-9fc5-b648602d74d1",
      "resource": {
        "resourceType": "Observation",
        "id": "ab6eea23-cbe5-4174-9fc5-b648602d74d1",
        "meta": {
          "profile": [
            "http://hl7.eu/fhir/laboratory/StructureDefinition/Observation-resultslab-eu-lab"
          ]
        },
        "performer": [
          {
            "display": "The Central European Lab"
          }
        ],
        "category": [
          {
            "coding": [
              {
                "system": "http://terminology.hl7.org/CodeSystem/observation-category",
                "code": "laboratory"
              }
            ]
          }
        ],
        "code": {
          "coding": [
            {
              "code": "34533-0",
              "system": "http://loinc.org",
              "display": "Odor of Urine"
            }
          ],
          "text": "Odor of Urine"
        },
        "text": {
          "status": "generated",
          "div": "<div xmlns=\"http://www.w3.org/1999/xhtml\"><table class=\"hl7__eu__lab__report\"><tr><th>Test</th><th>09-Apr-2024</th><th>Reference&#xA0;Range</th><th>Unit</th></tr><tr><td>Odor of Urine</td></tr></table></div>"
        },
        "status": "final",
        "subject": {
          "reference": "urn:uuid:d3eb5628-50d6-4ccc-b8ae-da7e41097120",
          "display": "Hortense Gallet"
        },
        "effectiveDateTime": "2024-04-09T20:16:45Z",
        "specimen": {
          "reference": "urn:uuid:47280bb9-ba92-4954-b27d-945a2482bc81"
        }
      }
    },
    {
      "fullUrl": "urn:uuid:108cfdfc-82fa-45a2-b65f-471ed2a39dba",
      "resource": {
        "resourceType": "Observation",
        "id": "108cfdfc-82fa-45a2-b65f-471ed2a39dba",
        "meta": {
          "profile": [
            "http://hl7.eu/fhir/laboratory/StructureDefinition/Observation-resultslab-eu-lab"
          ]
        },
        "performer": [
          {
            "display": "The Central European Lab"
          }
        ],
        "category": [
          {
            "coding": [
              {
                "system": "http://terminology.hl7.org/CodeSystem/observation-category",
                "code": "laboratory"
              }
            ]
          }
        ],
        "code": {
          "coding": [
            {
              "code": "32167-9",
              "system": "http://loinc.org",
              "display": "Clarity of Urine"
            }
          ],
          "text": "Clarity of Urine"
        },
        "text": {
          "status": "generated",
          "div": "<div xmlns=\"http://www.w3.org/1999/xhtml\"><table class=\"hl7__eu__lab__report\"><tr><th>Test</th><th>09-Apr-2024</th><th>Reference&#xA0;Range</th><th>Unit</th></tr><tr><td>Clarity of Urine</td></tr></table></div>"
        },
        "status": "final",
        "subject": {
          "reference": "urn:uuid:d3eb5628-50d6-4ccc-b8ae-da7e41097120",
          "display": "Hortense Gallet"
        },
        "effectiveDateTime": "2024-04-09T20:16:45Z",
        "specimen": {
          "reference": "urn:uuid:47280bb9-ba92-4954-b27d-945a2482bc81"
        }
      }
    },
    {
      "fullUrl": "urn:uuid:b9626763-719f-41c7-bfe8-0a839457e95a",
      "resource": {
        "resourceType": "Observation",
        "id": "b9626763-719f-41c7-bfe8-0a839457e95a",
        "meta": {
          "profile": [
            "http://hl7.eu/fhir/laboratory/StructureDefinition/Observation-resultslab-eu-lab"
          ]
        },
        "performer": [
          {
            "display": "The Central European Lab"
          }
        ],
        "category": [
          {
            "coding": [
              {
                "system": "http://terminology.hl7.org/CodeSystem/observation-category",
                "code": "laboratory"
              }
            ]
          }
        ],
        "code": {
          "coding": [
            {
              "code": "5778-6",
              "system": "http://loinc.org",
              "display": "Color of Urine"
            }
          ],
          "text": "Color of Urine"
        },
        "text": {
          "status": "generated",
          "div": "<div xmlns=\"http://www.w3.org/1999/xhtml\"><table class=\"hl7__eu__lab__report\"><tr><th>Test</th><th>09-Apr-2024</th><th>Reference&#xA0;Range</th><th>Unit</th></tr><tr><td>Color of Urine</td></tr></table></div>"
        },
        "status": "final",
        "subject": {
          "reference": "urn:uuid:d3eb5628-50d6-4ccc-b8ae-da7e41097120",
          "display": "Hortense Gallet"
        },
        "effectiveDateTime": "2024-04-09T20:16:45Z",
        "specimen": {
          "reference": "urn:uuid:47280bb9-ba92-4954-b27d-945a2482bc81"
        }
      }
    },
    {
      "fullUrl": "urn:uuid:cac547ee-1a1e-456c-9b00-2bc4ade933fd",
      "resource": {
        "resourceType": "Observation",
        "id": "cac547ee-1a1e-456c-9b00-2bc4ade933fd",
        "meta": {
          "profile": [
            "http://hl7.eu/fhir/laboratory/StructureDefinition/Observation-resultslab-eu-lab"
          ]
        },
        "performer": [
          {
            "display": "The Central European Lab"
          }
        ],
        "category": [
          {
            "coding": [
              {
                "system": "http://terminology.hl7.org/CodeSystem/observation-category",
                "code": "laboratory"
              }
            ]
          }
        ],
        "code": {
          "coding": [
            {
              "code": "5792-7",
              "system": "http://loinc.org",
              "display": "Glucose [Mass/volume] in Urine by Test strip"
            }
          ],
          "text": "Glucose [Mass/volume] in Urine by Test strip"
        },
        "valueQuantity": {
          "system": "http://unitsofmeasure.org",
          "value": 1.9,
          "unit": "mg/dL",
          "code": "mg/dL"
        },
        "referenceRange": [
          {
            "low": {
              "value": 0,
              "code": "mg/dL",
              "system": "http://unitsofmeasure.org"
            }
          },
          {
            "high": {
              "value": 0,
              "code": "mg/dL",
              "system": "http://unitsofmeasure.org"
            }
          }
        ],
        "interpretation": [
          {
            "coding": [
              {
                "code": "H",
                "system": "http://terminology.hl7.org/CodeSystem/v3-ObservationInterpretation",
                "display": "High"
              }
            ]
          }
        ],
        "text": {
          "status": "generated",
          "div": "<div xmlns=\"http://www.w3.org/1999/xhtml\"><table class=\"hl7__eu__lab__report\"><tr><th>Test</th><th>09-Apr-2024</th><th>Reference&#xA0;Range</th><th>Unit</th></tr><tr><td>Glucose [Mass/volume] in Urine by Test strip</td><td>1.9</td><td>0 - 0</td><td>H</td><td>mg/dL</td></tr></table></div>"
        },
        "status": "final",
        "subject": {
          "reference": "urn:uuid:d3eb5628-50d6-4ccc-b8ae-da7e41097120",
          "display": "Hortense Gallet"
        },
        "effectiveDateTime": "2024-04-09T20:16:45Z",
        "specimen": {
          "reference": "urn:uuid:47280bb9-ba92-4954-b27d-945a2482bc81"
        }
      }
    },
    {
      "fullUrl": "urn:uuid:42a4621e-8ffa-41fa-b8ec-278d34b3e696",
      "resource": {
        "resourceType": "Observation",
        "id": "42a4621e-8ffa-41fa-b8ec-278d34b3e696",
        "meta": {
          "profile": [
            "http://hl7.eu/fhir/laboratory/StructureDefinition/Observation-resultslab-eu-lab"
          ]
        },
        "performer": [
          {
            "display": "The Central European Lab"
          }
        ],
        "category": [
          {
            "coding": [
              {
                "system": "http://terminology.hl7.org/CodeSystem/observation-category",
                "code": "laboratory"
              }
            ]
          }
        ],
        "code": {
          "coding": [
            {
              "code": "25428-4",
              "system": "http://loinc.org",
              "display": "Glucose [Presence] in Urine by Test strip"
            }
          ],
          "text": "Glucose [Presence] in Urine by Test strip"
        },
        "text": {
          "status": "generated",
          "div": "<div xmlns=\"http://www.w3.org/1999/xhtml\"><table class=\"hl7__eu__lab__report\"><tr><th>Test</th><th>09-Apr-2024</th><th>Reference&#xA0;Range</th><th>Unit</th></tr><tr><td>Glucose [Presence] in Urine by Test strip</td></tr></table></div>"
        },
        "status": "final",
        "subject": {
          "reference": "urn:uuid:d3eb5628-50d6-4ccc-b8ae-da7e41097120",
          "display": "Hortense Gallet"
        },
        "effectiveDateTime": "2024-04-09T20:16:45Z",
        "specimen": {
          "reference": "urn:uuid:47280bb9-ba92-4954-b27d-945a2482bc81"
        }
      }
    },
    {
      "fullUrl": "urn:uuid:38e661f1-6fa7-4564-8e78-b2045b78c906",
      "resource": {
        "resourceType": "Observation",
        "id": "38e661f1-6fa7-4564-8e78-b2045b78c906",
        "meta": {
          "profile": [
            "http://hl7.eu/fhir/laboratory/StructureDefinition/Observation-resultslab-eu-lab"
          ]
        },
        "performer": [
          {
            "display": "The Central European Lab"
          }
        ],
        "category": [
          {
            "coding": [
              {
                "system": "http://terminology.hl7.org/CodeSystem/observation-category",
                "code": "laboratory"
              }
            ]
          }
        ],
        "code": {
          "coding": [
            {
              "code": "20505-4",
              "system": "http://loinc.org",
              "display": "Bilirubin.total [Mass/volume] in Urine by Test strip"
            }
          ],
          "text": "Bilirubin.total [Mass/volume] in Urine by Test strip"
        },
        "valueQuantity": {
          "system": "http://unitsofmeasure.org",
          "value": 0.8,
          "unit": "mg/dL",
          "code": "mg/dL"
        },
        "referenceRange": [
          {
            "low": {
              "value": 0,
              "code": "mg/dL",
              "system": "http://unitsofmeasure.org"
            }
          },
          {
            "high": {
              "value": 1.6,
              "code": "mg/dL",
              "system": "http://unitsofmeasure.org"
            }
          }
        ],
        "text": {
          "status": "generated",
          "div": "<div xmlns=\"http://www.w3.org/1999/xhtml\"><table class=\"hl7__eu__lab__report\"><tr><th>Test</th><th>09-Apr-2024</th><th>Reference&#xA0;Range</th><th>Unit</th></tr><tr><td>Bilirubin.total [Mass/volume] in Urine by Test strip</td><td>0.8</td><td>0 - 1.6</td><td></td><td>mg/dL</td></tr></table></div>"
        },
        "status": "final",
        "subject": {
          "reference": "urn:uuid:d3eb5628-50d6-4ccc-b8ae-da7e41097120",
          "display": "Hortense Gallet"
        },
        "effectiveDateTime": "2024-04-09T20:16:45Z",
        "specimen": {
          "reference": "urn:uuid:47280bb9-ba92-4954-b27d-945a2482bc81"
        }
      }
    },
    {
      "fullUrl": "urn:uuid:654c638f-5220-4c3e-a0c8-df216c68b725",
      "resource": {
        "resourceType": "Observation",
        "id": "654c638f-5220-4c3e-a0c8-df216c68b725",
        "meta": {
          "profile": [
            "http://hl7.eu/fhir/laboratory/StructureDefinition/Observation-resultslab-eu-lab"
          ]
        },
        "performer": [
          {
            "display": "The Central European Lab"
          }
        ],
        "category": [
          {
            "coding": [
              {
                "system": "http://terminology.hl7.org/CodeSystem/observation-category",
                "code": "laboratory"
              }
            ]
          }
        ],
        "code": {
          "coding": [
            {
              "code": "5770-3",
              "system": "http://loinc.org",
              "display": "Bilirubin.total [Presence] in Urine by Test strip"
            }
          ],
          "text": "Bilirubin.total [Presence] in Urine by Test strip"
        },
        "text": {
          "status": "generated",
          "div": "<div xmlns=\"http://www.w3.org/1999/xhtml\"><table class=\"hl7__eu__lab__report\"><tr><th>Test</th><th>09-Apr-2024</th><th>Reference&#xA0;Range</th><th>Unit</th></tr><tr><td>Bilirubin.total [Presence] in Urine by Test strip</td></tr></table></div>"
        },
        "status": "final",
        "subject": {
          "reference": "urn:uuid:d3eb5628-50d6-4ccc-b8ae-da7e41097120",
          "display": "Hortense Gallet"
        },
        "effectiveDateTime": "2024-04-09T20:16:45Z",
        "specimen": {
          "reference": "urn:uuid:47280bb9-ba92-4954-b27d-945a2482bc81"
        }
      }
    },
    {
      "fullUrl": "urn:uuid:e7133436-0993-4ebf-896f-bc1ce04e0488",
      "resource": {
        "resourceType": "Observation",
        "id": "e7133436-0993-4ebf-896f-bc1ce04e0488",
        "meta": {
          "profile": [
            "http://hl7.eu/fhir/laboratory/StructureDefinition/Observation-resultslab-eu-lab"
          ]
        },
        "performer": [
          {
            "display": "The Central European Lab"
          }
        ],
        "category": [
          {
            "coding": [
              {
                "system": "http://terminology.hl7.org/CodeSystem/observation-category",
                "code": "laboratory"
              }
            ]
          }
        ],
        "code": {
          "coding": [
            {
              "code": "5797-6",
              "system": "http://loinc.org",
              "display": "Ketones [Mass/volume] in Urine by Test strip"
            }
          ],
          "text": "Ketones [Mass/volume] in Urine by Test strip"
        },
        "valueQuantity": {
          "system": "http://unitsofmeasure.org",
          "value": 18.3,
          "unit": "mg/dL",
          "code": "mg/dL"
        },
        "referenceRange": [
          {
            "low": {
              "value": 0,
              "code": "mg/dL",
              "system": "http://unitsofmeasure.org"
            }
          },
          {
            "high": {
              "value": 0.5,
              "code": "mg/dL",
              "system": "http://unitsofmeasure.org"
            }
          }
        ],
        "interpretation": [
          {
            "coding": [
              {
                "code": "H",
                "system": "http://terminology.hl7.org/CodeSystem/v3-ObservationInterpretation",
                "display": "High"
              }
            ]
          }
        ],
        "text": {
          "status": "generated",
          "div": "<div xmlns=\"http://www.w3.org/1999/xhtml\"><table class=\"hl7__eu__lab__report\"><tr><th>Test</th><th>09-Apr-2024</th><th>Reference&#xA0;Range</th><th>Unit</th></tr><tr><td>Ketones [Mass/volume] in Urine by Test strip</td><td>18.3</td><td>0 - 0.5</td><td>H</td><td>mg/dL</td></tr></table></div>"
        },
        "status": "final",
        "subject": {
          "reference": "urn:uuid:d3eb5628-50d6-4ccc-b8ae-da7e41097120",
          "display": "Hortense Gallet"
        },
        "effectiveDateTime": "2024-04-09T20:16:45Z",
        "specimen": {
          "reference": "urn:uuid:47280bb9-ba92-4954-b27d-945a2482bc81"
        }
      }
    },
    {
      "fullUrl": "urn:uuid:2c1b0394-d7de-4453-a0e5-c74c96b6f258",
      "resource": {
        "resourceType": "Observation",
        "id": "2c1b0394-d7de-4453-a0e5-c74c96b6f258",
        "meta": {
          "profile": [
            "http://hl7.eu/fhir/laboratory/StructureDefinition/Observation-resultslab-eu-lab"
          ]
        },
        "performer": [
          {
            "display": "The Central European Lab"
          }
        ],
        "category": [
          {
            "coding": [
              {
                "system": "http://terminology.hl7.org/CodeSystem/observation-category",
                "code": "laboratory"
              }
            ]
          }
        ],
        "code": {
          "coding": [
            {
              "code": "2514-8",
              "system": "http://loinc.org",
              "display": "Ketones [Presence] in Urine by Test strip"
            }
          ],
          "text": "Ketones [Presence] in Urine by Test strip"
        },
        "text": {
          "status": "generated",
          "div": "<div xmlns=\"http://www.w3.org/1999/xhtml\"><table class=\"hl7__eu__lab__report\"><tr><th>Test</th><th>09-Apr-2024</th><th>Reference&#xA0;Range</th><th>Unit</th></tr><tr><td>Ketones [Presence] in Urine by Test strip</td></tr></table></div>"
        },
        "status": "final",
        "subject": {
          "reference": "urn:uuid:d3eb5628-50d6-4ccc-b8ae-da7e41097120",
          "display": "Hortense Gallet"
        },
        "effectiveDateTime": "2024-04-09T20:16:45Z",
        "specimen": {
          "reference": "urn:uuid:47280bb9-ba92-4954-b27d-945a2482bc81"
        }
      }
    },
    {
      "fullUrl": "urn:uuid:7a39a1fa-345d-4f0d-a804-f3c7fc911211",
      "resource": {
        "resourceType": "Observation",
        "id": "7a39a1fa-345d-4f0d-a804-f3c7fc911211",
        "meta": {
          "profile": [
            "http://hl7.eu/fhir/laboratory/StructureDefinition/Observation-resultslab-eu-lab"
          ]
        },
        "performer": [
          {
            "display": "The Central European Lab"
          }
        ],
        "category": [
          {
            "coding": [
              {
                "system": "http://terminology.hl7.org/CodeSystem/observation-category",
                "code": "laboratory"
              }
            ]
          }
        ],
        "code": {
          "coding": [
            {
              "code": "5811-5",
              "system": "http://loinc.org",
              "display": "Specific gravity of Urine by Test strip"
            }
          ],
          "text": "Specific gravity of Urine by Test strip"
        },
        "valueQuantity": {
          "system": "http://unitsofmeasure.org",
          "value": 1,
          "unit": "{nominal}",
          "code": "{nominal}"
        },
        "referenceRange": [
          {
            "low": {
              "value": 1.005,
              "code": "g/mL",
              "system": "http://unitsofmeasure.org"
            }
          },
          {
            "high": {
              "value": 1.03,
              "code": "g/mL",
              "system": "http://unitsofmeasure.org"
            }
          }
        ],
        "interpretation": [
          {
            "coding": [
              {
                "code": "L",
                "system": "http://terminology.hl7.org/CodeSystem/v3-ObservationInterpretation",
                "display": "Low"
              }
            ]
          }
        ],
        "text": {
          "status": "generated",
          "div": "<div xmlns=\"http://www.w3.org/1999/xhtml\"><table class=\"hl7__eu__lab__report\"><tr><th>Test</th><th>09-Apr-2024</th><th>Reference&#xA0;Range</th><th>Unit</th></tr><tr><td>Specific gravity of Urine by Test strip</td><td>1.0</td><td>1.005 - 1.03</td><td>L</td><td>{nominal}</td></tr></table></div>"
        },
        "status": "final",
        "subject": {
          "reference": "urn:uuid:d3eb5628-50d6-4ccc-b8ae-da7e41097120",
          "display": "Hortense Gallet"
        },
        "effectiveDateTime": "2024-04-09T20:16:45Z",
        "specimen": {
          "reference": "urn:uuid:47280bb9-ba92-4954-b27d-945a2482bc81"
        }
      }
    },
    {
      "fullUrl": "urn:uuid:4a12a4ef-19dd-471d-89d0-ed25a75c3eb2",
      "resource": {
        "resourceType": "Observation",
        "id": "4a12a4ef-19dd-471d-89d0-ed25a75c3eb2",
        "meta": {
          "profile": [
            "http://hl7.eu/fhir/laboratory/StructureDefinition/Observation-resultslab-eu-lab"
          ]
        },
        "performer": [
          {
            "display": "The Central European Lab"
          }
        ],
        "category": [
          {
            "coding": [
              {
                "system": "http://terminology.hl7.org/CodeSystem/observation-category",
                "code": "laboratory"
              }
            ]
          }
        ],
        "code": {
          "coding": [
            {
              "code": "5803-2",
              "system": "http://loinc.org",
              "display": "pH of Urine by Test strip"
            }
          ],
          "text": "pH of Urine by Test strip"
        },
        "valueQuantity": {
          "system": "http://unitsofmeasure.org",
          "value": 5,
          "unit": "pH",
          "code": "pH"
        },
        "referenceRange": [
          {
            "low": {
              "value": 4.5,
              "code": "pH",
              "system": "http://unitsofmeasure.org"
            }
          },
          {
            "high": {
              "value": 7.5,
              "code": "pH",
              "system": "http://unitsofmeasure.org"
            }
          }
        ],
        "text": {
          "status": "generated",
          "div": "<div xmlns=\"http://www.w3.org/1999/xhtml\"><table class=\"hl7__eu__lab__report\"><tr><th>Test</th><th>09-Apr-2024</th><th>Reference&#xA0;Range</th><th>Unit</th></tr><tr><td>pH of Urine by Test strip</td><td>5.0</td><td>4.5 - 7.5</td><td></td><td>pH</td></tr></table></div>"
        },
        "status": "final",
        "subject": {
          "reference": "urn:uuid:d3eb5628-50d6-4ccc-b8ae-da7e41097120",
          "display": "Hortense Gallet"
        },
        "effectiveDateTime": "2024-04-09T20:16:45Z",
        "specimen": {
          "reference": "urn:uuid:47280bb9-ba92-4954-b27d-945a2482bc81"
        }
      }
    },
    {
      "fullUrl": "urn:uuid:803fbef9-e621-4949-a143-996960f6b333",
      "resource": {
        "resourceType": "Observation",
        "id": "803fbef9-e621-4949-a143-996960f6b333",
        "meta": {
          "profile": [
            "http://hl7.eu/fhir/laboratory/StructureDefinition/Observation-resultslab-eu-lab"
          ]
        },
        "performer": [
          {
            "display": "The Central European Lab"
          }
        ],
        "category": [
          {
            "coding": [
              {
                "system": "http://terminology.hl7.org/CodeSystem/observation-category",
                "code": "laboratory"
              }
            ]
          }
        ],
        "code": {
          "coding": [
            {
              "code": "5804-0",
              "system": "http://loinc.org",
              "display": "Protein [Mass/volume] in Urine by Test strip"
            }
          ],
          "text": "Protein [Mass/volume] in Urine by Test strip"
        },
        "valueQuantity": {
          "system": "http://unitsofmeasure.org",
          "value": 262.4,
          "unit": "mg/dL",
          "code": "mg/dL"
        },
        "referenceRange": [
          {
            "low": {
              "value": 0,
              "code": "mg/dL",
              "system": "http://unitsofmeasure.org"
            }
          },
          {
            "high": {
              "value": 15,
              "code": "mg/dL",
              "system": "http://unitsofmeasure.org"
            }
          }
        ],
        "interpretation": [
          {
            "coding": [
              {
                "code": "H",
                "system": "http://terminology.hl7.org/CodeSystem/v3-ObservationInterpretation",
                "display": "High"
              }
            ]
          }
        ],
        "text": {
          "status": "generated",
          "div": "<div xmlns=\"http://www.w3.org/1999/xhtml\"><table class=\"hl7__eu__lab__report\"><tr><th>Test</th><th>09-Apr-2024</th><th>Reference&#xA0;Range</th><th>Unit</th></tr><tr><td>Protein [Mass/volume] in Urine by Test strip</td><td>262.4</td><td>0 - 15</td><td>H</td><td>mg/dL</td></tr></table></div>"
        },
        "status": "final",
        "subject": {
          "reference": "urn:uuid:d3eb5628-50d6-4ccc-b8ae-da7e41097120",
          "display": "Hortense Gallet"
        },
        "effectiveDateTime": "2024-04-09T20:16:45Z",
        "specimen": {
          "reference": "urn:uuid:47280bb9-ba92-4954-b27d-945a2482bc81"
        }
      }
    },
    {
      "fullUrl": "urn:uuid:47ef0b7d-5ab9-465e-8759-4edb03466b3a",
      "resource": {
        "resourceType": "Observation",
        "id": "47ef0b7d-5ab9-465e-8759-4edb03466b3a",
        "meta": {
          "profile": [
            "http://hl7.eu/fhir/laboratory/StructureDefinition/Observation-resultslab-eu-lab"
          ]
        },
        "performer": [
          {
            "display": "The Central European Lab"
          }
        ],
        "category": [
          {
            "coding": [
              {
                "system": "http://terminology.hl7.org/CodeSystem/observation-category",
                "code": "laboratory"
              }
            ]
          }
        ],
        "code": {
          "coding": [
            {
              "code": "20454-5",
              "system": "http://loinc.org",
              "display": "Protein [Presence] in Urine by Test strip"
            }
          ],
          "text": "Protein [Presence] in Urine by Test strip"
        },
        "text": {
          "status": "generated",
          "div": "<div xmlns=\"http://www.w3.org/1999/xhtml\"><table class=\"hl7__eu__lab__report\"><tr><th>Test</th><th>09-Apr-2024</th><th>Reference&#xA0;Range</th><th>Unit</th></tr><tr><td>Protein [Presence] in Urine by Test strip</td></tr></table></div>"
        },
        "status": "final",
        "subject": {
          "reference": "urn:uuid:d3eb5628-50d6-4ccc-b8ae-da7e41097120",
          "display": "Hortense Gallet"
        },
        "effectiveDateTime": "2024-04-09T20:16:45Z",
        "specimen": {
          "reference": "urn:uuid:47280bb9-ba92-4954-b27d-945a2482bc81"
        }
      }
    },
    {
      "fullUrl": "urn:uuid:07c7bd19-f38a-4a5b-a9c1-ef49e5678ee9",
      "resource": {
        "resourceType": "Observation",
        "id": "07c7bd19-f38a-4a5b-a9c1-ef49e5678ee9",
        "meta": {
          "profile": [
            "http://hl7.eu/fhir/laboratory/StructureDefinition/Observation-resultslab-eu-lab"
          ]
        },
        "performer": [
          {
            "display": "The Central European Lab"
          }
        ],
        "category": [
          {
            "coding": [
              {
                "system": "http://terminology.hl7.org/CodeSystem/observation-category",
                "code": "laboratory"
              }
            ]
          }
        ],
        "code": {
          "coding": [
            {
              "code": "5802-4",
              "system": "http://loinc.org",
              "display": "Nitrite [Presence] in Urine by Test strip"
            }
          ],
          "text": "Nitrite [Presence] in Urine by Test strip"
        },
        "text": {
          "status": "generated",
          "div": "<div xmlns=\"http://www.w3.org/1999/xhtml\"><table class=\"hl7__eu__lab__report\"><tr><th>Test</th><th>09-Apr-2024</th><th>Reference&#xA0;Range</th><th>Unit</th></tr><tr><td>Nitrite [Presence] in Urine by Test strip</td></tr></table></div>"
        },
        "status": "final",
        "subject": {
          "reference": "urn:uuid:d3eb5628-50d6-4ccc-b8ae-da7e41097120",
          "display": "Hortense Gallet"
        },
        "effectiveDateTime": "2024-04-09T20:16:45Z",
        "specimen": {
          "reference": "urn:uuid:47280bb9-ba92-4954-b27d-945a2482bc81"
        }
      }
    },
    {
      "fullUrl": "urn:uuid:aa836534-9e32-41fd-8488-5847116ecfbf",
      "resource": {
        "resourceType": "Observation",
        "id": "aa836534-9e32-41fd-8488-5847116ecfbf",
        "meta": {
          "profile": [
            "http://hl7.eu/fhir/laboratory/StructureDefinition/Observation-resultslab-eu-lab"
          ]
        },
        "performer": [
          {
            "display": "The Central European Lab"
          }
        ],
        "category": [
          {
            "coding": [
              {
                "system": "http://terminology.hl7.org/CodeSystem/observation-category",
                "code": "laboratory"
              }
            ]
          }
        ],
        "code": {
          "coding": [
            {
              "code": "5794-3",
              "system": "http://loinc.org",
              "display": "Hemoglobin [Presence] in Urine by Test strip"
            }
          ],
          "text": "Hemoglobin [Presence] in Urine by Test strip"
        },
        "text": {
          "status": "generated",
          "div": "<div xmlns=\"http://www.w3.org/1999/xhtml\"><table class=\"hl7__eu__lab__report\"><tr><th>Test</th><th>09-Apr-2024</th><th>Reference&#xA0;Range</th><th>Unit</th></tr><tr><td>Hemoglobin [Presence] in Urine by Test strip</td></tr></table></div>"
        },
        "status": "final",
        "subject": {
          "reference": "urn:uuid:d3eb5628-50d6-4ccc-b8ae-da7e41097120",
          "display": "Hortense Gallet"
        },
        "effectiveDateTime": "2024-04-09T20:16:45Z",
        "specimen": {
          "reference": "urn:uuid:47280bb9-ba92-4954-b27d-945a2482bc81"
        }
      }
    },
    {
      "fullUrl": "urn:uuid:250dbf08-c6f3-44c5-b892-19a11013b437",
      "resource": {
        "resourceType": "Observation",
        "id": "250dbf08-c6f3-44c5-b892-19a11013b437",
        "meta": {
          "profile": [
            "http://hl7.eu/fhir/laboratory/StructureDefinition/Observation-resultslab-eu-lab"
          ]
        },
        "performer": [
          {
            "display": "The Central European Lab"
          }
        ],
        "category": [
          {
            "coding": [
              {
                "system": "http://terminology.hl7.org/CodeSystem/observation-category",
                "code": "laboratory"
              }
            ]
          }
        ],
        "code": {
          "coding": [
            {
              "code": "5799-2",
              "system": "http://loinc.org",
              "display": "Leukocyte esterase [Presence] in Urine by Test strip"
            }
          ],
          "text": "Leukocyte esterase [Presence] in Urine by Test strip"
        },
        "text": {
          "status": "generated",
          "div": "<div xmlns=\"http://www.w3.org/1999/xhtml\"><table class=\"hl7__eu__lab__report\"><tr><th>Test</th><th>09-Apr-2024</th><th>Reference&#xA0;Range</th><th>Unit</th></tr><tr><td>Leukocyte esterase [Presence] in Urine by Test strip</td></tr></table></div>"
        },
        "status": "final",
        "subject": {
          "reference": "urn:uuid:d3eb5628-50d6-4ccc-b8ae-da7e41097120",
          "display": "Hortense Gallet"
        },
        "effectiveDateTime": "2024-04-09T20:16:45Z",
        "specimen": {
          "reference": "urn:uuid:47280bb9-ba92-4954-b27d-945a2482bc81"
        }
      }
    },
    {
      "fullUrl": "urn:uuid:f112a136-c208-403c-9739-cdc320697bce",
      "resource": {
        "resourceType": "Observation",
        "id": "f112a136-c208-403c-9739-cdc320697bce",
        "meta": {
          "profile": [
            "http://hl7.eu/fhir/laboratory/StructureDefinition/Observation-resultslab-eu-lab"
          ]
        },
        "performer": [
          {
            "display": "The Central European Lab"
          }
        ],
        "category": [
          {
            "coding": [
              {
                "system": "http://terminology.hl7.org/CodeSystem/observation-category",
                "code": "laboratory"
              }
            ]
          }
        ],
        "code": {
          "coding": [
            {
              "code": "6690-2",
              "system": "http://loinc.org",
              "display": "Leukocytes [#/volume] in Blood by Automated count"
            }
          ],
          "text": "Leukocytes [#/volume] in Blood by Automated count"
        },
        "valueQuantity": {
          "system": "http://unitsofmeasure.org",
          "value": 3.6,
          "unit": "10*3/uL",
          "code": "10*3/uL"
        },
        "referenceRange": [
          {
            "low": {
              "value": 3.6,
              "code": "10*3/uL",
              "system": "http://unitsofmeasure.org"
            }
          },
          {
            "high": {
              "value": 10.5,
              "code": "10*3/uL",
              "system": "http://unitsofmeasure.org"
            }
          }
        ],
        "text": {
          "status": "generated",
          "div": "<div xmlns=\"http://www.w3.org/1999/xhtml\"><table class=\"hl7__eu__lab__report\"><tr><th>Test</th><th>09-Apr-2024</th><th>Reference&#xA0;Range</th><th>Unit</th></tr><tr><td>Leukocytes [#/volume] in Blood by Automated count</td><td>3.6</td><td>3.6 - 10.5</td><td></td><td>10*3/uL</td></tr></table></div>"
        },
        "status": "final",
        "subject": {
          "reference": "urn:uuid:d3eb5628-50d6-4ccc-b8ae-da7e41097120",
          "display": "Hortense Gallet"
        },
        "effectiveDateTime": "2024-04-09T20:16:45Z",
        "specimen": {
          "reference": "urn:uuid:c27300db-57a6-4f4e-9d49-0f1fcdd82570"
        }
      }
    },
    {
      "fullUrl": "urn:uuid:063c62c1-a604-4127-ab3b-58faf7fafc2a",
      "resource": {
        "resourceType": "Observation",
        "id": "063c62c1-a604-4127-ab3b-58faf7fafc2a",
        "meta": {
          "profile": [
            "http://hl7.eu/fhir/laboratory/StructureDefinition/Observation-resultslab-eu-lab"
          ]
        },
        "performer": [
          {
            "display": "The Central European Lab"
          }
        ],
        "category": [
          {
            "coding": [
              {
                "system": "http://terminology.hl7.org/CodeSystem/observation-category",
                "code": "laboratory"
              }
            ]
          }
        ],
        "code": {
          "coding": [
            {
              "code": "789-8",
              "system": "http://loinc.org",
              "display": "Erythrocytes [#/volume] in Blood by Automated count"
            }
          ],
          "text": "Erythrocytes [#/volume] in Blood by Automated count"
        },
        "valueQuantity": {
          "system": "http://unitsofmeasure.org",
          "value": 5.2,
          "unit": "10*6/uL",
          "code": "10*6/uL"
        },
        "referenceRange": [
          {
            "low": {
              "value": 4.5,
              "code": "10*6/uL",
              "system": "http://unitsofmeasure.org"
            }
          },
          {
            "high": {
              "value": 5,
              "code": "10*6/uL",
              "system": "http://unitsofmeasure.org"
            }
          }
        ],
        "interpretation": [
          {
            "coding": [
              {
                "code": "H",
                "system": "http://terminology.hl7.org/CodeSystem/v3-ObservationInterpretation",
                "display": "High"
              }
            ]
          }
        ],
        "text": {
          "status": "generated",
          "div": "<div xmlns=\"http://www.w3.org/1999/xhtml\"><table class=\"hl7__eu__lab__report\"><tr><th>Test</th><th>09-Apr-2024</th><th>Reference&#xA0;Range</th><th>Unit</th></tr><tr><td>Erythrocytes [#/volume] in Blood by Automated count</td><td>5.2</td><td>4.5 - 5</td><td>H</td><td>10*6/uL</td></tr></table></div>"
        },
        "status": "final",
        "subject": {
          "reference": "urn:uuid:d3eb5628-50d6-4ccc-b8ae-da7e41097120",
          "display": "Hortense Gallet"
        },
        "effectiveDateTime": "2024-04-09T20:16:45Z",
        "specimen": {
          "reference": "urn:uuid:c27300db-57a6-4f4e-9d49-0f1fcdd82570"
        }
      }
    },
    {
      "fullUrl": "urn:uuid:9a048fb7-b646-45f3-ae96-5abc70b8ce9f",
      "resource": {
        "resourceType": "Observation",
        "id": "9a048fb7-b646-45f3-ae96-5abc70b8ce9f",
        "meta": {
          "profile": [
            "http://hl7.eu/fhir/laboratory/StructureDefinition/Observation-resultslab-eu-lab"
          ]
        },
        "performer": [
          {
            "display": "The Central European Lab"
          }
        ],
        "category": [
          {
            "coding": [
              {
                "system": "http://terminology.hl7.org/CodeSystem/observation-category",
                "code": "laboratory"
              }
            ]
          }
        ],
        "code": {
          "coding": [
            {
              "code": "718-7",
              "system": "http://loinc.org",
              "display": "Hemoglobin [Mass/volume] in Blood"
            }
          ],
          "text": "Hemoglobin [Mass/volume] in Blood"
        },
        "valueQuantity": {
          "system": "http://unitsofmeasure.org",
          "value": 12.3,
          "unit": "g/dL",
          "code": "g/dL"
        },
        "referenceRange": [
          {
            "low": {
              "value": 12,
              "code": "g/dL",
              "system": "http://unitsofmeasure.org"
            }
          },
          {
            "high": {
              "value": 15.5,
              "code": "g/dL",
              "system": "http://unitsofmeasure.org"
            }
          }
        ],
        "text": {
          "status": "generated",
          "div": "<div xmlns=\"http://www.w3.org/1999/xhtml\"><table class=\"hl7__eu__lab__report\"><tr><th>Test</th><th>09-Apr-2024</th><th>Reference&#xA0;Range</th><th>Unit</th></tr><tr><td>Hemoglobin [Mass/volume] in Blood</td><td>12.3</td><td>12 - 15.5</td><td></td><td>g/dL</td></tr></table></div>"
        },
        "status": "final",
        "subject": {
          "reference": "urn:uuid:d3eb5628-50d6-4ccc-b8ae-da7e41097120",
          "display": "Hortense Gallet"
        },
        "effectiveDateTime": "2024-04-09T20:16:45Z",
        "specimen": {
          "reference": "urn:uuid:c27300db-57a6-4f4e-9d49-0f1fcdd82570"
        }
      }
    },
    {
      "fullUrl": "urn:uuid:22def93e-bcd6-43d6-b62e-4352ca184c41",
      "resource": {
        "resourceType": "Observation",
        "id": "22def93e-bcd6-43d6-b62e-4352ca184c41",
        "meta": {
          "profile": [
            "http://hl7.eu/fhir/laboratory/StructureDefinition/Observation-resultslab-eu-lab"
          ]
        },
        "performer": [
          {
            "display": "The Central European Lab"
          }
        ],
        "category": [
          {
            "coding": [
              {
                "system": "http://terminology.hl7.org/CodeSystem/observation-category",
                "code": "laboratory"
              }
            ]
          }
        ],
        "code": {
          "coding": [
            {
              "code": "4544-3",
              "system": "http://loinc.org",
              "display": "Hematocrit [Volume Fraction] of Blood by Automated count"
            }
          ],
          "text": "Hematocrit [Volume Fraction] of Blood by Automated count"
        },
        "valueQuantity": {
          "system": "http://unitsofmeasure.org",
          "value": 36.8,
          "unit": "%",
          "code": "%"
        },
        "referenceRange": [
          {
            "low": {
              "value": 37,
              "code": "%",
              "system": "http://unitsofmeasure.org"
            }
          },
          {
            "high": {
              "value": 52,
              "code": "%",
              "system": "http://unitsofmeasure.org"
            }
          }
        ],
        "interpretation": [
          {
            "coding": [
              {
                "code": "L",
                "system": "http://terminology.hl7.org/CodeSystem/v3-ObservationInterpretation",
                "display": "Low"
              }
            ]
          }
        ],
        "text": {
          "status": "generated",
          "div": "<div xmlns=\"http://www.w3.org/1999/xhtml\"><table class=\"hl7__eu__lab__report\"><tr><th>Test</th><th>09-Apr-2024</th><th>Reference&#xA0;Range</th><th>Unit</th></tr><tr><td>Hematocrit [Volume Fraction] of Blood by Automated count</td><td>36.8</td><td>37 - 52</td><td>L</td><td>%</td></tr></table></div>"
        },
        "status": "final",
        "subject": {
          "reference": "urn:uuid:d3eb5628-50d6-4ccc-b8ae-da7e41097120",
          "display": "Hortense Gallet"
        },
        "effectiveDateTime": "2024-04-09T20:16:45Z",
        "specimen": {
          "reference": "urn:uuid:c27300db-57a6-4f4e-9d49-0f1fcdd82570"
        }
      }
    },
    {
      "fullUrl": "urn:uuid:4200b710-896a-4e7c-b759-2be7370939f5",
      "resource": {
        "resourceType": "Observation",
        "id": "4200b710-896a-4e7c-b759-2be7370939f5",
        "meta": {
          "profile": [
            "http://hl7.eu/fhir/laboratory/StructureDefinition/Observation-resultslab-eu-lab"
          ]
        },
        "performer": [
          {
            "display": "The Central European Lab"
          }
        ],
        "category": [
          {
            "coding": [
              {
                "system": "http://terminology.hl7.org/CodeSystem/observation-category",
                "code": "laboratory"
              }
            ]
          }
        ],
        "code": {
          "coding": [
            {
              "code": "787-2",
              "system": "http://loinc.org",
              "display": "MCV [Entitic volume] by Automated count"
            }
          ],
          "text": "MCV [Entitic volume] by Automated count"
        },
        "valueQuantity": {
          "system": "http://unitsofmeasure.org",
          "value": 87.7,
          "unit": "fL",
          "code": "fL"
        },
        "referenceRange": [
          {
            "low": {
              "value": 82,
              "code": "fL",
              "system": "http://unitsofmeasure.org"
            }
          },
          {
            "high": {
              "value": 98,
              "code": "fL",
              "system": "http://unitsofmeasure.org"
            }
          }
        ],
        "text": {
          "status": "generated",
          "div": "<div xmlns=\"http://www.w3.org/1999/xhtml\"><table class=\"hl7__eu__lab__report\"><tr><th>Test</th><th>09-Apr-2024</th><th>Reference&#xA0;Range</th><th>Unit</th></tr><tr><td>MCV [Entitic volume] by Automated count</td><td>87.7</td><td>82 - 98</td><td></td><td>fL</td></tr></table></div>"
        },
        "status": "final",
        "subject": {
          "reference": "urn:uuid:d3eb5628-50d6-4ccc-b8ae-da7e41097120",
          "display": "Hortense Gallet"
        },
        "effectiveDateTime": "2024-04-09T20:16:45Z",
        "specimen": {
          "reference": "urn:uuid:c27300db-57a6-4f4e-9d49-0f1fcdd82570"
        }
      }
    },
    {
      "fullUrl": "urn:uuid:d8522d6b-2b16-4f64-b5c5-3f8838196174",
      "resource": {
        "resourceType": "Observation",
        "id": "d8522d6b-2b16-4f64-b5c5-3f8838196174",
        "meta": {
          "profile": [
            "http://hl7.eu/fhir/laboratory/StructureDefinition/Observation-resultslab-eu-lab"
          ]
        },
        "performer": [
          {
            "display": "The Central European Lab"
          }
        ],
        "category": [
          {
            "coding": [
              {
                "system": "http://terminology.hl7.org/CodeSystem/observation-category",
                "code": "laboratory"
              }
            ]
          }
        ],
        "code": {
          "coding": [
            {
              "code": "785-6",
              "system": "http://loinc.org",
              "display": "MCH [Entitic mass] by Automated count"
            }
          ],
          "text": "MCH [Entitic mass] by Automated count"
        },
        "valueQuantity": {
          "system": "http://unitsofmeasure.org",
          "value": 28,
          "unit": "pg",
          "code": "pg"
        },
        "referenceRange": [
          {
            "low": {
              "value": 27,
              "code": "pg",
              "system": "http://unitsofmeasure.org"
            }
          },
          {
            "high": {
              "value": 34.5,
              "code": "pg",
              "system": "http://unitsofmeasure.org"
            }
          }
        ],
        "text": {
          "status": "generated",
          "div": "<div xmlns=\"http://www.w3.org/1999/xhtml\"><table class=\"hl7__eu__lab__report\"><tr><th>Test</th><th>09-Apr-2024</th><th>Reference&#xA0;Range</th><th>Unit</th></tr><tr><td>MCH [Entitic mass] by Automated count</td><td>28.0</td><td>27 - 34.5</td><td></td><td>pg</td></tr></table></div>"
        },
        "status": "final",
        "subject": {
          "reference": "urn:uuid:d3eb5628-50d6-4ccc-b8ae-da7e41097120",
          "display": "Hortense Gallet"
        },
        "effectiveDateTime": "2024-04-09T20:16:45Z",
        "specimen": {
          "reference": "urn:uuid:c27300db-57a6-4f4e-9d49-0f1fcdd82570"
        }
      }
    },
    {
      "fullUrl": "urn:uuid:76d7a151-59c6-45cf-a30b-0d1d70dd983b",
      "resource": {
        "resourceType": "Observation",
        "id": "76d7a151-59c6-45cf-a30b-0d1d70dd983b",
        "meta": {
          "profile": [
            "http://hl7.eu/fhir/laboratory/StructureDefinition/Observation-resultslab-eu-lab"
          ]
        },
        "performer": [
          {
            "display": "The Central European Lab"
          }
        ],
        "category": [
          {
            "coding": [
              {
                "system": "http://terminology.hl7.org/CodeSystem/observation-category",
                "code": "laboratory"
              }
            ]
          }
        ],
        "code": {
          "coding": [
            {
              "code": "786-4",
              "system": "http://loinc.org",
              "display": "MCHC [Mass/volume] by Automated count"
            }
          ],
          "text": "MCHC [Mass/volume] by Automated count"
        },
        "valueQuantity": {
          "system": "http://unitsofmeasure.org",
          "value": 34.7,
          "unit": "g/dL",
          "code": "g/dL"
        },
        "referenceRange": [
          {
            "low": {
              "value": 32,
              "code": "g/dL",
              "system": "http://unitsofmeasure.org"
            }
          },
          {
            "high": {
              "value": 37,
              "code": "g/dL",
              "system": "http://unitsofmeasure.org"
            }
          }
        ],
        "text": {
          "status": "generated",
          "div": "<div xmlns=\"http://www.w3.org/1999/xhtml\"><table class=\"hl7__eu__lab__report\"><tr><th>Test</th><th>09-Apr-2024</th><th>Reference&#xA0;Range</th><th>Unit</th></tr><tr><td>MCHC [Mass/volume] by Automated count</td><td>34.7</td><td>32 - 37</td><td></td><td>g/dL</td></tr></table></div>"
        },
        "status": "final",
        "subject": {
          "reference": "urn:uuid:d3eb5628-50d6-4ccc-b8ae-da7e41097120",
          "display": "Hortense Gallet"
        },
        "effectiveDateTime": "2024-04-09T20:16:45Z",
        "specimen": {
          "reference": "urn:uuid:c27300db-57a6-4f4e-9d49-0f1fcdd82570"
        }
      }
    },
    {
      "fullUrl": "urn:uuid:8c410d3a-43b0-4a4b-9ad9-27195fdaf33c",
      "resource": {
        "resourceType": "Observation",
        "id": "8c410d3a-43b0-4a4b-9ad9-27195fdaf33c",
        "meta": {
          "profile": [
            "http://hl7.eu/fhir/laboratory/StructureDefinition/Observation-resultslab-eu-lab"
          ]
        },
        "performer": [
          {
            "display": "The Central European Lab"
          }
        ],
        "category": [
          {
            "coding": [
              {
                "system": "http://terminology.hl7.org/CodeSystem/observation-category",
                "code": "laboratory"
              }
            ]
          }
        ],
        "code": {
          "coding": [
            {
              "code": "21000-5",
              "system": "http://loinc.org",
              "display": "Erythrocyte distribution width [Entitic volume] by Automated count"
            }
          ],
          "text": "Erythrocyte distribution width [Entitic volume] by Automated count"
        },
        "valueQuantity": {
          "system": "http://unitsofmeasure.org",
          "value": 42.5,
          "unit": "fL",
          "code": "fL"
        },
        "referenceRange": [
          {
            "low": {
              "value": 36,
              "code": "fL",
              "system": "http://unitsofmeasure.org"
            }
          },
          {
            "high": {
              "value": 55,
              "code": "fL",
              "system": "http://unitsofmeasure.org"
            }
          }
        ],
        "text": {
          "status": "generated",
          "div": "<div xmlns=\"http://www.w3.org/1999/xhtml\"><table class=\"hl7__eu__lab__report\"><tr><th>Test</th><th>09-Apr-2024</th><th>Reference&#xA0;Range</th><th>Unit</th></tr><tr><td>Erythrocyte distribution width [Entitic volume] by Automated count</td><td>42.5</td><td>36 - 55</td><td></td><td>fL</td></tr></table></div>"
        },
        "status": "final",
        "subject": {
          "reference": "urn:uuid:d3eb5628-50d6-4ccc-b8ae-da7e41097120",
          "display": "Hortense Gallet"
        },
        "effectiveDateTime": "2024-04-09T20:16:45Z",
        "specimen": {
          "reference": "urn:uuid:c27300db-57a6-4f4e-9d49-0f1fcdd82570"
        }
      }
    },
    {
      "fullUrl": "urn:uuid:aac4ab89-ffbe-4e94-9503-1ecf63808765",
      "resource": {
        "resourceType": "Observation",
        "id": "aac4ab89-ffbe-4e94-9503-1ecf63808765",
        "meta": {
          "profile": [
            "http://hl7.eu/fhir/laboratory/StructureDefinition/Observation-resultslab-eu-lab"
          ]
        },
        "performer": [
          {
            "display": "The Central European Lab"
          }
        ],
        "category": [
          {
            "coding": [
              {
                "system": "http://terminology.hl7.org/CodeSystem/observation-category",
                "code": "laboratory"
              }
            ]
          }
        ],
        "code": {
          "coding": [
            {
              "code": "777-3",
              "system": "http://loinc.org",
              "display": "Platelets [#/volume] in Blood by Automated count"
            }
          ],
          "text": "Platelets [#/volume] in Blood by Automated count"
        },
        "valueQuantity": {
          "system": "http://unitsofmeasure.org",
          "value": 370.2,
          "unit": "10*3/uL",
          "code": "10*3/uL"
        },
        "referenceRange": [
          {
            "low": {
              "value": 150,
              "code": "10*3/uL",
              "system": "http://unitsofmeasure.org"
            }
          },
          {
            "high": {
              "value": 400,
              "code": "10*3/uL",
              "system": "http://unitsofmeasure.org"
            }
          }
        ],
        "text": {
          "status": "generated",
          "div": "<div xmlns=\"http://www.w3.org/1999/xhtml\"><table class=\"hl7__eu__lab__report\"><tr><th>Test</th><th>09-Apr-2024</th><th>Reference&#xA0;Range</th><th>Unit</th></tr><tr><td>Platelets [#/volume] in Blood by Automated count</td><td>370.2</td><td>150 - 400</td><td></td><td>10*3/uL</td></tr></table></div>"
        },
        "status": "final",
        "subject": {
          "reference": "urn:uuid:d3eb5628-50d6-4ccc-b8ae-da7e41097120",
          "display": "Hortense Gallet"
        },
        "effectiveDateTime": "2024-04-09T20:16:45Z",
        "specimen": {
          "reference": "urn:uuid:c27300db-57a6-4f4e-9d49-0f1fcdd82570"
        }
      }
    },
    {
      "fullUrl": "urn:uuid:9e74ea00-af43-4109-bb9c-05b2a0156eed",
      "resource": {
        "resourceType": "Observation",
        "id": "9e74ea00-af43-4109-bb9c-05b2a0156eed",
        "meta": {
          "profile": [
            "http://hl7.eu/fhir/laboratory/StructureDefinition/Observation-resultslab-eu-lab"
          ]
        },
        "performer": [
          {
            "display": "The Central European Lab"
          }
        ],
        "category": [
          {
            "coding": [
              {
                "system": "http://terminology.hl7.org/CodeSystem/observation-category",
                "code": "laboratory"
              }
            ]
          }
        ],
        "code": {
          "coding": [
            {
              "code": "32207-3",
              "system": "http://loinc.org",
              "display": "Platelet distribution width [Entitic volume] in Blood by Automated count"
            }
          ],
          "text": "Platelet distribution width [Entitic volume] in Blood by Automated count"
        },
        "valueQuantity": {
          "system": "http://unitsofmeasure.org",
          "value": 417,
          "unit": "fL",
          "code": "fL"
        },
        "referenceRange": [
          {
            "low": {
              "value": 11.6,
              "code": "fL",
              "system": "http://unitsofmeasure.org"
            }
          },
          {
            "high": {
              "value": 17.4,
              "code": "fL",
              "system": "http://unitsofmeasure.org"
            }
          }
        ],
        "interpretation": [
          {
            "coding": [
              {
                "code": "H",
                "system": "http://terminology.hl7.org/CodeSystem/v3-ObservationInterpretation",
                "display": "High"
              }
            ]
          }
        ],
        "text": {
          "status": "generated",
          "div": "<div xmlns=\"http://www.w3.org/1999/xhtml\"><table class=\"hl7__eu__lab__report\"><tr><th>Test</th><th>09-Apr-2024</th><th>Reference&#xA0;Range</th><th>Unit</th></tr><tr><td>Platelet distribution width [Entitic volume] in Blood by Automated count</td><td>417.0</td><td>11.6 - 17.4</td><td>H</td><td>fL</td></tr></table></div>"
        },
        "status": "final",
        "subject": {
          "reference": "urn:uuid:d3eb5628-50d6-4ccc-b8ae-da7e41097120",
          "display": "Hortense Gallet"
        },
        "effectiveDateTime": "2024-04-09T20:16:45Z",
        "specimen": {
          "reference": "urn:uuid:c27300db-57a6-4f4e-9d49-0f1fcdd82570"
        }
      }
    },
    {
      "fullUrl": "urn:uuid:be176146-3c6c-4de1-bfc8-20ecc9af8445",
      "resource": {
        "resourceType": "Observation",
        "id": "be176146-3c6c-4de1-bfc8-20ecc9af8445",
        "meta": {
          "profile": [
            "http://hl7.eu/fhir/laboratory/StructureDefinition/Observation-resultslab-eu-lab"
          ]
        },
        "performer": [
          {
            "display": "The Central European Lab"
          }
        ],
        "category": [
          {
            "coding": [
              {
                "system": "http://terminology.hl7.org/CodeSystem/observation-category",
                "code": "laboratory"
              }
            ]
          }
        ],
        "code": {
          "coding": [
            {
              "code": "32623-1",
              "system": "http://loinc.org",
              "display": "Platelet mean volume [Entitic volume] in Blood by Automated count"
            }
          ],
          "text": "Platelet mean volume [Entitic volume] in Blood by Automated count"
        },
        "valueQuantity": {
          "system": "http://unitsofmeasure.org",
          "value": 11.4,
          "unit": "fL",
          "code": "fL"
        },
        "referenceRange": [
          {
            "low": {
              "value": 7.2,
              "code": "fL",
              "system": "http://unitsofmeasure.org"
            }
          },
          {
            "high": {
              "value": 13.5,
              "code": "fL",
              "system": "http://unitsofmeasure.org"
            }
          }
        ],
        "text": {
          "status": "generated",
          "div": "<div xmlns=\"http://www.w3.org/1999/xhtml\"><table class=\"hl7__eu__lab__report\"><tr><th>Test</th><th>09-Apr-2024</th><th>Reference&#xA0;Range</th><th>Unit</th></tr><tr><td>Platelet mean volume [Entitic volume] in Blood by Automated count</td><td>11.4</td><td>7.2 - 13.5</td><td></td><td>fL</td></tr></table></div>"
        },
        "status": "final",
        "subject": {
          "reference": "urn:uuid:d3eb5628-50d6-4ccc-b8ae-da7e41097120",
          "display": "Hortense Gallet"
        },
        "effectiveDateTime": "2024-04-09T20:16:45Z",
        "specimen": {
          "reference": "urn:uuid:c27300db-57a6-4f4e-9d49-0f1fcdd82570"
        }
      }
    },
    {
      "fullUrl": "urn:uuid:7b636110-c03c-476e-831e-87a0f5ab3c97",
      "resource": {
        "resourceType": "Device",
        "id": "7b636110-c03c-476e-831e-87a0f5ab3c97",
        "deviceName": [
          {
            "name": "SYNDERAI Synthetic Generator",
            "type": "manufacturer-name"
          }
        ],
        "version": [
          {
            "value": "5.0"
          }
        ],
        "text": {
          "status": "generated",
          "div": "<div xmlns=\"http://www.w3.org/1999/xhtml\">SYNDERAI Synthetic Generator v5.0</div>"
        },
        "status": "active\"",
        "distinctIdentifier": "synderai-generator-50",
        "manufacturer": "SYNDERAI Project"
      }
    },
    {
      "fullUrl": "urn:uuid:cb641245-b8f3-479c-a916-f44eb84a5f6f",
      "resource": {
        "resourceType": "Provenance",
        "id": "cb641245-b8f3-479c-a916-f44eb84a5f6f",
        "target": [
          {
            "reference": "Patient/d3eb5628-50d6-4ccc-b8ae-da7e41097120"
          },
          {
            "reference": "Bundle/ca73dc2b-141d-4351-b0dc-9cf77b301c30"
          },
          {
            "reference": "Composition/479480d2-b4b9-4110-b1d2-756f920aebb7"
          },
          {
            "reference": "PractitionerRole/b16ee363-85c0-414f-858c-18a72e2abd6f"
          },
          {
            "reference": "Practitioner/b77eaa25-ff95-41ee-bda3-f4656ac51e96"
          },
          {
            "reference": "PractitionerRole/b5540b8c-1260-4787-8464-1a014bada40c"
          },
          {
            "reference": "Organization/9a16fb7f-d5f9-4968-9ae8-4ba2d841b774"
          }
        ],
        "activity": {
          "text": "Synthetic Example Data Generation"
        },
        "policy": [
          "https://synderai.net/synderai-synthetic-data-policy"
        ],
        "agent": [
          {
            "type": {
              "text": "author"
            },
            "who": {
              "reference": "Device/7b636110-c03c-476e-831e-87a0f5ab3c97"
            }
          }
        ],
        "reason": [
          {
            "text": "Interoperability Testing and Training (non-clinical use)"
          }
        ],
        "text": {
          "status": "generated",
          "div": "<div xmlns=\"http://www.w3.org/1999/xhtml\">Provenance for SYNDERAI Synthetic Example Data Resource</div>"
        },
        "recorded": "2024-04-09T22:16:45Z"
      }
    },
    {
      "fullUrl": "urn:uuid:b16ee363-85c0-414f-858c-18a72e2abd6f",
      "resource": {
        "resourceType": "PractitionerRole",
        "id": "b16ee363-85c0-414f-858c-18a72e2abd6f",
        "meta": {
          "profile": [
            "http://hl7.eu/fhir/base/StructureDefinition/practitionerRole-eu"
          ]
        },
        "text": {
          "status": "generated",
          "div": "<div xmlns=\"http://www.w3.org/1999/xhtml\">Laboratory Role Id: b16ee363-85c0-414f-858c-18a72e2abd6f</div>"
        },
        "practitioner": {
          "reference": "urn:uuid:b77eaa25-ff95-41ee-bda3-f4656ac51e96"
        }
      }
    },
    {
      "fullUrl": "urn:uuid:b77eaa25-ff95-41ee-bda3-f4656ac51e96",
      "resource": {
        "resourceType": "Practitioner",
        "id": "b77eaa25-ff95-41ee-bda3-f4656ac51e96",
        "meta": {
          "profile": [
            "http://hl7.eu/fhir/base/StructureDefinition/practitioner-eu"
          ]
        },
        "identifier": [
          {
            "assigner": {
              "display": "HL7 Europe"
            },
            "system": "urn:oid:2.16.840.1.113883.2.51.999",
            "value": "97d51699-455c-4bc6-8da1-4ae490512d16"
          }
        ],
        "name": [
          {
            "prefix": [
              "dr"
            ],
            "given": [
              "Ex"
            ],
            "family": "Ample"
          }
        ],
        "address": [
          {
            "line": [
              "Laboratoire Central Européenne",
              "Boulevard du Jardin Botanique 32"
            ],
            "postalCode": "1000",
            "city": "Brussels",
            "country": "Belgium"
          }
        ],
        "text": {
          "status": "generated",
          "div": "<div xmlns=\"http://www.w3.org/1999/xhtml\">Laboratory: Laboratoire Central Européenne, 1000 Brussels, Belgium</div>"
        }
      }
    }
  ],
  "type": "document",
  "timestamp": "2024-04-09T22:16:45Z"
}
