{
  "resourceType": "Bundle",
  "id": "bacac675-e864-4d5e-bb1f-2d05abf6b3bd",
  "meta": {
    "profile": [
      "http://hl7.eu/fhir/laboratory/StructureDefinition/Bundle-eu-lab"
    ]
  },
  "identifier": {
    "assigner": {
      "display": "HL7 Europe"
    },
    "system": "urn:oid:2.16.840.1.113883.2.51.999",
    "value": "83e71809-e19b-43f5-8f00-8bc11e724f15"
  },
  "entry": [
    {
      "fullUrl": "urn:uuid:1ae454f0-5f56-4fa6-97ed-dd818aa495ed",
      "resource": {
        "resourceType": "Composition",
        "id": "1ae454f0-5f56-4fa6-97ed-dd818aa495ed",
        "meta": {
          "profile": [
            "http://hl7.eu/fhir/laboratory/StructureDefinition/Composition-eu-lab"
          ]
        },
        "identifier": {
          "assigner": {
            "display": "HL7 Europe"
          },
          "system": "urn:oid:2.16.840.1.113883.2.51.999",
          "value": "b31f96c3-31d8-4ef1-903a-20ac65c4027a"
        },
        "author": [
          {
            "reference": "urn:uuid:84964818-b2b9-4f2b-a6bc-89d171a698f3"
          }
        ],
        "category": [
          {
            "coding": [
              {
                "code": "26436-6",
                "system": "http://loinc.org",
                "display": "Laboratory studies (set)"
              }
            ]
          }
        ],
        "type": {
          "coding": [
            {
              "code": "11502-2",
              "system": "http://loinc.org",
              "display": "Laboratory report"
            }
          ],
          "text": "Laboratory Report"
        },
        "section": [
          {
            "code": {
              "coding": [
                {
                  "code": "26436-6",
                  "system": "http://loinc.org",
                  "display": "Laboratory studies (set)"
                }
              ],
              "text": "Laboratory studies"
            },
            "section": [
              {
                "code": {
                  "coding": [
                    {
                      "code": "$18723-7",
                      "system": "http://loinc.org",
                      "display": "Hematology studies (set)"
                    }
                  ],
                  "text": "Hematology"
                },
                "entry": [
                  {
                    "reference": "urn:uuid:2ef90dce-534d-41d3-89c9-0693887e3ff9"
                  },
                  {
                    "reference": "urn:uuid:a6b559cb-b470-41d3-9be0-baa0dec73ca2"
                  },
                  {
                    "reference": "urn:uuid:76f548e1-59e3-4f21-b559-0821b4d042c1"
                  },
                  {
                    "reference": "urn:uuid:2a6c0402-193e-4016-9575-288d63806cb1"
                  },
                  {
                    "reference": "urn:uuid:cf88138a-a92d-4369-b2b2-38ea2f5229ea"
                  },
                  {
                    "reference": "urn:uuid:3473ee78-54af-4077-9a0a-5ac5b9b52ad1"
                  },
                  {
                    "reference": "urn:uuid:86c01dfd-3d04-4f34-9ba7-24eddea1f6e6"
                  },
                  {
                    "reference": "urn:uuid:32b21554-7dbc-41d1-971f-c9143d51ee50"
                  },
                  {
                    "reference": "urn:uuid:eb7ab348-f67d-4231-9e44-7cb2bcc82b34"
                  },
                  {
                    "reference": "urn:uuid:7e3509f0-6624-4519-8184-4a2df7c94cec"
                  },
                  {
                    "reference": "urn:uuid:8c81dfc9-d6af-4ddd-89ba-aa20e7ef2ed9"
                  }
                ],
                "text": {
                  "status": "generated",
                  "div": "<div xmlns=\"http://www.w3.org/1999/xhtml\"><h3>Hematology</h3><table class=\"hl7__eu__lab__report\"><thead><tr><th>Test</th><th>18-FEB-2021</th><th>Reference&#xA0;Range</th><th>Unit</th></tr></thead><tbody><tr><td>Leukocytes [#/volume] in Blood by Automated count</td><td>7.2</td><td>4 - 11</td><td>10*3/uL</td></tr><tr><td>Erythrocytes [#/volume] in Blood by Automated count</td><td>4.2</td><td>4 - 5.2</td><td>10*6/uL</td></tr><tr><td>Hemoglobin [Mass/volume] in Blood</td><td><strong>16.5 H</strong></td><td>12 - 16</td><td>g/dL</td></tr><tr><td>Hematocrit [Volume Fraction] of Blood by Automated count</td><td>48.6</td><td>36 - 52</td><td>%</td></tr><tr><td>MCV [Entitic volume] by Automated count</td><td>90.3</td><td>82 - 98</td><td>fL</td></tr><tr><td>MCH [Entitic mass] by Automated count</td><td>32.9</td><td>27 - 33</td><td>pg</td></tr><tr><td>MCHC [Mass/volume] by Automated count</td><td>34.3</td><td>31 - 35</td><td>g/dL</td></tr><tr><td>Erythrocyte distribution width [Entitic volume] by Automated count</td><td>42.3</td><td>36 - 55</td><td>fL</td></tr><tr><td>Platelets [#/volume] in Blood by Automated count</td><td>308.6</td><td>150 - 450</td><td>10*3/uL</td></tr><tr><td>Platelet distribution width [Entitic volume] in Blood by Automated count</td><td><strong>186.5 H</strong></td><td>11.6 - 17.4</td><td>fL</td></tr><tr><td>Platelet mean volume [Entitic volume] in Blood by Automated count</td><td>10.3</td><td>7.2 - 13.5</td><td>fL</td></tr></tbody></table></div>"
                },
                "title": "Hematology"
              },
              {
                "code": {
                  "coding": [
                    {
                      "code": "$18719-5",
                      "system": "http://loinc.org",
                      "display": "Chemistry studies (set)"
                    }
                  ],
                  "text": "Chemistry"
                },
                "entry": [
                  {
                    "reference": "urn:uuid:29ee6e7e-7769-422b-b542-5ec4ca26b71f"
                  },
                  {
                    "reference": "urn:uuid:1bb4a2dc-c901-4012-b35f-aa20052cc36c"
                  },
                  {
                    "reference": "urn:uuid:bb9b9cc8-9810-4985-af23-a0fe27bb9420"
                  },
                  {
                    "reference": "urn:uuid:c98ededd-d229-40b1-9dbb-17dd466e1935"
                  },
                  {
                    "reference": "urn:uuid:bb2b9aab-1a9c-40e6-8ea9-64ae72a52368"
                  },
                  {
                    "reference": "urn:uuid:edd683da-4a3a-437a-a39c-6face3e5099a"
                  },
                  {
                    "reference": "urn:uuid:6f9e950c-f211-4fb6-b970-cb5be7608bdd"
                  },
                  {
                    "reference": "urn:uuid:b45955a3-b2eb-42b1-b825-cadf2aba641e"
                  },
                  {
                    "reference": "urn:uuid:465cf3e0-9a53-4be6-86b2-eb8a2ec0d6de"
                  }
                ],
                "text": {
                  "status": "generated",
                  "div": "<div xmlns=\"http://www.w3.org/1999/xhtml\"><h3>Chemistry</h3><table class=\"hl7__eu__lab__report\"><thead><tr><th>Test</th><th>18-FEB-2021</th><th>Reference&#xA0;Range</th><th>Unit</th></tr></thead><tbody><tr><td>Hemoglobin A1c/Hemoglobin.total in Blood</td><td>6.0</td><td>4 - 6</td><td>%</td></tr><tr><td>Glucose [Mass/volume] in Blood</td><td>76.5</td><td>70 - 140</td><td>mg/dL</td></tr><tr><td>Urea nitrogen [Mass/volume] in Blood</td><td>13.5</td><td>7 - 25</td><td>mg/dL</td></tr><tr><td>Creatinine [Mass/volume] in Blood</td><td><strong>1.3 H</strong></td><td>0.6 - 1.1</td><td>mg/dL</td></tr><tr><td>Calcium [Mass/volume] in Blood</td><td>9.0</td><td>8.5 - 10.4</td><td>mg/dL</td></tr><tr><td>Sodium [Moles/volume] in Blood</td><td>136.1</td><td>135 - 145</td><td>mmol/L</td></tr><tr><td>Potassium [Moles/volume] in Blood</td><td>4.2</td><td>3.5 - 5.1</td><td>mmol/L</td></tr><tr><td>Chloride [Moles/volume] in Blood</td><td>107.5</td><td>98 - 108</td><td>mmol/L</td></tr><tr><td>Carbon dioxide, total [Moles/volume] in Blood</td><td><strong>21.6 L</strong></td><td>22 - 29</td><td>mmol/L</td></tr></tbody></table></div>"
                },
                "title": "Chemistry"
              }
            ],
            "title": "Laboratory Report"
          },
          {
            "text": {
              "status": "generated",
              "div": "<div xmlns=\"http://www.w3.org/1999/xhtml\"><h3>Annotation</h3><table class=\"hl7__eu__lab__report\"><tr><th>Conclusion and Recommendations based on this report and previous findings known to us</th></tr><tr><td>The patient shows mildly elevated creatinine, suggesting possible reduced renal function, and a slightly low total CO₂, which may indicate mild metabolic acidosis. Hemoglobin is slightly above normal, which could be due to dehydration or other causes. Platelet distribution width is markedly elevated, possibly reflecting platelet activation or variability. Other parameters, including glucose, electrolytes, and blood counts, are within normal limits. Correlation with clinical context and follow-up of renal function is recommended.</td></tr></table></div>"
            },
            "code": {
              "coding": [
                {
                  "system": "http://loinc.org",
                  "code": "48767-8",
                  "display": "Annotation comment"
                }
              ]
            },
            "title": "Annotation comment"
          }
        ],
        "status": "final",
        "subject": {
          "reference": "urn:uuid:e26b10e0-bbe9-4040-b238-24004bbc621d",
          "display": "Vincenza Porzio"
        },
        "date": "2021-02-18T19:51:27Z",
        "title": "Laboratory Report",
        "confidentiality": "N"
      }
    },
    {
      "fullUrl": "urn:uuid:d607590b-40d3-4dd7-9a79-fec4fe15189b",
      "resource": {
        "resourceType": "DiagnosticReport",
        "id": "d607590b-40d3-4dd7-9a79-fec4fe15189b",
        "meta": {
          "profile": [
            "http://hl7.eu/fhir/laboratory/StructureDefinition/DiagnosticReport-eu-lab"
          ]
        },
        "identifier": [
          {
            "assigner": {
              "display": "HL7 Europe"
            },
            "system": "urn:oid:2.16.840.1.113883.2.51.999",
            "value": "3935cbb4-6e59-40c8-84f3-3176ce7e1ad1"
          }
        ],
        "extension": [
          {
            "url": "http://hl7.org/fhir/5.0/StructureDefinition/extension-DiagnosticReport.composition",
            "valueReference": {
              "reference": "urn:uuid:b31f96c3-31d8-4ef1-903a-20ac65c4027a"
            }
          }
        ],
        "category": [
          {
            "coding": [
              {
                "code": "26436-6",
                "system": "http://loinc.org",
                "display": "Laboratory studies (set)"
              }
            ]
          }
        ],
        "specimen": [
          {
            "reference": "urn:uuid:085bf444-c781-441e-a9bb-8f3437bed5bf"
          },
          {
            "reference": "urn:uuid:085bf444-c781-441e-a9bb-8f3437bed5bf"
          }
        ],
        "result": [
          {
            "reference": "urn:uuid:29ee6e7e-7769-422b-b542-5ec4ca26b71f"
          },
          {
            "reference": "urn:uuid:1bb4a2dc-c901-4012-b35f-aa20052cc36c"
          },
          {
            "reference": "urn:uuid:bb9b9cc8-9810-4985-af23-a0fe27bb9420"
          },
          {
            "reference": "urn:uuid:c98ededd-d229-40b1-9dbb-17dd466e1935"
          },
          {
            "reference": "urn:uuid:bb2b9aab-1a9c-40e6-8ea9-64ae72a52368"
          },
          {
            "reference": "urn:uuid:edd683da-4a3a-437a-a39c-6face3e5099a"
          },
          {
            "reference": "urn:uuid:6f9e950c-f211-4fb6-b970-cb5be7608bdd"
          },
          {
            "reference": "urn:uuid:b45955a3-b2eb-42b1-b825-cadf2aba641e"
          },
          {
            "reference": "urn:uuid:465cf3e0-9a53-4be6-86b2-eb8a2ec0d6de"
          },
          {
            "reference": "urn:uuid:2ef90dce-534d-41d3-89c9-0693887e3ff9"
          },
          {
            "reference": "urn:uuid:a6b559cb-b470-41d3-9be0-baa0dec73ca2"
          },
          {
            "reference": "urn:uuid:76f548e1-59e3-4f21-b559-0821b4d042c1"
          },
          {
            "reference": "urn:uuid:2a6c0402-193e-4016-9575-288d63806cb1"
          },
          {
            "reference": "urn:uuid:cf88138a-a92d-4369-b2b2-38ea2f5229ea"
          },
          {
            "reference": "urn:uuid:3473ee78-54af-4077-9a0a-5ac5b9b52ad1"
          },
          {
            "reference": "urn:uuid:86c01dfd-3d04-4f34-9ba7-24eddea1f6e6"
          },
          {
            "reference": "urn:uuid:32b21554-7dbc-41d1-971f-c9143d51ee50"
          },
          {
            "reference": "urn:uuid:eb7ab348-f67d-4231-9e44-7cb2bcc82b34"
          },
          {
            "reference": "urn:uuid:7e3509f0-6624-4519-8184-4a2df7c94cec"
          },
          {
            "reference": "urn:uuid:8c81dfc9-d6af-4ddd-89ba-aa20e7ef2ed9"
          }
        ],
        "status": "registered",
        "code": {
          "coding": [
            {
              "code": "11502-2",
              "system": "http://loinc.org",
              "display": "Laboratory report"
            }
          ]
        },
        "subject": {
          "reference": "urn:uuid:e26b10e0-bbe9-4040-b238-24004bbc621d",
          "display": "Vincenza Porzio"
        }
      }
    },
    {
      "fullUrl": "urn:uuid:e26b10e0-bbe9-4040-b238-24004bbc621d",
      "resource": {
        "resourceType": "Patient",
        "id": "e26b10e0-bbe9-4040-b238-24004bbc621d",
        "meta": {
          "security": [
            {
              "system": "http://terminology.hl7.org/CodeSystem/v3-ActReason",
              "code": "HTEST"
            },
            {
              "system": "http://terminology.hl7.org/CodeSystem/v3-ActReason",
              "code": "TRAIN"
            }
          ],
          "tag": [
            {
              "system": "https://synderai.net/fhir/CodeSystem/tags",
              "code": "synthetic",
              "display": "SYNDERAI Synthetic data"
            }
          ],
          "profile": [
            "http://hl7.eu/fhir/base/StructureDefinition/patient-eu-core"
          ]
        },
        "identifier": [
          {
            "type": {
              "coding": [
                {
                  "code": "PT",
                  "system": "http://terminology.hl7.org/CodeSystem/v2-0203"
                }
              ]
            },
            "system": "http://ec.europa.eu/identifier/eci",
            "value": "9988-341158-1"
          },
          {
            "type": {
              "coding": [
                {
                  "code": "MR",
                  "system": "http://terminology.hl7.org/CodeSystem/v2-0203"
                }
              ]
            },
            "system": "http://local.setting.eu/identifier",
            "value": "559a1acd-87c3-5b56-0345-4eaff6c5aa0a"
          }
        ],
        "name": [
          {
            "family": "Porzio"
          },
          {
            "given": [
              "Vincenza"
            ]
          },
          {
            "text": "Vincenza Porzio"
          }
        ],
        "address": [
          {
            "line": [
              "Piazza Allegra, 720"
            ],
            "use": "home",
            "type": "physical",
            "postalCode": "36040",
            "city": "Grumolo Pedemonte",
            "country": "Italy"
          }
        ],
        "telecom": [
          {
            "system": "phone",
            "value": "041007473"
          }
        ],
        "extension": [
          {
            "url": "http://hl7.org/fhir/StructureDefinition/patient-nationality",
            "valueCodeableConcept": {
              "coding": [
                {
                  "code": "IT",
                  "system": "http://hl7.org/fhir/ValueSet/country"
                }
              ]
            }
          }
        ],
        "text": {
          "status": "generated",
          "div": "<div xmlns=\"http://www.w3.org/1999/xhtml\"><table class=\"hl7__ips\"><tr><td>Vincenza Porzio</td><td>female</td><td>13-Sep-1965</td></tr></table></div>"
        },
        "gender": "female",
        "birthDate": "1965-09-13"
      }
    },
    {
      "fullUrl": "urn:uuid:29626b66-4c1f-467a-8790-750e628df399",
      "resource": {
        "resourceType": "ServiceRequest",
        "id": "29626b66-4c1f-467a-8790-750e628df399",
        "meta": {
          "profile": [
            "http://hl7.eu/fhir/laboratory/StructureDefinition/ServiceRequest-eu-lab"
          ]
        },
        "identifier": [
          {
            "system": "http://example.org",
            "value": "8e30a90b-7c48-47a4-8597-5e6644872934"
          }
        ],
        "specimen": [
          {
            "reference": "urn:uuid:085bf444-c781-441e-a9bb-8f3437bed5bf"
          }
        ],
        "reasonCode": [
          {
            "coding": [
              {
                "code": "40055000",
                "system": "http://snomed.info/sct",
                "display": "Chronic sinusitis"
              }
            ]
          },
          {
            "coding": [
              {
                "code": "15777000",
                "system": "http://snomed.info/sct",
                "display": "Prediabetes"
              }
            ]
          },
          {
            "coding": [
              {
                "code": "239873007",
                "system": "http://snomed.info/sct",
                "display": "Osteoarthritis of knee"
              }
            ]
          },
          {
            "coding": [
              {
                "code": "6525002",
                "system": "http://snomed.info/sct",
                "display": "Dependent drug abuse"
              }
            ]
          },
          {
            "coding": [
              {
                "code": "196416002",
                "system": "http://snomed.info/sct",
                "display": "Impacted molars"
              }
            ]
          },
          {
            "coding": [
              {
                "code": "124171000119105",
                "system": "http://snomed.info/sct",
                "display": "Chronic intractable migraine without aura"
              }
            ]
          }
        ],
        "status": "active",
        "intent": "order",
        "code": {
          "coding": [
            {
              "code": "108252007",
              "system": "http://snomed.info/sct",
              "display": "Laboratory procedure"
            }
          ]
        },
        "subject": {
          "reference": "urn:uuid:e26b10e0-bbe9-4040-b238-24004bbc621d",
          "display": "Vincenza Porzio"
        },
        "requester": {
          "reference": "urn:uuid:19649f77-cb5a-4713-a32f-22c63081d356"
        }
      }
    },
    {
      "fullUrl": "urn:uuid:19649f77-cb5a-4713-a32f-22c63081d356",
      "resource": {
        "resourceType": "PractitionerRole",
        "id": "19649f77-cb5a-4713-a32f-22c63081d356",
        "meta": {
          "profile": [
            "http://hl7.eu/fhir/base/StructureDefinition/practitionerRole-eu"
          ]
        },
        "text": {
          "status": "generated",
          "div": "<div xmlns=\"http://www.w3.org/1999/xhtml\">Provider Role Id: 19649f77-cb5a-4713-a32f-22c63081d356</div>"
        },
        "organization": {
          "reference": "urn:uuid:bfba78ad-342f-4507-bb16-04634124cdd0"
        }
      }
    },
    {
      "fullUrl": "urn:uuid:bfba78ad-342f-4507-bb16-04634124cdd0",
      "resource": {
        "resourceType": "Organization",
        "id": "bfba78ad-342f-4507-bb16-04634124cdd0",
        "meta": {
          "profile": [
            "http://hl7.eu/fhir/base/StructureDefinition/organization-eu"
          ]
        },
        "identifier": [
          {
            "assigner": {
              "display": "HL7 Europe"
            },
            "system": "urn:oid:2.16.840.1.113883.2.51.999",
            "value": "a6a07803-8a6a-41ae-a768-5ea59bc72933"
          }
        ],
        "address": [
          {
            "country": "Italy"
          }
        ],
        "text": {
          "status": "generated",
          "div": "<div xmlns=\"http://www.w3.org/1999/xhtml\">Provider Organization: Villa Margherita</div>"
        },
        "name": "Villa Margherita"
      }
    },
    {
      "fullUrl": "urn:uuid:085bf444-c781-441e-a9bb-8f3437bed5bf",
      "resource": {
        "resourceType": "Specimen",
        "id": "085bf444-c781-441e-a9bb-8f3437bed5bf",
        "meta": {
          "profile": [
            "http://hl7.eu/fhir/laboratory/StructureDefinition/Specimen-eu-lab"
          ]
        },
        "collection": {
          "collectedDateTime": "2021-02-18"
        },
        "text": {
          "status": "generated",
          "div": "<div xmlns=\"http://www.w3.org/1999/xhtml\"><table class=\"hl7__eu__lab__report\"><tr><th>Specimen</th><th>Collection Date</th></tr><tr><td>Whole blood specimen (specimen)</td><td><span class=\"nb\">18-Feb-2021</span></td></tr></table></div>"
        },
        "type": {
          "coding": [
            {
              "code": "258580003",
              "system": "http://snomed.info/sct",
              "display": "Whole blood specimen (specimen)"
            }
          ]
        }
      }
    },
    {
      "fullUrl": "urn:uuid:085bf444-c781-441e-a9bb-8f3437bed5bf",
      "resource": {
        "resourceType": "Specimen",
        "id": "085bf444-c781-441e-a9bb-8f3437bed5bf",
        "meta": {
          "profile": [
            "http://hl7.eu/fhir/laboratory/StructureDefinition/Specimen-eu-lab"
          ]
        },
        "collection": {
          "collectedDateTime": "2021-02-18"
        },
        "text": {
          "status": "generated",
          "div": "<div xmlns=\"http://www.w3.org/1999/xhtml\"><table class=\"hl7__eu__lab__report\"><tr><th>Specimen</th><th>Collection Date</th></tr><tr><td>Whole blood specimen (specimen)</td><td><span class=\"nb\">18-Feb-2021</span></td></tr></table></div>"
        },
        "type": {
          "coding": [
            {
              "code": "258580003",
              "system": "http://snomed.info/sct",
              "display": "Whole blood specimen (specimen)"
            }
          ]
        }
      }
    },
    {
      "fullUrl": "urn:uuid:29ee6e7e-7769-422b-b542-5ec4ca26b71f",
      "resource": {
        "resourceType": "Observation",
        "id": "29ee6e7e-7769-422b-b542-5ec4ca26b71f",
        "meta": {
          "profile": [
            "http://hl7.eu/fhir/laboratory/StructureDefinition/Observation-resultslab-eu-lab"
          ]
        },
        "performer": [
          {
            "display": "The Central European Lab"
          }
        ],
        "category": [
          {
            "coding": [
              {
                "system": "http://terminology.hl7.org/CodeSystem/observation-category",
                "code": "laboratory"
              }
            ]
          }
        ],
        "code": {
          "coding": [
            {
              "code": "4548-4",
              "system": "http://loinc.org",
              "display": "Hemoglobin A1c/Hemoglobin.total in Blood"
            }
          ],
          "text": "Hemoglobin A1c/Hemoglobin.total in Blood"
        },
        "valueQuantity": {
          "system": "http://unitsofmeasure.org",
          "value": 6,
          "unit": "%",
          "code": "%"
        },
        "referenceRange": [
          {
            "low": {
              "value": 4,
              "code": "%",
              "system": "http://unitsofmeasure.org"
            }
          },
          {
            "high": {
              "value": 6,
              "code": "%",
              "system": "http://unitsofmeasure.org"
            }
          }
        ],
        "text": {
          "status": "generated",
          "div": "<div xmlns=\"http://www.w3.org/1999/xhtml\"><table class=\"hl7__eu__lab__report\"><tr><th>Test</th><th>18-Feb-2021</th><th>Reference&#xA0;Range</th><th>Unit</th></tr><tr><td>Hemoglobin A1c/Hemoglobin.total in Blood</td><td>6.0</td><td>4 - 6</td><td></td><td>%</td></tr></table></div>"
        },
        "status": "final",
        "subject": {
          "reference": "urn:uuid:e26b10e0-bbe9-4040-b238-24004bbc621d",
          "display": "Vincenza Porzio"
        },
        "effectiveDateTime": "2021-02-18T18:51:27Z",
        "specimen": {
          "reference": "urn:uuid:085bf444-c781-441e-a9bb-8f3437bed5bf"
        }
      }
    },
    {
      "fullUrl": "urn:uuid:1bb4a2dc-c901-4012-b35f-aa20052cc36c",
      "resource": {
        "resourceType": "Observation",
        "id": "1bb4a2dc-c901-4012-b35f-aa20052cc36c",
        "meta": {
          "profile": [
            "http://hl7.eu/fhir/laboratory/StructureDefinition/Observation-resultslab-eu-lab"
          ]
        },
        "performer": [
          {
            "display": "The Central European Lab"
          }
        ],
        "category": [
          {
            "coding": [
              {
                "system": "http://terminology.hl7.org/CodeSystem/observation-category",
                "code": "laboratory"
              }
            ]
          }
        ],
        "code": {
          "coding": [
            {
              "code": "2339-0",
              "system": "http://loinc.org",
              "display": "Glucose [Mass/volume] in Blood"
            }
          ],
          "text": "Glucose [Mass/volume] in Blood"
        },
        "valueQuantity": {
          "system": "http://unitsofmeasure.org",
          "value": 76.5,
          "unit": "mg/dL",
          "code": "mg/dL"
        },
        "referenceRange": [
          {
            "low": {
              "value": 70,
              "code": "mg/dL",
              "system": "http://unitsofmeasure.org"
            }
          },
          {
            "high": {
              "value": 140,
              "code": "mg/dL",
              "system": "http://unitsofmeasure.org"
            }
          }
        ],
        "text": {
          "status": "generated",
          "div": "<div xmlns=\"http://www.w3.org/1999/xhtml\"><table class=\"hl7__eu__lab__report\"><tr><th>Test</th><th>18-Feb-2021</th><th>Reference&#xA0;Range</th><th>Unit</th></tr><tr><td>Glucose [Mass/volume] in Blood</td><td>76.5</td><td>70 - 140</td><td></td><td>mg/dL</td></tr></table></div>"
        },
        "status": "final",
        "subject": {
          "reference": "urn:uuid:e26b10e0-bbe9-4040-b238-24004bbc621d",
          "display": "Vincenza Porzio"
        },
        "effectiveDateTime": "2021-02-18T18:51:27Z",
        "specimen": {
          "reference": "urn:uuid:085bf444-c781-441e-a9bb-8f3437bed5bf"
        }
      }
    },
    {
      "fullUrl": "urn:uuid:bb9b9cc8-9810-4985-af23-a0fe27bb9420",
      "resource": {
        "resourceType": "Observation",
        "id": "bb9b9cc8-9810-4985-af23-a0fe27bb9420",
        "meta": {
          "profile": [
            "http://hl7.eu/fhir/laboratory/StructureDefinition/Observation-resultslab-eu-lab"
          ]
        },
        "performer": [
          {
            "display": "The Central European Lab"
          }
        ],
        "category": [
          {
            "coding": [
              {
                "system": "http://terminology.hl7.org/CodeSystem/observation-category",
                "code": "laboratory"
              }
            ]
          }
        ],
        "code": {
          "coding": [
            {
              "code": "6299-2",
              "system": "http://loinc.org",
              "display": "Urea nitrogen [Mass/volume] in Blood"
            }
          ],
          "text": "Urea nitrogen [Mass/volume] in Blood"
        },
        "valueQuantity": {
          "system": "http://unitsofmeasure.org",
          "value": 13.5,
          "unit": "mg/dL",
          "code": "mg/dL"
        },
        "referenceRange": [
          {
            "low": {
              "value": 7,
              "code": "mg/dL",
              "system": "http://unitsofmeasure.org"
            }
          },
          {
            "high": {
              "value": 25,
              "code": "mg/dL",
              "system": "http://unitsofmeasure.org"
            }
          }
        ],
        "text": {
          "status": "generated",
          "div": "<div xmlns=\"http://www.w3.org/1999/xhtml\"><table class=\"hl7__eu__lab__report\"><tr><th>Test</th><th>18-Feb-2021</th><th>Reference&#xA0;Range</th><th>Unit</th></tr><tr><td>Urea nitrogen [Mass/volume] in Blood</td><td>13.5</td><td>7 - 25</td><td></td><td>mg/dL</td></tr></table></div>"
        },
        "status": "final",
        "subject": {
          "reference": "urn:uuid:e26b10e0-bbe9-4040-b238-24004bbc621d",
          "display": "Vincenza Porzio"
        },
        "effectiveDateTime": "2021-02-18T18:51:27Z",
        "specimen": {
          "reference": "urn:uuid:085bf444-c781-441e-a9bb-8f3437bed5bf"
        }
      }
    },
    {
      "fullUrl": "urn:uuid:c98ededd-d229-40b1-9dbb-17dd466e1935",
      "resource": {
        "resourceType": "Observation",
        "id": "c98ededd-d229-40b1-9dbb-17dd466e1935",
        "meta": {
          "profile": [
            "http://hl7.eu/fhir/laboratory/StructureDefinition/Observation-resultslab-eu-lab"
          ]
        },
        "performer": [
          {
            "display": "The Central European Lab"
          }
        ],
        "category": [
          {
            "coding": [
              {
                "system": "http://terminology.hl7.org/CodeSystem/observation-category",
                "code": "laboratory"
              }
            ]
          }
        ],
        "code": {
          "coding": [
            {
              "code": "38483-4",
              "system": "http://loinc.org",
              "display": "Creatinine [Mass/volume] in Blood"
            }
          ],
          "text": "Creatinine [Mass/volume] in Blood"
        },
        "valueQuantity": {
          "system": "http://unitsofmeasure.org",
          "value": 1.3,
          "unit": "mg/dL",
          "code": "mg/dL"
        },
        "referenceRange": [
          {
            "low": {
              "value": 0.6,
              "code": "mg/dL",
              "system": "http://unitsofmeasure.org"
            }
          },
          {
            "high": {
              "value": 1.1,
              "code": "mg/dL",
              "system": "http://unitsofmeasure.org"
            }
          }
        ],
        "interpretation": [
          {
            "coding": [
              {
                "code": "H",
                "system": "http://terminology.hl7.org/CodeSystem/v3-ObservationInterpretation",
                "display": "High"
              }
            ]
          }
        ],
        "text": {
          "status": "generated",
          "div": "<div xmlns=\"http://www.w3.org/1999/xhtml\"><table class=\"hl7__eu__lab__report\"><tr><th>Test</th><th>18-Feb-2021</th><th>Reference&#xA0;Range</th><th>Unit</th></tr><tr><td>Creatinine [Mass/volume] in Blood</td><td>1.3</td><td>0.6 - 1.1</td><td>H</td><td>mg/dL</td></tr></table></div>"
        },
        "status": "final",
        "subject": {
          "reference": "urn:uuid:e26b10e0-bbe9-4040-b238-24004bbc621d",
          "display": "Vincenza Porzio"
        },
        "effectiveDateTime": "2021-02-18T18:51:27Z",
        "specimen": {
          "reference": "urn:uuid:085bf444-c781-441e-a9bb-8f3437bed5bf"
        }
      }
    },
    {
      "fullUrl": "urn:uuid:bb2b9aab-1a9c-40e6-8ea9-64ae72a52368",
      "resource": {
        "resourceType": "Observation",
        "id": "bb2b9aab-1a9c-40e6-8ea9-64ae72a52368",
        "meta": {
          "profile": [
            "http://hl7.eu/fhir/laboratory/StructureDefinition/Observation-resultslab-eu-lab"
          ]
        },
        "performer": [
          {
            "display": "The Central European Lab"
          }
        ],
        "category": [
          {
            "coding": [
              {
                "system": "http://terminology.hl7.org/CodeSystem/observation-category",
                "code": "laboratory"
              }
            ]
          }
        ],
        "code": {
          "coding": [
            {
              "code": "49765-1",
              "system": "http://loinc.org",
              "display": "Calcium [Mass/volume] in Blood"
            }
          ],
          "text": "Calcium [Mass/volume] in Blood"
        },
        "valueQuantity": {
          "system": "http://unitsofmeasure.org",
          "value": 9,
          "unit": "mg/dL",
          "code": "mg/dL"
        },
        "referenceRange": [
          {
            "low": {
              "value": 8.5,
              "code": "mg/dL",
              "system": "http://unitsofmeasure.org"
            }
          },
          {
            "high": {
              "value": 10.4,
              "code": "mg/dL",
              "system": "http://unitsofmeasure.org"
            }
          }
        ],
        "text": {
          "status": "generated",
          "div": "<div xmlns=\"http://www.w3.org/1999/xhtml\"><table class=\"hl7__eu__lab__report\"><tr><th>Test</th><th>18-Feb-2021</th><th>Reference&#xA0;Range</th><th>Unit</th></tr><tr><td>Calcium [Mass/volume] in Blood</td><td>9.0</td><td>8.5 - 10.4</td><td></td><td>mg/dL</td></tr></table></div>"
        },
        "status": "final",
        "subject": {
          "reference": "urn:uuid:e26b10e0-bbe9-4040-b238-24004bbc621d",
          "display": "Vincenza Porzio"
        },
        "effectiveDateTime": "2021-02-18T18:51:27Z",
        "specimen": {
          "reference": "urn:uuid:085bf444-c781-441e-a9bb-8f3437bed5bf"
        }
      }
    },
    {
      "fullUrl": "urn:uuid:edd683da-4a3a-437a-a39c-6face3e5099a",
      "resource": {
        "resourceType": "Observation",
        "id": "edd683da-4a3a-437a-a39c-6face3e5099a",
        "meta": {
          "profile": [
            "http://hl7.eu/fhir/laboratory/StructureDefinition/Observation-resultslab-eu-lab"
          ]
        },
        "performer": [
          {
            "display": "The Central European Lab"
          }
        ],
        "category": [
          {
            "coding": [
              {
                "system": "http://terminology.hl7.org/CodeSystem/observation-category",
                "code": "laboratory"
              }
            ]
          }
        ],
        "code": {
          "coding": [
            {
              "code": "2947-0",
              "system": "http://loinc.org",
              "display": "Sodium [Moles/volume] in Blood"
            }
          ],
          "text": "Sodium [Moles/volume] in Blood"
        },
        "valueQuantity": {
          "system": "http://unitsofmeasure.org",
          "value": 136.1,
          "unit": "mmol/L",
          "code": "mmol/L"
        },
        "referenceRange": [
          {
            "low": {
              "value": 135,
              "code": "mmol/L",
              "system": "http://unitsofmeasure.org"
            }
          },
          {
            "high": {
              "value": 145,
              "code": "mmol/L",
              "system": "http://unitsofmeasure.org"
            }
          }
        ],
        "text": {
          "status": "generated",
          "div": "<div xmlns=\"http://www.w3.org/1999/xhtml\"><table class=\"hl7__eu__lab__report\"><tr><th>Test</th><th>18-Feb-2021</th><th>Reference&#xA0;Range</th><th>Unit</th></tr><tr><td>Sodium [Moles/volume] in Blood</td><td>136.1</td><td>135 - 145</td><td></td><td>mmol/L</td></tr></table></div>"
        },
        "status": "final",
        "subject": {
          "reference": "urn:uuid:e26b10e0-bbe9-4040-b238-24004bbc621d",
          "display": "Vincenza Porzio"
        },
        "effectiveDateTime": "2021-02-18T18:51:27Z",
        "specimen": {
          "reference": "urn:uuid:085bf444-c781-441e-a9bb-8f3437bed5bf"
        }
      }
    },
    {
      "fullUrl": "urn:uuid:6f9e950c-f211-4fb6-b970-cb5be7608bdd",
      "resource": {
        "resourceType": "Observation",
        "id": "6f9e950c-f211-4fb6-b970-cb5be7608bdd",
        "meta": {
          "profile": [
            "http://hl7.eu/fhir/laboratory/StructureDefinition/Observation-resultslab-eu-lab"
          ]
        },
        "performer": [
          {
            "display": "The Central European Lab"
          }
        ],
        "category": [
          {
            "coding": [
              {
                "system": "http://terminology.hl7.org/CodeSystem/observation-category",
                "code": "laboratory"
              }
            ]
          }
        ],
        "code": {
          "coding": [
            {
              "code": "6298-4",
              "system": "http://loinc.org",
              "display": "Potassium [Moles/volume] in Blood"
            }
          ],
          "text": "Potassium [Moles/volume] in Blood"
        },
        "valueQuantity": {
          "system": "http://unitsofmeasure.org",
          "value": 4.2,
          "unit": "mmol/L",
          "code": "mmol/L"
        },
        "referenceRange": [
          {
            "low": {
              "value": 3.5,
              "code": "mmol/L",
              "system": "http://unitsofmeasure.org"
            }
          },
          {
            "high": {
              "value": 5.1,
              "code": "mmol/L",
              "system": "http://unitsofmeasure.org"
            }
          }
        ],
        "text": {
          "status": "generated",
          "div": "<div xmlns=\"http://www.w3.org/1999/xhtml\"><table class=\"hl7__eu__lab__report\"><tr><th>Test</th><th>18-Feb-2021</th><th>Reference&#xA0;Range</th><th>Unit</th></tr><tr><td>Potassium [Moles/volume] in Blood</td><td>4.2</td><td>3.5 - 5.1</td><td></td><td>mmol/L</td></tr></table></div>"
        },
        "status": "final",
        "subject": {
          "reference": "urn:uuid:e26b10e0-bbe9-4040-b238-24004bbc621d",
          "display": "Vincenza Porzio"
        },
        "effectiveDateTime": "2021-02-18T18:51:27Z",
        "specimen": {
          "reference": "urn:uuid:085bf444-c781-441e-a9bb-8f3437bed5bf"
        }
      }
    },
    {
      "fullUrl": "urn:uuid:b45955a3-b2eb-42b1-b825-cadf2aba641e",
      "resource": {
        "resourceType": "Observation",
        "id": "b45955a3-b2eb-42b1-b825-cadf2aba641e",
        "meta": {
          "profile": [
            "http://hl7.eu/fhir/laboratory/StructureDefinition/Observation-resultslab-eu-lab"
          ]
        },
        "performer": [
          {
            "display": "The Central European Lab"
          }
        ],
        "category": [
          {
            "coding": [
              {
                "system": "http://terminology.hl7.org/CodeSystem/observation-category",
                "code": "laboratory"
              }
            ]
          }
        ],
        "code": {
          "coding": [
            {
              "code": "2069-3",
              "system": "http://loinc.org",
              "display": "Chloride [Moles/volume] in Blood"
            }
          ],
          "text": "Chloride [Moles/volume] in Blood"
        },
        "valueQuantity": {
          "system": "http://unitsofmeasure.org",
          "value": 107.5,
          "unit": "mmol/L",
          "code": "mmol/L"
        },
        "referenceRange": [
          {
            "low": {
              "value": 98,
              "code": "mmol/L",
              "system": "http://unitsofmeasure.org"
            }
          },
          {
            "high": {
              "value": 108,
              "code": "mmol/L",
              "system": "http://unitsofmeasure.org"
            }
          }
        ],
        "text": {
          "status": "generated",
          "div": "<div xmlns=\"http://www.w3.org/1999/xhtml\"><table class=\"hl7__eu__lab__report\"><tr><th>Test</th><th>18-Feb-2021</th><th>Reference&#xA0;Range</th><th>Unit</th></tr><tr><td>Chloride [Moles/volume] in Blood</td><td>107.5</td><td>98 - 108</td><td></td><td>mmol/L</td></tr></table></div>"
        },
        "status": "final",
        "subject": {
          "reference": "urn:uuid:e26b10e0-bbe9-4040-b238-24004bbc621d",
          "display": "Vincenza Porzio"
        },
        "effectiveDateTime": "2021-02-18T18:51:27Z",
        "specimen": {
          "reference": "urn:uuid:085bf444-c781-441e-a9bb-8f3437bed5bf"
        }
      }
    },
    {
      "fullUrl": "urn:uuid:465cf3e0-9a53-4be6-86b2-eb8a2ec0d6de",
      "resource": {
        "resourceType": "Observation",
        "id": "465cf3e0-9a53-4be6-86b2-eb8a2ec0d6de",
        "meta": {
          "profile": [
            "http://hl7.eu/fhir/laboratory/StructureDefinition/Observation-resultslab-eu-lab"
          ]
        },
        "performer": [
          {
            "display": "The Central European Lab"
          }
        ],
        "category": [
          {
            "coding": [
              {
                "system": "http://terminology.hl7.org/CodeSystem/observation-category",
                "code": "laboratory"
              }
            ]
          }
        ],
        "code": {
          "coding": [
            {
              "code": "20565-8",
              "system": "http://loinc.org",
              "display": "Carbon dioxide, total [Moles/volume] in Blood"
            }
          ],
          "text": "Carbon dioxide, total [Moles/volume] in Blood"
        },
        "valueQuantity": {
          "system": "http://unitsofmeasure.org",
          "value": 21.6,
          "unit": "mmol/L",
          "code": "mmol/L"
        },
        "referenceRange": [
          {
            "low": {
              "value": 22,
              "code": "mmol/L",
              "system": "http://unitsofmeasure.org"
            }
          },
          {
            "high": {
              "value": 29,
              "code": "mmol/L",
              "system": "http://unitsofmeasure.org"
            }
          }
        ],
        "interpretation": [
          {
            "coding": [
              {
                "code": "L",
                "system": "http://terminology.hl7.org/CodeSystem/v3-ObservationInterpretation",
                "display": "Low"
              }
            ]
          }
        ],
        "text": {
          "status": "generated",
          "div": "<div xmlns=\"http://www.w3.org/1999/xhtml\"><table class=\"hl7__eu__lab__report\"><tr><th>Test</th><th>18-Feb-2021</th><th>Reference&#xA0;Range</th><th>Unit</th></tr><tr><td>Carbon dioxide, total [Moles/volume] in Blood</td><td>21.6</td><td>22 - 29</td><td>L</td><td>mmol/L</td></tr></table></div>"
        },
        "status": "final",
        "subject": {
          "reference": "urn:uuid:e26b10e0-bbe9-4040-b238-24004bbc621d",
          "display": "Vincenza Porzio"
        },
        "effectiveDateTime": "2021-02-18T18:51:27Z",
        "specimen": {
          "reference": "urn:uuid:085bf444-c781-441e-a9bb-8f3437bed5bf"
        }
      }
    },
    {
      "fullUrl": "urn:uuid:2ef90dce-534d-41d3-89c9-0693887e3ff9",
      "resource": {
        "resourceType": "Observation",
        "id": "2ef90dce-534d-41d3-89c9-0693887e3ff9",
        "meta": {
          "profile": [
            "http://hl7.eu/fhir/laboratory/StructureDefinition/Observation-resultslab-eu-lab"
          ]
        },
        "performer": [
          {
            "display": "The Central European Lab"
          }
        ],
        "category": [
          {
            "coding": [
              {
                "system": "http://terminology.hl7.org/CodeSystem/observation-category",
                "code": "laboratory"
              }
            ]
          }
        ],
        "code": {
          "coding": [
            {
              "code": "6690-2",
              "system": "http://loinc.org",
              "display": "Leukocytes [#/volume] in Blood by Automated count"
            }
          ],
          "text": "Leukocytes [#/volume] in Blood by Automated count"
        },
        "valueQuantity": {
          "system": "http://unitsofmeasure.org",
          "value": 7.2,
          "unit": "10*3/uL",
          "code": "10*3/uL"
        },
        "referenceRange": [
          {
            "low": {
              "value": 4,
              "code": "10*3/uL",
              "system": "http://unitsofmeasure.org"
            }
          },
          {
            "high": {
              "value": 11,
              "code": "10*3/uL",
              "system": "http://unitsofmeasure.org"
            }
          }
        ],
        "text": {
          "status": "generated",
          "div": "<div xmlns=\"http://www.w3.org/1999/xhtml\"><table class=\"hl7__eu__lab__report\"><tr><th>Test</th><th>18-Feb-2021</th><th>Reference&#xA0;Range</th><th>Unit</th></tr><tr><td>Leukocytes [#/volume] in Blood by Automated count</td><td>7.2</td><td>4 - 11</td><td></td><td>10*3/uL</td></tr></table></div>"
        },
        "status": "final",
        "subject": {
          "reference": "urn:uuid:e26b10e0-bbe9-4040-b238-24004bbc621d",
          "display": "Vincenza Porzio"
        },
        "effectiveDateTime": "2021-02-18T18:51:27Z",
        "specimen": {
          "reference": "urn:uuid:085bf444-c781-441e-a9bb-8f3437bed5bf"
        }
      }
    },
    {
      "fullUrl": "urn:uuid:a6b559cb-b470-41d3-9be0-baa0dec73ca2",
      "resource": {
        "resourceType": "Observation",
        "id": "a6b559cb-b470-41d3-9be0-baa0dec73ca2",
        "meta": {
          "profile": [
            "http://hl7.eu/fhir/laboratory/StructureDefinition/Observation-resultslab-eu-lab"
          ]
        },
        "performer": [
          {
            "display": "The Central European Lab"
          }
        ],
        "category": [
          {
            "coding": [
              {
                "system": "http://terminology.hl7.org/CodeSystem/observation-category",
                "code": "laboratory"
              }
            ]
          }
        ],
        "code": {
          "coding": [
            {
              "code": "789-8",
              "system": "http://loinc.org",
              "display": "Erythrocytes [#/volume] in Blood by Automated count"
            }
          ],
          "text": "Erythrocytes [#/volume] in Blood by Automated count"
        },
        "valueQuantity": {
          "system": "http://unitsofmeasure.org",
          "value": 4.2,
          "unit": "10*6/uL",
          "code": "10*6/uL"
        },
        "referenceRange": [
          {
            "low": {
              "value": 4,
              "code": "10*6/uL",
              "system": "http://unitsofmeasure.org"
            }
          },
          {
            "high": {
              "value": 5.2,
              "code": "10*6/uL",
              "system": "http://unitsofmeasure.org"
            }
          }
        ],
        "text": {
          "status": "generated",
          "div": "<div xmlns=\"http://www.w3.org/1999/xhtml\"><table class=\"hl7__eu__lab__report\"><tr><th>Test</th><th>18-Feb-2021</th><th>Reference&#xA0;Range</th><th>Unit</th></tr><tr><td>Erythrocytes [#/volume] in Blood by Automated count</td><td>4.2</td><td>4 - 5.2</td><td></td><td>10*6/uL</td></tr></table></div>"
        },
        "status": "final",
        "subject": {
          "reference": "urn:uuid:e26b10e0-bbe9-4040-b238-24004bbc621d",
          "display": "Vincenza Porzio"
        },
        "effectiveDateTime": "2021-02-18T18:51:27Z",
        "specimen": {
          "reference": "urn:uuid:085bf444-c781-441e-a9bb-8f3437bed5bf"
        }
      }
    },
    {
      "fullUrl": "urn:uuid:76f548e1-59e3-4f21-b559-0821b4d042c1",
      "resource": {
        "resourceType": "Observation",
        "id": "76f548e1-59e3-4f21-b559-0821b4d042c1",
        "meta": {
          "profile": [
            "http://hl7.eu/fhir/laboratory/StructureDefinition/Observation-resultslab-eu-lab"
          ]
        },
        "performer": [
          {
            "display": "The Central European Lab"
          }
        ],
        "category": [
          {
            "coding": [
              {
                "system": "http://terminology.hl7.org/CodeSystem/observation-category",
                "code": "laboratory"
              }
            ]
          }
        ],
        "code": {
          "coding": [
            {
              "code": "718-7",
              "system": "http://loinc.org",
              "display": "Hemoglobin [Mass/volume] in Blood"
            }
          ],
          "text": "Hemoglobin [Mass/volume] in Blood"
        },
        "valueQuantity": {
          "system": "http://unitsofmeasure.org",
          "value": 16.5,
          "unit": "g/dL",
          "code": "g/dL"
        },
        "referenceRange": [
          {
            "low": {
              "value": 12,
              "code": "g/dL",
              "system": "http://unitsofmeasure.org"
            }
          },
          {
            "high": {
              "value": 16,
              "code": "g/dL",
              "system": "http://unitsofmeasure.org"
            }
          }
        ],
        "interpretation": [
          {
            "coding": [
              {
                "code": "H",
                "system": "http://terminology.hl7.org/CodeSystem/v3-ObservationInterpretation",
                "display": "High"
              }
            ]
          }
        ],
        "text": {
          "status": "generated",
          "div": "<div xmlns=\"http://www.w3.org/1999/xhtml\"><table class=\"hl7__eu__lab__report\"><tr><th>Test</th><th>18-Feb-2021</th><th>Reference&#xA0;Range</th><th>Unit</th></tr><tr><td>Hemoglobin [Mass/volume] in Blood</td><td>16.5</td><td>12 - 16</td><td>H</td><td>g/dL</td></tr></table></div>"
        },
        "status": "final",
        "subject": {
          "reference": "urn:uuid:e26b10e0-bbe9-4040-b238-24004bbc621d",
          "display": "Vincenza Porzio"
        },
        "effectiveDateTime": "2021-02-18T18:51:27Z",
        "specimen": {
          "reference": "urn:uuid:085bf444-c781-441e-a9bb-8f3437bed5bf"
        }
      }
    },
    {
      "fullUrl": "urn:uuid:2a6c0402-193e-4016-9575-288d63806cb1",
      "resource": {
        "resourceType": "Observation",
        "id": "2a6c0402-193e-4016-9575-288d63806cb1",
        "meta": {
          "profile": [
            "http://hl7.eu/fhir/laboratory/StructureDefinition/Observation-resultslab-eu-lab"
          ]
        },
        "performer": [
          {
            "display": "The Central European Lab"
          }
        ],
        "category": [
          {
            "coding": [
              {
                "system": "http://terminology.hl7.org/CodeSystem/observation-category",
                "code": "laboratory"
              }
            ]
          }
        ],
        "code": {
          "coding": [
            {
              "code": "4544-3",
              "system": "http://loinc.org",
              "display": "Hematocrit [Volume Fraction] of Blood by Automated count"
            }
          ],
          "text": "Hematocrit [Volume Fraction] of Blood by Automated count"
        },
        "valueQuantity": {
          "system": "http://unitsofmeasure.org",
          "value": 48.6,
          "unit": "%",
          "code": "%"
        },
        "referenceRange": [
          {
            "low": {
              "value": 36,
              "code": "%",
              "system": "http://unitsofmeasure.org"
            }
          },
          {
            "high": {
              "value": 52,
              "code": "%",
              "system": "http://unitsofmeasure.org"
            }
          }
        ],
        "text": {
          "status": "generated",
          "div": "<div xmlns=\"http://www.w3.org/1999/xhtml\"><table class=\"hl7__eu__lab__report\"><tr><th>Test</th><th>18-Feb-2021</th><th>Reference&#xA0;Range</th><th>Unit</th></tr><tr><td>Hematocrit [Volume Fraction] of Blood by Automated count</td><td>48.6</td><td>36 - 52</td><td></td><td>%</td></tr></table></div>"
        },
        "status": "final",
        "subject": {
          "reference": "urn:uuid:e26b10e0-bbe9-4040-b238-24004bbc621d",
          "display": "Vincenza Porzio"
        },
        "effectiveDateTime": "2021-02-18T18:51:27Z",
        "specimen": {
          "reference": "urn:uuid:085bf444-c781-441e-a9bb-8f3437bed5bf"
        }
      }
    },
    {
      "fullUrl": "urn:uuid:cf88138a-a92d-4369-b2b2-38ea2f5229ea",
      "resource": {
        "resourceType": "Observation",
        "id": "cf88138a-a92d-4369-b2b2-38ea2f5229ea",
        "meta": {
          "profile": [
            "http://hl7.eu/fhir/laboratory/StructureDefinition/Observation-resultslab-eu-lab"
          ]
        },
        "performer": [
          {
            "display": "The Central European Lab"
          }
        ],
        "category": [
          {
            "coding": [
              {
                "system": "http://terminology.hl7.org/CodeSystem/observation-category",
                "code": "laboratory"
              }
            ]
          }
        ],
        "code": {
          "coding": [
            {
              "code": "787-2",
              "system": "http://loinc.org",
              "display": "MCV [Entitic volume] by Automated count"
            }
          ],
          "text": "MCV [Entitic volume] by Automated count"
        },
        "valueQuantity": {
          "system": "http://unitsofmeasure.org",
          "value": 90.3,
          "unit": "fL",
          "code": "fL"
        },
        "referenceRange": [
          {
            "low": {
              "value": 82,
              "code": "fL",
              "system": "http://unitsofmeasure.org"
            }
          },
          {
            "high": {
              "value": 98,
              "code": "fL",
              "system": "http://unitsofmeasure.org"
            }
          }
        ],
        "text": {
          "status": "generated",
          "div": "<div xmlns=\"http://www.w3.org/1999/xhtml\"><table class=\"hl7__eu__lab__report\"><tr><th>Test</th><th>18-Feb-2021</th><th>Reference&#xA0;Range</th><th>Unit</th></tr><tr><td>MCV [Entitic volume] by Automated count</td><td>90.3</td><td>82 - 98</td><td></td><td>fL</td></tr></table></div>"
        },
        "status": "final",
        "subject": {
          "reference": "urn:uuid:e26b10e0-bbe9-4040-b238-24004bbc621d",
          "display": "Vincenza Porzio"
        },
        "effectiveDateTime": "2021-02-18T18:51:27Z",
        "specimen": {
          "reference": "urn:uuid:085bf444-c781-441e-a9bb-8f3437bed5bf"
        }
      }
    },
    {
      "fullUrl": "urn:uuid:3473ee78-54af-4077-9a0a-5ac5b9b52ad1",
      "resource": {
        "resourceType": "Observation",
        "id": "3473ee78-54af-4077-9a0a-5ac5b9b52ad1",
        "meta": {
          "profile": [
            "http://hl7.eu/fhir/laboratory/StructureDefinition/Observation-resultslab-eu-lab"
          ]
        },
        "performer": [
          {
            "display": "The Central European Lab"
          }
        ],
        "category": [
          {
            "coding": [
              {
                "system": "http://terminology.hl7.org/CodeSystem/observation-category",
                "code": "laboratory"
              }
            ]
          }
        ],
        "code": {
          "coding": [
            {
              "code": "785-6",
              "system": "http://loinc.org",
              "display": "MCH [Entitic mass] by Automated count"
            }
          ],
          "text": "MCH [Entitic mass] by Automated count"
        },
        "valueQuantity": {
          "system": "http://unitsofmeasure.org",
          "value": 32.9,
          "unit": "pg",
          "code": "pg"
        },
        "referenceRange": [
          {
            "low": {
              "value": 27,
              "code": "pg",
              "system": "http://unitsofmeasure.org"
            }
          },
          {
            "high": {
              "value": 33,
              "code": "pg",
              "system": "http://unitsofmeasure.org"
            }
          }
        ],
        "text": {
          "status": "generated",
          "div": "<div xmlns=\"http://www.w3.org/1999/xhtml\"><table class=\"hl7__eu__lab__report\"><tr><th>Test</th><th>18-Feb-2021</th><th>Reference&#xA0;Range</th><th>Unit</th></tr><tr><td>MCH [Entitic mass] by Automated count</td><td>32.9</td><td>27 - 33</td><td></td><td>pg</td></tr></table></div>"
        },
        "status": "final",
        "subject": {
          "reference": "urn:uuid:e26b10e0-bbe9-4040-b238-24004bbc621d",
          "display": "Vincenza Porzio"
        },
        "effectiveDateTime": "2021-02-18T18:51:27Z",
        "specimen": {
          "reference": "urn:uuid:085bf444-c781-441e-a9bb-8f3437bed5bf"
        }
      }
    },
    {
      "fullUrl": "urn:uuid:86c01dfd-3d04-4f34-9ba7-24eddea1f6e6",
      "resource": {
        "resourceType": "Observation",
        "id": "86c01dfd-3d04-4f34-9ba7-24eddea1f6e6",
        "meta": {
          "profile": [
            "http://hl7.eu/fhir/laboratory/StructureDefinition/Observation-resultslab-eu-lab"
          ]
        },
        "performer": [
          {
            "display": "The Central European Lab"
          }
        ],
        "category": [
          {
            "coding": [
              {
                "system": "http://terminology.hl7.org/CodeSystem/observation-category",
                "code": "laboratory"
              }
            ]
          }
        ],
        "code": {
          "coding": [
            {
              "code": "786-4",
              "system": "http://loinc.org",
              "display": "MCHC [Mass/volume] by Automated count"
            }
          ],
          "text": "MCHC [Mass/volume] by Automated count"
        },
        "valueQuantity": {
          "system": "http://unitsofmeasure.org",
          "value": 34.3,
          "unit": "g/dL",
          "code": "g/dL"
        },
        "referenceRange": [
          {
            "low": {
              "value": 31,
              "code": "g/dL",
              "system": "http://unitsofmeasure.org"
            }
          },
          {
            "high": {
              "value": 35,
              "code": "g/dL",
              "system": "http://unitsofmeasure.org"
            }
          }
        ],
        "text": {
          "status": "generated",
          "div": "<div xmlns=\"http://www.w3.org/1999/xhtml\"><table class=\"hl7__eu__lab__report\"><tr><th>Test</th><th>18-Feb-2021</th><th>Reference&#xA0;Range</th><th>Unit</th></tr><tr><td>MCHC [Mass/volume] by Automated count</td><td>34.3</td><td>31 - 35</td><td></td><td>g/dL</td></tr></table></div>"
        },
        "status": "final",
        "subject": {
          "reference": "urn:uuid:e26b10e0-bbe9-4040-b238-24004bbc621d",
          "display": "Vincenza Porzio"
        },
        "effectiveDateTime": "2021-02-18T18:51:27Z",
        "specimen": {
          "reference": "urn:uuid:085bf444-c781-441e-a9bb-8f3437bed5bf"
        }
      }
    },
    {
      "fullUrl": "urn:uuid:32b21554-7dbc-41d1-971f-c9143d51ee50",
      "resource": {
        "resourceType": "Observation",
        "id": "32b21554-7dbc-41d1-971f-c9143d51ee50",
        "meta": {
          "profile": [
            "http://hl7.eu/fhir/laboratory/StructureDefinition/Observation-resultslab-eu-lab"
          ]
        },
        "performer": [
          {
            "display": "The Central European Lab"
          }
        ],
        "category": [
          {
            "coding": [
              {
                "system": "http://terminology.hl7.org/CodeSystem/observation-category",
                "code": "laboratory"
              }
            ]
          }
        ],
        "code": {
          "coding": [
            {
              "code": "21000-5",
              "system": "http://loinc.org",
              "display": "Erythrocyte distribution width [Entitic volume] by Automated count"
            }
          ],
          "text": "Erythrocyte distribution width [Entitic volume] by Automated count"
        },
        "valueQuantity": {
          "system": "http://unitsofmeasure.org",
          "value": 42.3,
          "unit": "fL",
          "code": "fL"
        },
        "referenceRange": [
          {
            "low": {
              "value": 36,
              "code": "fL",
              "system": "http://unitsofmeasure.org"
            }
          },
          {
            "high": {
              "value": 55,
              "code": "fL",
              "system": "http://unitsofmeasure.org"
            }
          }
        ],
        "text": {
          "status": "generated",
          "div": "<div xmlns=\"http://www.w3.org/1999/xhtml\"><table class=\"hl7__eu__lab__report\"><tr><th>Test</th><th>18-Feb-2021</th><th>Reference&#xA0;Range</th><th>Unit</th></tr><tr><td>Erythrocyte distribution width [Entitic volume] by Automated count</td><td>42.3</td><td>36 - 55</td><td></td><td>fL</td></tr></table></div>"
        },
        "status": "final",
        "subject": {
          "reference": "urn:uuid:e26b10e0-bbe9-4040-b238-24004bbc621d",
          "display": "Vincenza Porzio"
        },
        "effectiveDateTime": "2021-02-18T18:51:27Z",
        "specimen": {
          "reference": "urn:uuid:085bf444-c781-441e-a9bb-8f3437bed5bf"
        }
      }
    },
    {
      "fullUrl": "urn:uuid:eb7ab348-f67d-4231-9e44-7cb2bcc82b34",
      "resource": {
        "resourceType": "Observation",
        "id": "eb7ab348-f67d-4231-9e44-7cb2bcc82b34",
        "meta": {
          "profile": [
            "http://hl7.eu/fhir/laboratory/StructureDefinition/Observation-resultslab-eu-lab"
          ]
        },
        "performer": [
          {
            "display": "The Central European Lab"
          }
        ],
        "category": [
          {
            "coding": [
              {
                "system": "http://terminology.hl7.org/CodeSystem/observation-category",
                "code": "laboratory"
              }
            ]
          }
        ],
        "code": {
          "coding": [
            {
              "code": "777-3",
              "system": "http://loinc.org",
              "display": "Platelets [#/volume] in Blood by Automated count"
            }
          ],
          "text": "Platelets [#/volume] in Blood by Automated count"
        },
        "valueQuantity": {
          "system": "http://unitsofmeasure.org",
          "value": 308.6,
          "unit": "10*3/uL",
          "code": "10*3/uL"
        },
        "referenceRange": [
          {
            "low": {
              "value": 150,
              "code": "10*3/uL",
              "system": "http://unitsofmeasure.org"
            }
          },
          {
            "high": {
              "value": 450,
              "code": "10*3/uL",
              "system": "http://unitsofmeasure.org"
            }
          }
        ],
        "text": {
          "status": "generated",
          "div": "<div xmlns=\"http://www.w3.org/1999/xhtml\"><table class=\"hl7__eu__lab__report\"><tr><th>Test</th><th>18-Feb-2021</th><th>Reference&#xA0;Range</th><th>Unit</th></tr><tr><td>Platelets [#/volume] in Blood by Automated count</td><td>308.6</td><td>150 - 450</td><td></td><td>10*3/uL</td></tr></table></div>"
        },
        "status": "final",
        "subject": {
          "reference": "urn:uuid:e26b10e0-bbe9-4040-b238-24004bbc621d",
          "display": "Vincenza Porzio"
        },
        "effectiveDateTime": "2021-02-18T18:51:27Z",
        "specimen": {
          "reference": "urn:uuid:085bf444-c781-441e-a9bb-8f3437bed5bf"
        }
      }
    },
    {
      "fullUrl": "urn:uuid:7e3509f0-6624-4519-8184-4a2df7c94cec",
      "resource": {
        "resourceType": "Observation",
        "id": "7e3509f0-6624-4519-8184-4a2df7c94cec",
        "meta": {
          "profile": [
            "http://hl7.eu/fhir/laboratory/StructureDefinition/Observation-resultslab-eu-lab"
          ]
        },
        "performer": [
          {
            "display": "The Central European Lab"
          }
        ],
        "category": [
          {
            "coding": [
              {
                "system": "http://terminology.hl7.org/CodeSystem/observation-category",
                "code": "laboratory"
              }
            ]
          }
        ],
        "code": {
          "coding": [
            {
              "code": "32207-3",
              "system": "http://loinc.org",
              "display": "Platelet distribution width [Entitic volume] in Blood by Automated count"
            }
          ],
          "text": "Platelet distribution width [Entitic volume] in Blood by Automated count"
        },
        "valueQuantity": {
          "system": "http://unitsofmeasure.org",
          "value": 186.5,
          "unit": "fL",
          "code": "fL"
        },
        "referenceRange": [
          {
            "low": {
              "value": 11.6,
              "code": "fL",
              "system": "http://unitsofmeasure.org"
            }
          },
          {
            "high": {
              "value": 17.4,
              "code": "fL",
              "system": "http://unitsofmeasure.org"
            }
          }
        ],
        "interpretation": [
          {
            "coding": [
              {
                "code": "H",
                "system": "http://terminology.hl7.org/CodeSystem/v3-ObservationInterpretation",
                "display": "High"
              }
            ]
          }
        ],
        "text": {
          "status": "generated",
          "div": "<div xmlns=\"http://www.w3.org/1999/xhtml\"><table class=\"hl7__eu__lab__report\"><tr><th>Test</th><th>18-Feb-2021</th><th>Reference&#xA0;Range</th><th>Unit</th></tr><tr><td>Platelet distribution width [Entitic volume] in Blood by Automated count</td><td>186.5</td><td>11.6 - 17.4</td><td>H</td><td>fL</td></tr></table></div>"
        },
        "status": "final",
        "subject": {
          "reference": "urn:uuid:e26b10e0-bbe9-4040-b238-24004bbc621d",
          "display": "Vincenza Porzio"
        },
        "effectiveDateTime": "2021-02-18T18:51:27Z",
        "specimen": {
          "reference": "urn:uuid:085bf444-c781-441e-a9bb-8f3437bed5bf"
        }
      }
    },
    {
      "fullUrl": "urn:uuid:8c81dfc9-d6af-4ddd-89ba-aa20e7ef2ed9",
      "resource": {
        "resourceType": "Observation",
        "id": "8c81dfc9-d6af-4ddd-89ba-aa20e7ef2ed9",
        "meta": {
          "profile": [
            "http://hl7.eu/fhir/laboratory/StructureDefinition/Observation-resultslab-eu-lab"
          ]
        },
        "performer": [
          {
            "display": "The Central European Lab"
          }
        ],
        "category": [
          {
            "coding": [
              {
                "system": "http://terminology.hl7.org/CodeSystem/observation-category",
                "code": "laboratory"
              }
            ]
          }
        ],
        "code": {
          "coding": [
            {
              "code": "32623-1",
              "system": "http://loinc.org",
              "display": "Platelet mean volume [Entitic volume] in Blood by Automated count"
            }
          ],
          "text": "Platelet mean volume [Entitic volume] in Blood by Automated count"
        },
        "valueQuantity": {
          "system": "http://unitsofmeasure.org",
          "value": 10.3,
          "unit": "fL",
          "code": "fL"
        },
        "referenceRange": [
          {
            "low": {
              "value": 7.2,
              "code": "fL",
              "system": "http://unitsofmeasure.org"
            }
          },
          {
            "high": {
              "value": 13.5,
              "code": "fL",
              "system": "http://unitsofmeasure.org"
            }
          }
        ],
        "text": {
          "status": "generated",
          "div": "<div xmlns=\"http://www.w3.org/1999/xhtml\"><table class=\"hl7__eu__lab__report\"><tr><th>Test</th><th>18-Feb-2021</th><th>Reference&#xA0;Range</th><th>Unit</th></tr><tr><td>Platelet mean volume [Entitic volume] in Blood by Automated count</td><td>10.3</td><td>7.2 - 13.5</td><td></td><td>fL</td></tr></table></div>"
        },
        "status": "final",
        "subject": {
          "reference": "urn:uuid:e26b10e0-bbe9-4040-b238-24004bbc621d",
          "display": "Vincenza Porzio"
        },
        "effectiveDateTime": "2021-02-18T18:51:27Z",
        "specimen": {
          "reference": "urn:uuid:085bf444-c781-441e-a9bb-8f3437bed5bf"
        }
      }
    },
    {
      "fullUrl": "urn:uuid:57034013-7081-45f3-8569-5da05ac0c8f1",
      "resource": {
        "resourceType": "Device",
        "id": "57034013-7081-45f3-8569-5da05ac0c8f1",
        "deviceName": [
          {
            "name": "SYNDERAI Synthetic Generator",
            "type": "manufacturer-name"
          }
        ],
        "version": [
          {
            "value": "5.0"
          }
        ],
        "text": {
          "status": "generated",
          "div": "<div xmlns=\"http://www.w3.org/1999/xhtml\">SYNDERAI Synthetic Generator v5.0</div>"
        },
        "status": "active\"",
        "distinctIdentifier": "synderai-generator-50",
        "manufacturer": "SYNDERAI Project"
      }
    },
    {
      "fullUrl": "urn:uuid:644fecf5-e8ab-4637-8a9c-04fb3e02e46f",
      "resource": {
        "resourceType": "Provenance",
        "id": "644fecf5-e8ab-4637-8a9c-04fb3e02e46f",
        "target": [
          {
            "reference": "Patient/e26b10e0-bbe9-4040-b238-24004bbc621d"
          },
          {
            "reference": "Bundle/bacac675-e864-4d5e-bb1f-2d05abf6b3bd"
          },
          {
            "reference": "Composition/1ae454f0-5f56-4fa6-97ed-dd818aa495ed"
          },
          {
            "reference": "PractitionerRole/84964818-b2b9-4f2b-a6bc-89d171a698f3"
          },
          {
            "reference": "Practitioner/581ac752-9a3f-4e63-850f-b38353bf52fd"
          },
          {
            "reference": "PractitionerRole/19649f77-cb5a-4713-a32f-22c63081d356"
          },
          {
            "reference": "Organization/bfba78ad-342f-4507-bb16-04634124cdd0"
          }
        ],
        "activity": {
          "text": "Synthetic Example Data Generation"
        },
        "policy": [
          "https://synderai.net/synderai-synthetic-data-policy"
        ],
        "agent": [
          {
            "type": {
              "text": "author"
            },
            "who": {
              "reference": "Device/57034013-7081-45f3-8569-5da05ac0c8f1"
            }
          }
        ],
        "reason": [
          {
            "text": "Interoperability Testing and Training (non-clinical use)"
          }
        ],
        "text": {
          "status": "generated",
          "div": "<div xmlns=\"http://www.w3.org/1999/xhtml\">Provenance for SYNDERAI Synthetic Example Data Resource</div>"
        },
        "recorded": "2021-02-18T19:51:27Z"
      }
    },
    {
      "fullUrl": "urn:uuid:84964818-b2b9-4f2b-a6bc-89d171a698f3",
      "resource": {
        "resourceType": "PractitionerRole",
        "id": "84964818-b2b9-4f2b-a6bc-89d171a698f3",
        "meta": {
          "profile": [
            "http://hl7.eu/fhir/base/StructureDefinition/practitionerRole-eu"
          ]
        },
        "text": {
          "status": "generated",
          "div": "<div xmlns=\"http://www.w3.org/1999/xhtml\">Laboratory Role Id: 84964818-b2b9-4f2b-a6bc-89d171a698f3</div>"
        },
        "practitioner": {
          "reference": "urn:uuid:581ac752-9a3f-4e63-850f-b38353bf52fd"
        }
      }
    },
    {
      "fullUrl": "urn:uuid:581ac752-9a3f-4e63-850f-b38353bf52fd",
      "resource": {
        "resourceType": "Practitioner",
        "id": "581ac752-9a3f-4e63-850f-b38353bf52fd",
        "meta": {
          "profile": [
            "http://hl7.eu/fhir/base/StructureDefinition/practitioner-eu"
          ]
        },
        "identifier": [
          {
            "assigner": {
              "display": "HL7 Europe"
            },
            "system": "urn:oid:2.16.840.1.113883.2.51.999",
            "value": "1de12180-65a1-49e1-bb20-5000ce3debe6"
          }
        ],
        "name": [
          {
            "prefix": [
              "dr"
            ],
            "given": [
              "Ex"
            ],
            "family": "Ample"
          }
        ],
        "address": [
          {
            "line": [
              "Laboratoire Central Européenne",
              "Boulevard du Jardin Botanique 32"
            ],
            "postalCode": "1000",
            "city": "Brussels",
            "country": "Belgium"
          }
        ],
        "text": {
          "status": "generated",
          "div": "<div xmlns=\"http://www.w3.org/1999/xhtml\">Laboratory: Laboratoire Central Européenne, 1000 Brussels, Belgium</div>"
        }
      }
    }
  ],
  "type": "document",
  "timestamp": "2021-02-18T19:51:27Z"
}
