{
  "resourceType": "Bundle",
  "id": "6fab5efe-f0e5-4ceb-a0fe-e955d8a713d5",
  "meta": {
    "profile": [
      "http://hl7.eu/fhir/laboratory/StructureDefinition/Bundle-eu-lab"
    ]
  },
  "identifier": {
    "assigner": {
      "display": "HL7 Europe"
    },
    "system": "urn:oid:2.16.840.1.113883.2.51.999",
    "value": "a911eb90-9bf2-4b03-a764-2b732893ea05"
  },
  "entry": [
    {
      "fullUrl": "urn:uuid:8d212c6e-79a1-4fa6-90d3-deff966eb84d",
      "resource": {
        "resourceType": "Composition",
        "id": "8d212c6e-79a1-4fa6-90d3-deff966eb84d",
        "meta": {
          "profile": [
            "http://hl7.eu/fhir/laboratory/StructureDefinition/Composition-eu-lab"
          ]
        },
        "identifier": {
          "assigner": {
            "display": "HL7 Europe"
          },
          "system": "urn:oid:2.16.840.1.113883.2.51.999",
          "value": "d3eaa3da-65b2-4b88-8deb-a2bbe8b53e51"
        },
        "author": [
          {
            "reference": "urn:uuid:7461c72c-aec4-4fdb-be29-8128413984b5"
          }
        ],
        "category": [
          {
            "coding": [
              {
                "code": "26436-6",
                "system": "http://loinc.org",
                "display": "Laboratory studies (set)"
              }
            ]
          }
        ],
        "type": {
          "coding": [
            {
              "code": "11502-2",
              "system": "http://loinc.org",
              "display": "Laboratory report"
            }
          ],
          "text": "Laboratory Report"
        },
        "section": [
          {
            "code": {
              "coding": [
                {
                  "code": "26436-6",
                  "system": "http://loinc.org",
                  "display": "Laboratory studies (set)"
                }
              ],
              "text": "Laboratory studies"
            },
            "section": [
              {
                "code": {
                  "coding": [
                    {
                      "code": "$18719-5",
                      "system": "http://loinc.org",
                      "display": "Chemistry studies (set)"
                    }
                  ],
                  "text": "Chemistry"
                },
                "entry": [
                  {
                    "reference": "urn:uuid:ef43cb24-3188-4ab2-89c5-f51c171ca740"
                  },
                  {
                    "reference": "urn:uuid:71a68403-e506-4346-ab18-c3cf568e494f"
                  },
                  {
                    "reference": "urn:uuid:c7130b14-e2b3-4161-9de7-8e1ec2fd3f81"
                  },
                  {
                    "reference": "urn:uuid:4f5f421d-b36c-4d3d-82af-47edb7a45fb7"
                  },
                  {
                    "reference": "urn:uuid:2c297b67-685b-4492-a752-bdf5aa0fc452"
                  },
                  {
                    "reference": "urn:uuid:43d2afd5-88f3-46c1-ac23-38ac22a1c869"
                  },
                  {
                    "reference": "urn:uuid:6e9abba1-220b-4758-97d4-4d0fb94aa42f"
                  },
                  {
                    "reference": "urn:uuid:a894e5e1-fc01-4271-927a-e9d9b3b4e153"
                  },
                  {
                    "reference": "urn:uuid:08f83fb7-9708-4534-91f5-462a115cd649"
                  },
                  {
                    "reference": "urn:uuid:c5745bc0-d989-4028-92fd-6532dc17b353"
                  },
                  {
                    "reference": "urn:uuid:a26f1f21-3a9e-4b34-9d19-fce1b57b5144"
                  },
                  {
                    "reference": "urn:uuid:868e45d1-84f0-40b1-8009-dd143885466c"
                  },
                  {
                    "reference": "urn:uuid:97da575f-53f1-4514-93d0-c3b768ca7d87"
                  },
                  {
                    "reference": "urn:uuid:d2c5cd72-5ffb-4ec0-abdc-89eea170cfe4"
                  },
                  {
                    "reference": "urn:uuid:38f1f1f1-c740-4b50-8869-28e389fbe897"
                  },
                  {
                    "reference": "urn:uuid:25f53ad9-18c7-49e9-ac3c-36ad391837ec"
                  },
                  {
                    "reference": "urn:uuid:81d42bbf-7b0e-486a-8764-4ea1471b7a81"
                  },
                  {
                    "reference": "urn:uuid:633cb362-4ed1-485f-b231-c48233ba4d6b"
                  },
                  {
                    "reference": "urn:uuid:8cf5355b-95b6-4be0-b7b0-1ab6948438c6"
                  }
                ],
                "text": {
                  "status": "generated",
                  "div": "<div xmlns=\"http://www.w3.org/1999/xhtml\"><h3>Chemistry</h3><table class=\"hl7__eu__lab__report\"><thead><tr><th>Test</th><th>05-JUN-2021</th><th>Reference&#xA0;Range</th><th>Unit</th></tr></thead><tbody><tr><td>Glucose [Mass/volume] in Blood</td><td><strong>69.0 L</strong></td><td>70 - 140</td><td>mg/dL</td></tr><tr><td>Urea nitrogen [Mass/volume] in Blood</td><td>18.9</td><td>7 - 20</td><td>mg/dL</td></tr><tr><td>Creatinine [Mass/volume] in Blood</td><td><strong>3.1 H</strong></td><td>0.6 - 1.3</td><td>mg/dL</td></tr><tr><td>Calcium [Mass/volume] in Blood</td><td>9.0</td><td>8.5 - 10.5</td><td>mg/dL</td></tr><tr><td>Sodium [Moles/volume] in Blood</td><td>142.5</td><td>135 - 145</td><td>mmol/L</td></tr><tr><td>Potassium [Moles/volume] in Blood</td><td>3.9</td><td>3.6 - 5.1</td><td>mmol/L</td></tr><tr><td>Chloride [Moles/volume] in Blood</td><td>101.8</td><td>98 - 107</td><td>mmol/L</td></tr><tr><td>Carbon dioxide, total [Moles/volume] in Blood</td><td>24.8</td><td>22 - 32</td><td>mmol/L</td></tr><tr><td>Protein [Mass/volume] in Serum or Plasma</td><td>7.9</td><td>6 - 8.3</td><td>g/dL</td></tr><tr><td>Albumin [Mass/volume] in Serum or Plasma</td><td>3.7</td><td>3.5 - 5</td><td>g/dL</td></tr><tr><td>Globulin [Mass/volume] in Serum by calculation</td><td>2.3</td><td>2 - 3.9</td><td>g/L</td></tr><tr><td>Bilirubin.total [Mass/volume] in Serum or Plasma</td><td><strong>0.2 L</strong></td><td>0.3 - 1.2</td><td>mg/dL</td></tr><tr><td>Alkaline phosphatase [Enzymatic activity/volume] in Serum or Plasma</td><td>68.5</td><td>32 - 150</td><td>U/L</td></tr><tr><td>Alanine aminotransferase [Enzymatic activity/volume] in Serum or Plasma</td><td>21.1</td><td>13 - 32</td><td>U/L</td></tr><tr><td>Aspartate aminotransferase [Enzymatic activity/volume] in Serum or Plasma</td><td>23.9</td><td>10 - 40</td><td>U/L</td></tr><tr><td>Cholesterol [Mass/volume] in Serum or Plasma</td><td>156.9</td><td>130 - 200</td><td>mg/dL</td></tr><tr><td>Triglyceride [Mass/volume] in Serum or Plasma</td><td>119.3</td><td>0 - 199</td><td>mg/dL</td></tr><tr><td>Cholesterol in LDL [Mass/volume] in Serum or Plasma by Direct assay</td><td><strong>130.9 H</strong></td><td>0 - 130</td><td>mg/dL</td></tr><tr><td>Cholesterol in HDL [Mass/volume] in Serum or Plasma</td><td>66.6</td><td>50 - 100</td><td>mg/dL</td></tr></tbody></table></div>"
                },
                "title": "Chemistry"
              }
            ],
            "title": "Laboratory Report"
          },
          {
            "text": {
              "status": "generated",
              "div": "<div xmlns=\"http://www.w3.org/1999/xhtml\"><h3>Annotation</h3><table class=\"hl7__eu__lab__report\"><tr><th>Conclusion and Recommendations based on this report and previous findings known to us</th></tr><tr><td>The patient shows mild hypoglycemia and significantly elevated creatinine, suggesting impaired renal function. LDL cholesterol is slightly above the recommended range. Other parameters, including liver enzymes, electrolytes, and proteins, are within normal limits. Recommend clinical correlation for renal impairment and monitoring of glucose and lipid profile.</td></tr></table></div>"
            },
            "code": {
              "coding": [
                {
                  "system": "http://loinc.org",
                  "code": "48767-8",
                  "display": "Annotation comment"
                }
              ]
            },
            "title": "Annotation comment"
          }
        ],
        "status": "final",
        "subject": {
          "reference": "urn:uuid:19727d83-ed1c-4170-a278-eb51c5306361",
          "display": "Aniela Prażmo"
        },
        "date": "2021-06-05T15:25:25Z",
        "title": "Laboratory Report",
        "confidentiality": "N"
      }
    },
    {
      "fullUrl": "urn:uuid:58e0dad6-0438-4d23-8103-67ed8448a69d",
      "resource": {
        "resourceType": "DiagnosticReport",
        "id": "58e0dad6-0438-4d23-8103-67ed8448a69d",
        "meta": {
          "profile": [
            "http://hl7.eu/fhir/laboratory/StructureDefinition/DiagnosticReport-eu-lab"
          ]
        },
        "identifier": [
          {
            "assigner": {
              "display": "HL7 Europe"
            },
            "system": "urn:oid:2.16.840.1.113883.2.51.999",
            "value": "62b27a18-7d3f-4cfa-81c6-787706a47a71"
          }
        ],
        "extension": [
          {
            "url": "http://hl7.org/fhir/5.0/StructureDefinition/extension-DiagnosticReport.composition",
            "valueReference": {
              "reference": "urn:uuid:d3eaa3da-65b2-4b88-8deb-a2bbe8b53e51"
            }
          }
        ],
        "category": [
          {
            "coding": [
              {
                "code": "26436-6",
                "system": "http://loinc.org",
                "display": "Laboratory studies (set)"
              }
            ]
          }
        ],
        "specimen": [
          {
            "reference": "urn:uuid:25e07348-f118-4f11-8fef-8083863a288e"
          },
          {
            "reference": "urn:uuid:65f63120-cc0d-4e13-8526-bb5212d5f92b"
          },
          {
            "reference": "urn:uuid:583b0ca9-0053-4c7f-b9fa-8fcdc1b217dc"
          }
        ],
        "result": [
          {
            "reference": "urn:uuid:ef43cb24-3188-4ab2-89c5-f51c171ca740"
          },
          {
            "reference": "urn:uuid:71a68403-e506-4346-ab18-c3cf568e494f"
          },
          {
            "reference": "urn:uuid:c7130b14-e2b3-4161-9de7-8e1ec2fd3f81"
          },
          {
            "reference": "urn:uuid:4f5f421d-b36c-4d3d-82af-47edb7a45fb7"
          },
          {
            "reference": "urn:uuid:2c297b67-685b-4492-a752-bdf5aa0fc452"
          },
          {
            "reference": "urn:uuid:43d2afd5-88f3-46c1-ac23-38ac22a1c869"
          },
          {
            "reference": "urn:uuid:6e9abba1-220b-4758-97d4-4d0fb94aa42f"
          },
          {
            "reference": "urn:uuid:a894e5e1-fc01-4271-927a-e9d9b3b4e153"
          },
          {
            "reference": "urn:uuid:08f83fb7-9708-4534-91f5-462a115cd649"
          },
          {
            "reference": "urn:uuid:c5745bc0-d989-4028-92fd-6532dc17b353"
          },
          {
            "reference": "urn:uuid:a26f1f21-3a9e-4b34-9d19-fce1b57b5144"
          },
          {
            "reference": "urn:uuid:868e45d1-84f0-40b1-8009-dd143885466c"
          },
          {
            "reference": "urn:uuid:97da575f-53f1-4514-93d0-c3b768ca7d87"
          },
          {
            "reference": "urn:uuid:d2c5cd72-5ffb-4ec0-abdc-89eea170cfe4"
          },
          {
            "reference": "urn:uuid:38f1f1f1-c740-4b50-8869-28e389fbe897"
          },
          {
            "reference": "urn:uuid:25f53ad9-18c7-49e9-ac3c-36ad391837ec"
          },
          {
            "reference": "urn:uuid:81d42bbf-7b0e-486a-8764-4ea1471b7a81"
          },
          {
            "reference": "urn:uuid:633cb362-4ed1-485f-b231-c48233ba4d6b"
          },
          {
            "reference": "urn:uuid:8cf5355b-95b6-4be0-b7b0-1ab6948438c6"
          }
        ],
        "status": "registered",
        "code": {
          "coding": [
            {
              "code": "11502-2",
              "system": "http://loinc.org",
              "display": "Laboratory report"
            }
          ]
        },
        "subject": {
          "reference": "urn:uuid:19727d83-ed1c-4170-a278-eb51c5306361",
          "display": "Aniela Prażmo"
        }
      }
    },
    {
      "fullUrl": "urn:uuid:19727d83-ed1c-4170-a278-eb51c5306361",
      "resource": {
        "resourceType": "Patient",
        "id": "19727d83-ed1c-4170-a278-eb51c5306361",
        "meta": {
          "security": [
            {
              "system": "http://terminology.hl7.org/CodeSystem/v3-ActReason",
              "code": "HTEST"
            },
            {
              "system": "http://terminology.hl7.org/CodeSystem/v3-ActReason",
              "code": "TRAIN"
            }
          ],
          "tag": [
            {
              "system": "https://synderai.net/fhir/CodeSystem/tags",
              "code": "synthetic",
              "display": "SYNDERAI Synthetic data"
            }
          ],
          "profile": [
            "http://hl7.eu/fhir/base/StructureDefinition/patient-eu-core"
          ]
        },
        "identifier": [
          {
            "type": {
              "coding": [
                {
                  "code": "PT",
                  "system": "http://terminology.hl7.org/CodeSystem/v2-0203"
                }
              ]
            },
            "system": "http://ec.europa.eu/identifier/eci",
            "value": "9657-869171-7"
          },
          {
            "type": {
              "coding": [
                {
                  "code": "MR",
                  "system": "http://terminology.hl7.org/CodeSystem/v2-0203"
                }
              ]
            },
            "system": "http://local.setting.eu/identifier",
            "value": "ab00158c-e2d0-01e4-6cf5-730949937551"
          }
        ],
        "name": [
          {
            "family": "Prażmo"
          },
          {
            "given": [
              "Aniela"
            ]
          },
          {
            "text": "Aniela Prażmo"
          }
        ],
        "address": [
          {
            "line": [
              "pl. Kołłątaja 62/43"
            ],
            "use": "home",
            "type": "physical",
            "postalCode": "97-200",
            "city": "Tomaszów Mazowiecki",
            "country": "Poland"
          }
        ],
        "telecom": [
          {
            "system": "phone",
            "value": "+48 782 809 233"
          }
        ],
        "extension": [
          {
            "url": "http://hl7.org/fhir/StructureDefinition/patient-nationality",
            "valueCodeableConcept": {
              "coding": [
                {
                  "code": "PL",
                  "system": "http://hl7.org/fhir/ValueSet/country"
                }
              ]
            }
          }
        ],
        "text": {
          "status": "generated",
          "div": "<div xmlns=\"http://www.w3.org/1999/xhtml\"><table class=\"hl7__ips\"><tr><td>Aniela Prażmo</td><td>female</td><td>08-Feb-1941</td></tr></table></div>"
        },
        "gender": "female",
        "birthDate": "1941-02-08"
      }
    },
    {
      "fullUrl": "urn:uuid:5d2ba155-e793-4ebb-a8b1-477d0f2c4531",
      "resource": {
        "resourceType": "ServiceRequest",
        "id": "5d2ba155-e793-4ebb-a8b1-477d0f2c4531",
        "meta": {
          "profile": [
            "http://hl7.eu/fhir/laboratory/StructureDefinition/ServiceRequest-eu-lab"
          ]
        },
        "identifier": [
          {
            "system": "http://example.org",
            "value": "b817116d-a4af-4e3a-a214-41adee6754b2"
          }
        ],
        "specimen": [
          {
            "reference": "urn:uuid:25e07348-f118-4f11-8fef-8083863a288e"
          },
          {
            "reference": "urn:uuid:65f63120-cc0d-4e13-8526-bb5212d5f92b"
          },
          {
            "reference": "urn:uuid:583b0ca9-0053-4c7f-b9fa-8fcdc1b217dc"
          }
        ],
        "reasonCode": [
          {
            "coding": [
              {
                "code": "64859006",
                "system": "http://snomed.info/sct",
                "display": "Osteoporosis"
              }
            ]
          },
          {
            "coding": [
              {
                "code": "55822004",
                "system": "http://snomed.info/sct",
                "display": "Hyperlipidemia"
              }
            ]
          },
          {
            "coding": [
              {
                "code": "414545008",
                "system": "http://snomed.info/sct",
                "display": "Ischemic heart disease"
              }
            ]
          },
          {
            "coding": [
              {
                "code": "59621000",
                "system": "http://snomed.info/sct",
                "display": "Essential hypertension"
              }
            ]
          },
          {
            "coding": [
              {
                "code": "40055000",
                "system": "http://snomed.info/sct",
                "display": "Chronic sinusitis"
              }
            ]
          }
        ],
        "status": "active",
        "intent": "order",
        "code": {
          "coding": [
            {
              "code": "108252007",
              "system": "http://snomed.info/sct",
              "display": "Laboratory procedure"
            }
          ]
        },
        "subject": {
          "reference": "urn:uuid:19727d83-ed1c-4170-a278-eb51c5306361",
          "display": "Aniela Prażmo"
        },
        "requester": {
          "reference": "urn:uuid:23f0ac70-8508-4dbf-957f-c3bf5958d80c"
        }
      }
    },
    {
      "fullUrl": "urn:uuid:23f0ac70-8508-4dbf-957f-c3bf5958d80c",
      "resource": {
        "resourceType": "PractitionerRole",
        "id": "23f0ac70-8508-4dbf-957f-c3bf5958d80c",
        "meta": {
          "profile": [
            "http://hl7.eu/fhir/base/StructureDefinition/practitionerRole-eu"
          ]
        },
        "text": {
          "status": "generated",
          "div": "<div xmlns=\"http://www.w3.org/1999/xhtml\">Provider Role Id: 23f0ac70-8508-4dbf-957f-c3bf5958d80c</div>"
        },
        "organization": {
          "reference": "urn:uuid:5761b424-954c-46a5-b3dc-d05ae4170114"
        }
      }
    },
    {
      "fullUrl": "urn:uuid:5761b424-954c-46a5-b3dc-d05ae4170114",
      "resource": {
        "resourceType": "Organization",
        "id": "5761b424-954c-46a5-b3dc-d05ae4170114",
        "meta": {
          "profile": [
            "http://hl7.eu/fhir/base/StructureDefinition/organization-eu"
          ]
        },
        "identifier": [
          {
            "assigner": {
              "display": "HL7 Europe"
            },
            "system": "urn:oid:2.16.840.1.113883.2.51.999",
            "value": "b0a6a703-13f8-4a3e-b952-6602b50ffa3c"
          }
        ],
        "address": [
          {
            "city": "Tomaszów Mazowiecki",
            "postalCode": "97-200",
            "country": "Poland"
          }
        ],
        "text": {
          "status": "generated",
          "div": "<div xmlns=\"http://www.w3.org/1999/xhtml\">Provider Organization: Poradnia rehabilitacyjna</div>"
        },
        "name": "Poradnia rehabilitacyjna"
      }
    },
    {
      "fullUrl": "urn:uuid:25e07348-f118-4f11-8fef-8083863a288e",
      "resource": {
        "resourceType": "Specimen",
        "id": "25e07348-f118-4f11-8fef-8083863a288e",
        "meta": {
          "profile": [
            "http://hl7.eu/fhir/laboratory/StructureDefinition/Specimen-eu-lab"
          ]
        },
        "collection": {
          "collectedDateTime": "2021-06-05"
        },
        "text": {
          "status": "generated",
          "div": "<div xmlns=\"http://www.w3.org/1999/xhtml\"><table class=\"hl7__eu__lab__report\"><tr><th>Specimen</th><th>Collection Date</th></tr><tr><td>Whole blood specimen (specimen)</td><td><span class=\"nb\">05-Jun-2021</span></td></tr></table></div>"
        },
        "type": {
          "coding": [
            {
              "code": "258580003",
              "system": "http://snomed.info/sct",
              "display": "Whole blood specimen (specimen)"
            }
          ]
        }
      }
    },
    {
      "fullUrl": "urn:uuid:65f63120-cc0d-4e13-8526-bb5212d5f92b",
      "resource": {
        "resourceType": "Specimen",
        "id": "65f63120-cc0d-4e13-8526-bb5212d5f92b",
        "meta": {
          "profile": [
            "http://hl7.eu/fhir/laboratory/StructureDefinition/Specimen-eu-lab"
          ]
        },
        "collection": {
          "collectedDateTime": "2021-06-05"
        },
        "text": {
          "status": "generated",
          "div": "<div xmlns=\"http://www.w3.org/1999/xhtml\"><table class=\"hl7__eu__lab__report\"><tr><th>Specimen</th><th>Collection Date</th></tr><tr><td>Acellular blood (serum or plasma) specimen</td><td><span class=\"nb\">05-Jun-2021</span></td></tr></table></div>"
        },
        "type": {
          "coding": [
            {
              "code": "122592007",
              "system": "http://snomed.info/sct",
              "display": "Acellular blood (serum or plasma) specimen"
            }
          ]
        }
      }
    },
    {
      "fullUrl": "urn:uuid:583b0ca9-0053-4c7f-b9fa-8fcdc1b217dc",
      "resource": {
        "resourceType": "Specimen",
        "id": "583b0ca9-0053-4c7f-b9fa-8fcdc1b217dc",
        "meta": {
          "profile": [
            "http://hl7.eu/fhir/laboratory/StructureDefinition/Specimen-eu-lab"
          ]
        },
        "collection": {
          "collectedDateTime": "2021-06-05"
        },
        "text": {
          "status": "generated",
          "div": "<div xmlns=\"http://www.w3.org/1999/xhtml\"><table class=\"hl7__eu__lab__report\"><tr><th>Specimen</th><th>Collection Date</th></tr><tr><td>Serum specimen</td><td><span class=\"nb\">05-Jun-2021</span></td></tr></table></div>"
        },
        "type": {
          "coding": [
            {
              "code": "119364003",
              "system": "http://snomed.info/sct",
              "display": "Serum specimen"
            }
          ]
        }
      }
    },
    {
      "fullUrl": "urn:uuid:ef43cb24-3188-4ab2-89c5-f51c171ca740",
      "resource": {
        "resourceType": "Observation",
        "id": "ef43cb24-3188-4ab2-89c5-f51c171ca740",
        "meta": {
          "profile": [
            "http://hl7.eu/fhir/laboratory/StructureDefinition/Observation-resultslab-eu-lab"
          ]
        },
        "performer": [
          {
            "display": "The Central European Lab"
          }
        ],
        "category": [
          {
            "coding": [
              {
                "system": "http://terminology.hl7.org/CodeSystem/observation-category",
                "code": "laboratory"
              }
            ]
          }
        ],
        "code": {
          "coding": [
            {
              "code": "2339-0",
              "system": "http://loinc.org",
              "display": "Glucose [Mass/volume] in Blood"
            }
          ],
          "text": "Glucose [Mass/volume] in Blood"
        },
        "valueQuantity": {
          "system": "http://unitsofmeasure.org",
          "value": 69,
          "unit": "mg/dL",
          "code": "mg/dL"
        },
        "referenceRange": [
          {
            "low": {
              "value": 70,
              "code": "mg/dL",
              "system": "http://unitsofmeasure.org"
            }
          },
          {
            "high": {
              "value": 140,
              "code": "mg/dL",
              "system": "http://unitsofmeasure.org"
            }
          }
        ],
        "interpretation": [
          {
            "coding": [
              {
                "code": "L",
                "system": "http://terminology.hl7.org/CodeSystem/v3-ObservationInterpretation",
                "display": "Low"
              }
            ]
          }
        ],
        "text": {
          "status": "generated",
          "div": "<div xmlns=\"http://www.w3.org/1999/xhtml\"><table class=\"hl7__eu__lab__report\"><tr><th>Test</th><th>05-Jun-2021</th><th>Reference&#xA0;Range</th><th>Unit</th></tr><tr><td>Glucose [Mass/volume] in Blood</td><td>69.0</td><td>70 - 140</td><td>L</td><td>mg/dL</td></tr></table></div>"
        },
        "status": "final",
        "subject": {
          "reference": "urn:uuid:19727d83-ed1c-4170-a278-eb51c5306361",
          "display": "Aniela Prażmo"
        },
        "effectiveDateTime": "2021-06-05T13:25:25Z",
        "specimen": {
          "reference": "urn:uuid:25e07348-f118-4f11-8fef-8083863a288e"
        }
      }
    },
    {
      "fullUrl": "urn:uuid:71a68403-e506-4346-ab18-c3cf568e494f",
      "resource": {
        "resourceType": "Observation",
        "id": "71a68403-e506-4346-ab18-c3cf568e494f",
        "meta": {
          "profile": [
            "http://hl7.eu/fhir/laboratory/StructureDefinition/Observation-resultslab-eu-lab"
          ]
        },
        "performer": [
          {
            "display": "The Central European Lab"
          }
        ],
        "category": [
          {
            "coding": [
              {
                "system": "http://terminology.hl7.org/CodeSystem/observation-category",
                "code": "laboratory"
              }
            ]
          }
        ],
        "code": {
          "coding": [
            {
              "code": "6299-2",
              "system": "http://loinc.org",
              "display": "Urea nitrogen [Mass/volume] in Blood"
            }
          ],
          "text": "Urea nitrogen [Mass/volume] in Blood"
        },
        "valueQuantity": {
          "system": "http://unitsofmeasure.org",
          "value": 18.9,
          "unit": "mg/dL",
          "code": "mg/dL"
        },
        "referenceRange": [
          {
            "low": {
              "value": 7,
              "code": "mg/dL",
              "system": "http://unitsofmeasure.org"
            }
          },
          {
            "high": {
              "value": 20,
              "code": "mg/dL",
              "system": "http://unitsofmeasure.org"
            }
          }
        ],
        "text": {
          "status": "generated",
          "div": "<div xmlns=\"http://www.w3.org/1999/xhtml\"><table class=\"hl7__eu__lab__report\"><tr><th>Test</th><th>05-Jun-2021</th><th>Reference&#xA0;Range</th><th>Unit</th></tr><tr><td>Urea nitrogen [Mass/volume] in Blood</td><td>18.9</td><td>7 - 20</td><td></td><td>mg/dL</td></tr></table></div>"
        },
        "status": "final",
        "subject": {
          "reference": "urn:uuid:19727d83-ed1c-4170-a278-eb51c5306361",
          "display": "Aniela Prażmo"
        },
        "effectiveDateTime": "2021-06-05T13:25:25Z",
        "specimen": {
          "reference": "urn:uuid:25e07348-f118-4f11-8fef-8083863a288e"
        }
      }
    },
    {
      "fullUrl": "urn:uuid:c7130b14-e2b3-4161-9de7-8e1ec2fd3f81",
      "resource": {
        "resourceType": "Observation",
        "id": "c7130b14-e2b3-4161-9de7-8e1ec2fd3f81",
        "meta": {
          "profile": [
            "http://hl7.eu/fhir/laboratory/StructureDefinition/Observation-resultslab-eu-lab"
          ]
        },
        "performer": [
          {
            "display": "The Central European Lab"
          }
        ],
        "category": [
          {
            "coding": [
              {
                "system": "http://terminology.hl7.org/CodeSystem/observation-category",
                "code": "laboratory"
              }
            ]
          }
        ],
        "code": {
          "coding": [
            {
              "code": "38483-4",
              "system": "http://loinc.org",
              "display": "Creatinine [Mass/volume] in Blood"
            }
          ],
          "text": "Creatinine [Mass/volume] in Blood"
        },
        "valueQuantity": {
          "system": "http://unitsofmeasure.org",
          "value": 3.1,
          "unit": "mg/dL",
          "code": "mg/dL"
        },
        "referenceRange": [
          {
            "low": {
              "value": 0.6,
              "code": "mg/dL",
              "system": "http://unitsofmeasure.org"
            }
          },
          {
            "high": {
              "value": 1.3,
              "code": "mg/dL",
              "system": "http://unitsofmeasure.org"
            }
          }
        ],
        "interpretation": [
          {
            "coding": [
              {
                "code": "H",
                "system": "http://terminology.hl7.org/CodeSystem/v3-ObservationInterpretation",
                "display": "High"
              }
            ]
          }
        ],
        "text": {
          "status": "generated",
          "div": "<div xmlns=\"http://www.w3.org/1999/xhtml\"><table class=\"hl7__eu__lab__report\"><tr><th>Test</th><th>05-Jun-2021</th><th>Reference&#xA0;Range</th><th>Unit</th></tr><tr><td>Creatinine [Mass/volume] in Blood</td><td>3.1</td><td>0.6 - 1.3</td><td>H</td><td>mg/dL</td></tr></table></div>"
        },
        "status": "final",
        "subject": {
          "reference": "urn:uuid:19727d83-ed1c-4170-a278-eb51c5306361",
          "display": "Aniela Prażmo"
        },
        "effectiveDateTime": "2021-06-05T13:25:25Z",
        "specimen": {
          "reference": "urn:uuid:25e07348-f118-4f11-8fef-8083863a288e"
        }
      }
    },
    {
      "fullUrl": "urn:uuid:4f5f421d-b36c-4d3d-82af-47edb7a45fb7",
      "resource": {
        "resourceType": "Observation",
        "id": "4f5f421d-b36c-4d3d-82af-47edb7a45fb7",
        "meta": {
          "profile": [
            "http://hl7.eu/fhir/laboratory/StructureDefinition/Observation-resultslab-eu-lab"
          ]
        },
        "performer": [
          {
            "display": "The Central European Lab"
          }
        ],
        "category": [
          {
            "coding": [
              {
                "system": "http://terminology.hl7.org/CodeSystem/observation-category",
                "code": "laboratory"
              }
            ]
          }
        ],
        "code": {
          "coding": [
            {
              "code": "49765-1",
              "system": "http://loinc.org",
              "display": "Calcium [Mass/volume] in Blood"
            }
          ],
          "text": "Calcium [Mass/volume] in Blood"
        },
        "valueQuantity": {
          "system": "http://unitsofmeasure.org",
          "value": 9,
          "unit": "mg/dL",
          "code": "mg/dL"
        },
        "referenceRange": [
          {
            "low": {
              "value": 8.5,
              "code": "mg/dL",
              "system": "http://unitsofmeasure.org"
            }
          },
          {
            "high": {
              "value": 10.5,
              "code": "mg/dL",
              "system": "http://unitsofmeasure.org"
            }
          }
        ],
        "text": {
          "status": "generated",
          "div": "<div xmlns=\"http://www.w3.org/1999/xhtml\"><table class=\"hl7__eu__lab__report\"><tr><th>Test</th><th>05-Jun-2021</th><th>Reference&#xA0;Range</th><th>Unit</th></tr><tr><td>Calcium [Mass/volume] in Blood</td><td>9.0</td><td>8.5 - 10.5</td><td></td><td>mg/dL</td></tr></table></div>"
        },
        "status": "final",
        "subject": {
          "reference": "urn:uuid:19727d83-ed1c-4170-a278-eb51c5306361",
          "display": "Aniela Prażmo"
        },
        "effectiveDateTime": "2021-06-05T13:25:25Z",
        "specimen": {
          "reference": "urn:uuid:25e07348-f118-4f11-8fef-8083863a288e"
        }
      }
    },
    {
      "fullUrl": "urn:uuid:2c297b67-685b-4492-a752-bdf5aa0fc452",
      "resource": {
        "resourceType": "Observation",
        "id": "2c297b67-685b-4492-a752-bdf5aa0fc452",
        "meta": {
          "profile": [
            "http://hl7.eu/fhir/laboratory/StructureDefinition/Observation-resultslab-eu-lab"
          ]
        },
        "performer": [
          {
            "display": "The Central European Lab"
          }
        ],
        "category": [
          {
            "coding": [
              {
                "system": "http://terminology.hl7.org/CodeSystem/observation-category",
                "code": "laboratory"
              }
            ]
          }
        ],
        "code": {
          "coding": [
            {
              "code": "2947-0",
              "system": "http://loinc.org",
              "display": "Sodium [Moles/volume] in Blood"
            }
          ],
          "text": "Sodium [Moles/volume] in Blood"
        },
        "valueQuantity": {
          "system": "http://unitsofmeasure.org",
          "value": 142.5,
          "unit": "mmol/L",
          "code": "mmol/L"
        },
        "referenceRange": [
          {
            "low": {
              "value": 135,
              "code": "mmol/L",
              "system": "http://unitsofmeasure.org"
            }
          },
          {
            "high": {
              "value": 145,
              "code": "mmol/L",
              "system": "http://unitsofmeasure.org"
            }
          }
        ],
        "text": {
          "status": "generated",
          "div": "<div xmlns=\"http://www.w3.org/1999/xhtml\"><table class=\"hl7__eu__lab__report\"><tr><th>Test</th><th>05-Jun-2021</th><th>Reference&#xA0;Range</th><th>Unit</th></tr><tr><td>Sodium [Moles/volume] in Blood</td><td>142.5</td><td>135 - 145</td><td></td><td>mmol/L</td></tr></table></div>"
        },
        "status": "final",
        "subject": {
          "reference": "urn:uuid:19727d83-ed1c-4170-a278-eb51c5306361",
          "display": "Aniela Prażmo"
        },
        "effectiveDateTime": "2021-06-05T13:25:25Z",
        "specimen": {
          "reference": "urn:uuid:25e07348-f118-4f11-8fef-8083863a288e"
        }
      }
    },
    {
      "fullUrl": "urn:uuid:43d2afd5-88f3-46c1-ac23-38ac22a1c869",
      "resource": {
        "resourceType": "Observation",
        "id": "43d2afd5-88f3-46c1-ac23-38ac22a1c869",
        "meta": {
          "profile": [
            "http://hl7.eu/fhir/laboratory/StructureDefinition/Observation-resultslab-eu-lab"
          ]
        },
        "performer": [
          {
            "display": "The Central European Lab"
          }
        ],
        "category": [
          {
            "coding": [
              {
                "system": "http://terminology.hl7.org/CodeSystem/observation-category",
                "code": "laboratory"
              }
            ]
          }
        ],
        "code": {
          "coding": [
            {
              "code": "6298-4",
              "system": "http://loinc.org",
              "display": "Potassium [Moles/volume] in Blood"
            }
          ],
          "text": "Potassium [Moles/volume] in Blood"
        },
        "valueQuantity": {
          "system": "http://unitsofmeasure.org",
          "value": 3.9,
          "unit": "mmol/L",
          "code": "mmol/L"
        },
        "referenceRange": [
          {
            "low": {
              "value": 3.6,
              "code": "mmol/L",
              "system": "http://unitsofmeasure.org"
            }
          },
          {
            "high": {
              "value": 5.1,
              "code": "mmol/L",
              "system": "http://unitsofmeasure.org"
            }
          }
        ],
        "text": {
          "status": "generated",
          "div": "<div xmlns=\"http://www.w3.org/1999/xhtml\"><table class=\"hl7__eu__lab__report\"><tr><th>Test</th><th>05-Jun-2021</th><th>Reference&#xA0;Range</th><th>Unit</th></tr><tr><td>Potassium [Moles/volume] in Blood</td><td>3.9</td><td>3.6 - 5.1</td><td></td><td>mmol/L</td></tr></table></div>"
        },
        "status": "final",
        "subject": {
          "reference": "urn:uuid:19727d83-ed1c-4170-a278-eb51c5306361",
          "display": "Aniela Prażmo"
        },
        "effectiveDateTime": "2021-06-05T13:25:25Z",
        "specimen": {
          "reference": "urn:uuid:25e07348-f118-4f11-8fef-8083863a288e"
        }
      }
    },
    {
      "fullUrl": "urn:uuid:6e9abba1-220b-4758-97d4-4d0fb94aa42f",
      "resource": {
        "resourceType": "Observation",
        "id": "6e9abba1-220b-4758-97d4-4d0fb94aa42f",
        "meta": {
          "profile": [
            "http://hl7.eu/fhir/laboratory/StructureDefinition/Observation-resultslab-eu-lab"
          ]
        },
        "performer": [
          {
            "display": "The Central European Lab"
          }
        ],
        "category": [
          {
            "coding": [
              {
                "system": "http://terminology.hl7.org/CodeSystem/observation-category",
                "code": "laboratory"
              }
            ]
          }
        ],
        "code": {
          "coding": [
            {
              "code": "2069-3",
              "system": "http://loinc.org",
              "display": "Chloride [Moles/volume] in Blood"
            }
          ],
          "text": "Chloride [Moles/volume] in Blood"
        },
        "valueQuantity": {
          "system": "http://unitsofmeasure.org",
          "value": 101.8,
          "unit": "mmol/L",
          "code": "mmol/L"
        },
        "referenceRange": [
          {
            "low": {
              "value": 98,
              "code": "mmol/L",
              "system": "http://unitsofmeasure.org"
            }
          },
          {
            "high": {
              "value": 107,
              "code": "mmol/L",
              "system": "http://unitsofmeasure.org"
            }
          }
        ],
        "text": {
          "status": "generated",
          "div": "<div xmlns=\"http://www.w3.org/1999/xhtml\"><table class=\"hl7__eu__lab__report\"><tr><th>Test</th><th>05-Jun-2021</th><th>Reference&#xA0;Range</th><th>Unit</th></tr><tr><td>Chloride [Moles/volume] in Blood</td><td>101.8</td><td>98 - 107</td><td></td><td>mmol/L</td></tr></table></div>"
        },
        "status": "final",
        "subject": {
          "reference": "urn:uuid:19727d83-ed1c-4170-a278-eb51c5306361",
          "display": "Aniela Prażmo"
        },
        "effectiveDateTime": "2021-06-05T13:25:25Z",
        "specimen": {
          "reference": "urn:uuid:25e07348-f118-4f11-8fef-8083863a288e"
        }
      }
    },
    {
      "fullUrl": "urn:uuid:a894e5e1-fc01-4271-927a-e9d9b3b4e153",
      "resource": {
        "resourceType": "Observation",
        "id": "a894e5e1-fc01-4271-927a-e9d9b3b4e153",
        "meta": {
          "profile": [
            "http://hl7.eu/fhir/laboratory/StructureDefinition/Observation-resultslab-eu-lab"
          ]
        },
        "performer": [
          {
            "display": "The Central European Lab"
          }
        ],
        "category": [
          {
            "coding": [
              {
                "system": "http://terminology.hl7.org/CodeSystem/observation-category",
                "code": "laboratory"
              }
            ]
          }
        ],
        "code": {
          "coding": [
            {
              "code": "20565-8",
              "system": "http://loinc.org",
              "display": "Carbon dioxide, total [Moles/volume] in Blood"
            }
          ],
          "text": "Carbon dioxide, total [Moles/volume] in Blood"
        },
        "valueQuantity": {
          "system": "http://unitsofmeasure.org",
          "value": 24.8,
          "unit": "mmol/L",
          "code": "mmol/L"
        },
        "referenceRange": [
          {
            "low": {
              "value": 22,
              "code": "mmol/L",
              "system": "http://unitsofmeasure.org"
            }
          },
          {
            "high": {
              "value": 32,
              "code": "mmol/L",
              "system": "http://unitsofmeasure.org"
            }
          }
        ],
        "text": {
          "status": "generated",
          "div": "<div xmlns=\"http://www.w3.org/1999/xhtml\"><table class=\"hl7__eu__lab__report\"><tr><th>Test</th><th>05-Jun-2021</th><th>Reference&#xA0;Range</th><th>Unit</th></tr><tr><td>Carbon dioxide, total [Moles/volume] in Blood</td><td>24.8</td><td>22 - 32</td><td></td><td>mmol/L</td></tr></table></div>"
        },
        "status": "final",
        "subject": {
          "reference": "urn:uuid:19727d83-ed1c-4170-a278-eb51c5306361",
          "display": "Aniela Prażmo"
        },
        "effectiveDateTime": "2021-06-05T13:25:25Z",
        "specimen": {
          "reference": "urn:uuid:25e07348-f118-4f11-8fef-8083863a288e"
        }
      }
    },
    {
      "fullUrl": "urn:uuid:08f83fb7-9708-4534-91f5-462a115cd649",
      "resource": {
        "resourceType": "Observation",
        "id": "08f83fb7-9708-4534-91f5-462a115cd649",
        "meta": {
          "profile": [
            "http://hl7.eu/fhir/laboratory/StructureDefinition/Observation-resultslab-eu-lab"
          ]
        },
        "performer": [
          {
            "display": "The Central European Lab"
          }
        ],
        "category": [
          {
            "coding": [
              {
                "system": "http://terminology.hl7.org/CodeSystem/observation-category",
                "code": "laboratory"
              }
            ]
          }
        ],
        "code": {
          "coding": [
            {
              "code": "2885-2",
              "system": "http://loinc.org",
              "display": "Protein [Mass/volume] in Serum or Plasma"
            }
          ],
          "text": "Protein [Mass/volume] in Serum or Plasma"
        },
        "valueQuantity": {
          "system": "http://unitsofmeasure.org",
          "value": 7.9,
          "unit": "g/dL",
          "code": "g/dL"
        },
        "referenceRange": [
          {
            "low": {
              "value": 6,
              "code": "g/dL",
              "system": "http://unitsofmeasure.org"
            }
          },
          {
            "high": {
              "value": 8.3,
              "code": "g/dL",
              "system": "http://unitsofmeasure.org"
            }
          }
        ],
        "text": {
          "status": "generated",
          "div": "<div xmlns=\"http://www.w3.org/1999/xhtml\"><table class=\"hl7__eu__lab__report\"><tr><th>Test</th><th>05-Jun-2021</th><th>Reference&#xA0;Range</th><th>Unit</th></tr><tr><td>Protein [Mass/volume] in Serum or Plasma</td><td>7.9</td><td>6 - 8.3</td><td></td><td>g/dL</td></tr></table></div>"
        },
        "status": "final",
        "subject": {
          "reference": "urn:uuid:19727d83-ed1c-4170-a278-eb51c5306361",
          "display": "Aniela Prażmo"
        },
        "effectiveDateTime": "2021-06-05T13:25:25Z",
        "specimen": {
          "reference": "urn:uuid:65f63120-cc0d-4e13-8526-bb5212d5f92b"
        }
      }
    },
    {
      "fullUrl": "urn:uuid:c5745bc0-d989-4028-92fd-6532dc17b353",
      "resource": {
        "resourceType": "Observation",
        "id": "c5745bc0-d989-4028-92fd-6532dc17b353",
        "meta": {
          "profile": [
            "http://hl7.eu/fhir/laboratory/StructureDefinition/Observation-resultslab-eu-lab"
          ]
        },
        "performer": [
          {
            "display": "The Central European Lab"
          }
        ],
        "category": [
          {
            "coding": [
              {
                "system": "http://terminology.hl7.org/CodeSystem/observation-category",
                "code": "laboratory"
              }
            ]
          }
        ],
        "code": {
          "coding": [
            {
              "code": "1751-7",
              "system": "http://loinc.org",
              "display": "Albumin [Mass/volume] in Serum or Plasma"
            }
          ],
          "text": "Albumin [Mass/volume] in Serum or Plasma"
        },
        "valueQuantity": {
          "system": "http://unitsofmeasure.org",
          "value": 3.7,
          "unit": "g/dL",
          "code": "g/dL"
        },
        "referenceRange": [
          {
            "low": {
              "value": 3.5,
              "code": "g/dL",
              "system": "http://unitsofmeasure.org"
            }
          },
          {
            "high": {
              "value": 5,
              "code": "g/dL",
              "system": "http://unitsofmeasure.org"
            }
          }
        ],
        "text": {
          "status": "generated",
          "div": "<div xmlns=\"http://www.w3.org/1999/xhtml\"><table class=\"hl7__eu__lab__report\"><tr><th>Test</th><th>05-Jun-2021</th><th>Reference&#xA0;Range</th><th>Unit</th></tr><tr><td>Albumin [Mass/volume] in Serum or Plasma</td><td>3.7</td><td>3.5 - 5</td><td></td><td>g/dL</td></tr></table></div>"
        },
        "status": "final",
        "subject": {
          "reference": "urn:uuid:19727d83-ed1c-4170-a278-eb51c5306361",
          "display": "Aniela Prażmo"
        },
        "effectiveDateTime": "2021-06-05T13:25:25Z",
        "specimen": {
          "reference": "urn:uuid:65f63120-cc0d-4e13-8526-bb5212d5f92b"
        }
      }
    },
    {
      "fullUrl": "urn:uuid:a26f1f21-3a9e-4b34-9d19-fce1b57b5144",
      "resource": {
        "resourceType": "Observation",
        "id": "a26f1f21-3a9e-4b34-9d19-fce1b57b5144",
        "meta": {
          "profile": [
            "http://hl7.eu/fhir/laboratory/StructureDefinition/Observation-resultslab-eu-lab"
          ]
        },
        "performer": [
          {
            "display": "The Central European Lab"
          }
        ],
        "category": [
          {
            "coding": [
              {
                "system": "http://terminology.hl7.org/CodeSystem/observation-category",
                "code": "laboratory"
              }
            ]
          }
        ],
        "code": {
          "coding": [
            {
              "code": "10834-0",
              "system": "http://loinc.org",
              "display": "Globulin [Mass/volume] in Serum by calculation"
            }
          ],
          "text": "Globulin [Mass/volume] in Serum by calculation"
        },
        "valueQuantity": {
          "system": "http://unitsofmeasure.org",
          "value": 2.3,
          "unit": "g/L",
          "code": "g/L"
        },
        "referenceRange": [
          {
            "low": {
              "value": 2,
              "code": "g/L",
              "system": "http://unitsofmeasure.org"
            }
          },
          {
            "high": {
              "value": 3.9,
              "code": "g/L",
              "system": "http://unitsofmeasure.org"
            }
          }
        ],
        "text": {
          "status": "generated",
          "div": "<div xmlns=\"http://www.w3.org/1999/xhtml\"><table class=\"hl7__eu__lab__report\"><tr><th>Test</th><th>05-Jun-2021</th><th>Reference&#xA0;Range</th><th>Unit</th></tr><tr><td>Globulin [Mass/volume] in Serum by calculation</td><td>2.3</td><td>2 - 3.9</td><td></td><td>g/L</td></tr></table></div>"
        },
        "status": "final",
        "subject": {
          "reference": "urn:uuid:19727d83-ed1c-4170-a278-eb51c5306361",
          "display": "Aniela Prażmo"
        },
        "effectiveDateTime": "2021-06-05T13:25:25Z",
        "specimen": {
          "reference": "urn:uuid:583b0ca9-0053-4c7f-b9fa-8fcdc1b217dc"
        }
      }
    },
    {
      "fullUrl": "urn:uuid:868e45d1-84f0-40b1-8009-dd143885466c",
      "resource": {
        "resourceType": "Observation",
        "id": "868e45d1-84f0-40b1-8009-dd143885466c",
        "meta": {
          "profile": [
            "http://hl7.eu/fhir/laboratory/StructureDefinition/Observation-resultslab-eu-lab"
          ]
        },
        "performer": [
          {
            "display": "The Central European Lab"
          }
        ],
        "category": [
          {
            "coding": [
              {
                "system": "http://terminology.hl7.org/CodeSystem/observation-category",
                "code": "laboratory"
              }
            ]
          }
        ],
        "code": {
          "coding": [
            {
              "code": "1975-2",
              "system": "http://loinc.org",
              "display": "Bilirubin.total [Mass/volume] in Serum or Plasma"
            }
          ],
          "text": "Bilirubin.total [Mass/volume] in Serum or Plasma"
        },
        "valueQuantity": {
          "system": "http://unitsofmeasure.org",
          "value": 0.2,
          "unit": "mg/dL",
          "code": "mg/dL"
        },
        "referenceRange": [
          {
            "low": {
              "value": 0.3,
              "code": "mg/dL",
              "system": "http://unitsofmeasure.org"
            }
          },
          {
            "high": {
              "value": 1.2,
              "code": "mg/dL",
              "system": "http://unitsofmeasure.org"
            }
          }
        ],
        "interpretation": [
          {
            "coding": [
              {
                "code": "L",
                "system": "http://terminology.hl7.org/CodeSystem/v3-ObservationInterpretation",
                "display": "Low"
              }
            ]
          }
        ],
        "text": {
          "status": "generated",
          "div": "<div xmlns=\"http://www.w3.org/1999/xhtml\"><table class=\"hl7__eu__lab__report\"><tr><th>Test</th><th>05-Jun-2021</th><th>Reference&#xA0;Range</th><th>Unit</th></tr><tr><td>Bilirubin.total [Mass/volume] in Serum or Plasma</td><td>0.2</td><td>0.3 - 1.2</td><td>L</td><td>mg/dL</td></tr></table></div>"
        },
        "status": "final",
        "subject": {
          "reference": "urn:uuid:19727d83-ed1c-4170-a278-eb51c5306361",
          "display": "Aniela Prażmo"
        },
        "effectiveDateTime": "2021-06-05T13:25:25Z",
        "specimen": {
          "reference": "urn:uuid:65f63120-cc0d-4e13-8526-bb5212d5f92b"
        }
      }
    },
    {
      "fullUrl": "urn:uuid:97da575f-53f1-4514-93d0-c3b768ca7d87",
      "resource": {
        "resourceType": "Observation",
        "id": "97da575f-53f1-4514-93d0-c3b768ca7d87",
        "meta": {
          "profile": [
            "http://hl7.eu/fhir/laboratory/StructureDefinition/Observation-resultslab-eu-lab"
          ]
        },
        "performer": [
          {
            "display": "The Central European Lab"
          }
        ],
        "category": [
          {
            "coding": [
              {
                "system": "http://terminology.hl7.org/CodeSystem/observation-category",
                "code": "laboratory"
              }
            ]
          }
        ],
        "code": {
          "coding": [
            {
              "code": "6768-6",
              "system": "http://loinc.org",
              "display": "Alkaline phosphatase [Enzymatic activity/volume] in Serum or Plasma"
            }
          ],
          "text": "Alkaline phosphatase [Enzymatic activity/volume] in Serum or Plasma"
        },
        "valueQuantity": {
          "system": "http://unitsofmeasure.org",
          "value": 68.5,
          "unit": "U/L",
          "code": "U/L"
        },
        "referenceRange": [
          {
            "low": {
              "value": 32,
              "code": "U/L",
              "system": "http://unitsofmeasure.org"
            }
          },
          {
            "high": {
              "value": 150,
              "code": "U/L",
              "system": "http://unitsofmeasure.org"
            }
          }
        ],
        "text": {
          "status": "generated",
          "div": "<div xmlns=\"http://www.w3.org/1999/xhtml\"><table class=\"hl7__eu__lab__report\"><tr><th>Test</th><th>05-Jun-2021</th><th>Reference&#xA0;Range</th><th>Unit</th></tr><tr><td>Alkaline phosphatase [Enzymatic activity/volume] in Serum or Plasma</td><td>68.5</td><td>32 - 150</td><td></td><td>U/L</td></tr></table></div>"
        },
        "status": "final",
        "subject": {
          "reference": "urn:uuid:19727d83-ed1c-4170-a278-eb51c5306361",
          "display": "Aniela Prażmo"
        },
        "effectiveDateTime": "2021-06-05T13:25:25Z",
        "specimen": {
          "reference": "urn:uuid:65f63120-cc0d-4e13-8526-bb5212d5f92b"
        }
      }
    },
    {
      "fullUrl": "urn:uuid:d2c5cd72-5ffb-4ec0-abdc-89eea170cfe4",
      "resource": {
        "resourceType": "Observation",
        "id": "d2c5cd72-5ffb-4ec0-abdc-89eea170cfe4",
        "meta": {
          "profile": [
            "http://hl7.eu/fhir/laboratory/StructureDefinition/Observation-resultslab-eu-lab"
          ]
        },
        "performer": [
          {
            "display": "The Central European Lab"
          }
        ],
        "category": [
          {
            "coding": [
              {
                "system": "http://terminology.hl7.org/CodeSystem/observation-category",
                "code": "laboratory"
              }
            ]
          }
        ],
        "code": {
          "coding": [
            {
              "code": "1742-6",
              "system": "http://loinc.org",
              "display": "Alanine aminotransferase [Enzymatic activity/volume] in Serum or Plasma"
            }
          ],
          "text": "Alanine aminotransferase [Enzymatic activity/volume] in Serum or Plasma"
        },
        "valueQuantity": {
          "system": "http://unitsofmeasure.org",
          "value": 21.1,
          "unit": "U/L",
          "code": "U/L"
        },
        "referenceRange": [
          {
            "low": {
              "value": 13,
              "code": "U/L",
              "system": "http://unitsofmeasure.org"
            }
          },
          {
            "high": {
              "value": 32,
              "code": "U/L",
              "system": "http://unitsofmeasure.org"
            }
          }
        ],
        "text": {
          "status": "generated",
          "div": "<div xmlns=\"http://www.w3.org/1999/xhtml\"><table class=\"hl7__eu__lab__report\"><tr><th>Test</th><th>05-Jun-2021</th><th>Reference&#xA0;Range</th><th>Unit</th></tr><tr><td>Alanine aminotransferase [Enzymatic activity/volume] in Serum or Plasma</td><td>21.1</td><td>13 - 32</td><td></td><td>U/L</td></tr></table></div>"
        },
        "status": "final",
        "subject": {
          "reference": "urn:uuid:19727d83-ed1c-4170-a278-eb51c5306361",
          "display": "Aniela Prażmo"
        },
        "effectiveDateTime": "2021-06-05T13:25:25Z",
        "specimen": {
          "reference": "urn:uuid:65f63120-cc0d-4e13-8526-bb5212d5f92b"
        }
      }
    },
    {
      "fullUrl": "urn:uuid:38f1f1f1-c740-4b50-8869-28e389fbe897",
      "resource": {
        "resourceType": "Observation",
        "id": "38f1f1f1-c740-4b50-8869-28e389fbe897",
        "meta": {
          "profile": [
            "http://hl7.eu/fhir/laboratory/StructureDefinition/Observation-resultslab-eu-lab"
          ]
        },
        "performer": [
          {
            "display": "The Central European Lab"
          }
        ],
        "category": [
          {
            "coding": [
              {
                "system": "http://terminology.hl7.org/CodeSystem/observation-category",
                "code": "laboratory"
              }
            ]
          }
        ],
        "code": {
          "coding": [
            {
              "code": "1920-8",
              "system": "http://loinc.org",
              "display": "Aspartate aminotransferase [Enzymatic activity/volume] in Serum or Plasma"
            }
          ],
          "text": "Aspartate aminotransferase [Enzymatic activity/volume] in Serum or Plasma"
        },
        "valueQuantity": {
          "system": "http://unitsofmeasure.org",
          "value": 23.9,
          "unit": "U/L",
          "code": "U/L"
        },
        "referenceRange": [
          {
            "low": {
              "value": 10,
              "code": "U/L",
              "system": "http://unitsofmeasure.org"
            }
          },
          {
            "high": {
              "value": 40,
              "code": "U/L",
              "system": "http://unitsofmeasure.org"
            }
          }
        ],
        "text": {
          "status": "generated",
          "div": "<div xmlns=\"http://www.w3.org/1999/xhtml\"><table class=\"hl7__eu__lab__report\"><tr><th>Test</th><th>05-Jun-2021</th><th>Reference&#xA0;Range</th><th>Unit</th></tr><tr><td>Aspartate aminotransferase [Enzymatic activity/volume] in Serum or Plasma</td><td>23.9</td><td>10 - 40</td><td></td><td>U/L</td></tr></table></div>"
        },
        "status": "final",
        "subject": {
          "reference": "urn:uuid:19727d83-ed1c-4170-a278-eb51c5306361",
          "display": "Aniela Prażmo"
        },
        "effectiveDateTime": "2021-06-05T13:25:25Z",
        "specimen": {
          "reference": "urn:uuid:65f63120-cc0d-4e13-8526-bb5212d5f92b"
        }
      }
    },
    {
      "fullUrl": "urn:uuid:25f53ad9-18c7-49e9-ac3c-36ad391837ec",
      "resource": {
        "resourceType": "Observation",
        "id": "25f53ad9-18c7-49e9-ac3c-36ad391837ec",
        "meta": {
          "profile": [
            "http://hl7.eu/fhir/laboratory/StructureDefinition/Observation-resultslab-eu-lab"
          ]
        },
        "performer": [
          {
            "display": "The Central European Lab"
          }
        ],
        "category": [
          {
            "coding": [
              {
                "system": "http://terminology.hl7.org/CodeSystem/observation-category",
                "code": "laboratory"
              }
            ]
          }
        ],
        "code": {
          "coding": [
            {
              "code": "2093-3",
              "system": "http://loinc.org",
              "display": "Cholesterol [Mass/volume] in Serum or Plasma"
            }
          ],
          "text": "Cholesterol [Mass/volume] in Serum or Plasma"
        },
        "valueQuantity": {
          "system": "http://unitsofmeasure.org",
          "value": 156.9,
          "unit": "mg/dL",
          "code": "mg/dL"
        },
        "referenceRange": [
          {
            "low": {
              "value": 130,
              "code": "mg/dL",
              "system": "http://unitsofmeasure.org"
            }
          },
          {
            "high": {
              "value": 200,
              "code": "mg/dL",
              "system": "http://unitsofmeasure.org"
            }
          }
        ],
        "text": {
          "status": "generated",
          "div": "<div xmlns=\"http://www.w3.org/1999/xhtml\"><table class=\"hl7__eu__lab__report\"><tr><th>Test</th><th>05-Jun-2021</th><th>Reference&#xA0;Range</th><th>Unit</th></tr><tr><td>Cholesterol [Mass/volume] in Serum or Plasma</td><td>156.9</td><td>130 - 200</td><td></td><td>mg/dL</td></tr></table></div>"
        },
        "status": "final",
        "subject": {
          "reference": "urn:uuid:19727d83-ed1c-4170-a278-eb51c5306361",
          "display": "Aniela Prażmo"
        },
        "effectiveDateTime": "2021-06-05T13:25:25Z",
        "specimen": {
          "reference": "urn:uuid:65f63120-cc0d-4e13-8526-bb5212d5f92b"
        }
      }
    },
    {
      "fullUrl": "urn:uuid:81d42bbf-7b0e-486a-8764-4ea1471b7a81",
      "resource": {
        "resourceType": "Observation",
        "id": "81d42bbf-7b0e-486a-8764-4ea1471b7a81",
        "meta": {
          "profile": [
            "http://hl7.eu/fhir/laboratory/StructureDefinition/Observation-resultslab-eu-lab"
          ]
        },
        "performer": [
          {
            "display": "The Central European Lab"
          }
        ],
        "category": [
          {
            "coding": [
              {
                "system": "http://terminology.hl7.org/CodeSystem/observation-category",
                "code": "laboratory"
              }
            ]
          }
        ],
        "code": {
          "coding": [
            {
              "code": "2571-8",
              "system": "http://loinc.org",
              "display": "Triglyceride [Mass/volume] in Serum or Plasma"
            }
          ],
          "text": "Triglyceride [Mass/volume] in Serum or Plasma"
        },
        "valueQuantity": {
          "system": "http://unitsofmeasure.org",
          "value": 119.3,
          "unit": "mg/dL",
          "code": "mg/dL"
        },
        "referenceRange": [
          {
            "low": {
              "value": 0,
              "code": "mg/dL",
              "system": "http://unitsofmeasure.org"
            }
          },
          {
            "high": {
              "value": 199,
              "code": "mg/dL",
              "system": "http://unitsofmeasure.org"
            }
          }
        ],
        "text": {
          "status": "generated",
          "div": "<div xmlns=\"http://www.w3.org/1999/xhtml\"><table class=\"hl7__eu__lab__report\"><tr><th>Test</th><th>05-Jun-2021</th><th>Reference&#xA0;Range</th><th>Unit</th></tr><tr><td>Triglyceride [Mass/volume] in Serum or Plasma</td><td>119.3</td><td>0 - 199</td><td></td><td>mg/dL</td></tr></table></div>"
        },
        "status": "final",
        "subject": {
          "reference": "urn:uuid:19727d83-ed1c-4170-a278-eb51c5306361",
          "display": "Aniela Prażmo"
        },
        "effectiveDateTime": "2021-06-05T13:25:25Z",
        "specimen": {
          "reference": "urn:uuid:65f63120-cc0d-4e13-8526-bb5212d5f92b"
        }
      }
    },
    {
      "fullUrl": "urn:uuid:633cb362-4ed1-485f-b231-c48233ba4d6b",
      "resource": {
        "resourceType": "Observation",
        "id": "633cb362-4ed1-485f-b231-c48233ba4d6b",
        "meta": {
          "profile": [
            "http://hl7.eu/fhir/laboratory/StructureDefinition/Observation-resultslab-eu-lab"
          ]
        },
        "performer": [
          {
            "display": "The Central European Lab"
          }
        ],
        "category": [
          {
            "coding": [
              {
                "system": "http://terminology.hl7.org/CodeSystem/observation-category",
                "code": "laboratory"
              }
            ]
          }
        ],
        "code": {
          "coding": [
            {
              "code": "18262-6",
              "system": "http://loinc.org",
              "display": "Cholesterol in LDL [Mass/volume] in Serum or Plasma by Direct assay"
            }
          ],
          "text": "Cholesterol in LDL [Mass/volume] in Serum or Plasma by Direct assay"
        },
        "valueQuantity": {
          "system": "http://unitsofmeasure.org",
          "value": 130.9,
          "unit": "mg/dL",
          "code": "mg/dL"
        },
        "referenceRange": [
          {
            "low": {
              "value": 0,
              "code": "mg/dL",
              "system": "http://unitsofmeasure.org"
            }
          },
          {
            "high": {
              "value": 130,
              "code": "mg/dL",
              "system": "http://unitsofmeasure.org"
            }
          }
        ],
        "interpretation": [
          {
            "coding": [
              {
                "code": "H",
                "system": "http://terminology.hl7.org/CodeSystem/v3-ObservationInterpretation",
                "display": "High"
              }
            ]
          }
        ],
        "text": {
          "status": "generated",
          "div": "<div xmlns=\"http://www.w3.org/1999/xhtml\"><table class=\"hl7__eu__lab__report\"><tr><th>Test</th><th>05-Jun-2021</th><th>Reference&#xA0;Range</th><th>Unit</th></tr><tr><td>Cholesterol in LDL [Mass/volume] in Serum or Plasma by Direct assay</td><td>130.9</td><td>0 - 130</td><td>H</td><td>mg/dL</td></tr></table></div>"
        },
        "status": "final",
        "subject": {
          "reference": "urn:uuid:19727d83-ed1c-4170-a278-eb51c5306361",
          "display": "Aniela Prażmo"
        },
        "effectiveDateTime": "2021-06-05T13:25:25Z",
        "specimen": {
          "reference": "urn:uuid:65f63120-cc0d-4e13-8526-bb5212d5f92b"
        }
      }
    },
    {
      "fullUrl": "urn:uuid:8cf5355b-95b6-4be0-b7b0-1ab6948438c6",
      "resource": {
        "resourceType": "Observation",
        "id": "8cf5355b-95b6-4be0-b7b0-1ab6948438c6",
        "meta": {
          "profile": [
            "http://hl7.eu/fhir/laboratory/StructureDefinition/Observation-resultslab-eu-lab"
          ]
        },
        "performer": [
          {
            "display": "The Central European Lab"
          }
        ],
        "category": [
          {
            "coding": [
              {
                "system": "http://terminology.hl7.org/CodeSystem/observation-category",
                "code": "laboratory"
              }
            ]
          }
        ],
        "code": {
          "coding": [
            {
              "code": "2085-9",
              "system": "http://loinc.org",
              "display": "Cholesterol in HDL [Mass/volume] in Serum or Plasma"
            }
          ],
          "text": "Cholesterol in HDL [Mass/volume] in Serum or Plasma"
        },
        "valueQuantity": {
          "system": "http://unitsofmeasure.org",
          "value": 66.6,
          "unit": "mg/dL",
          "code": "mg/dL"
        },
        "referenceRange": [
          {
            "low": {
              "value": 50,
              "code": "mg/dL",
              "system": "http://unitsofmeasure.org"
            }
          },
          {
            "high": {
              "value": 100,
              "code": "mg/dL",
              "system": "http://unitsofmeasure.org"
            }
          }
        ],
        "text": {
          "status": "generated",
          "div": "<div xmlns=\"http://www.w3.org/1999/xhtml\"><table class=\"hl7__eu__lab__report\"><tr><th>Test</th><th>05-Jun-2021</th><th>Reference&#xA0;Range</th><th>Unit</th></tr><tr><td>Cholesterol in HDL [Mass/volume] in Serum or Plasma</td><td>66.6</td><td>50 - 100</td><td></td><td>mg/dL</td></tr></table></div>"
        },
        "status": "final",
        "subject": {
          "reference": "urn:uuid:19727d83-ed1c-4170-a278-eb51c5306361",
          "display": "Aniela Prażmo"
        },
        "effectiveDateTime": "2021-06-05T13:25:25Z",
        "specimen": {
          "reference": "urn:uuid:65f63120-cc0d-4e13-8526-bb5212d5f92b"
        }
      }
    },
    {
      "fullUrl": "urn:uuid:2dfdba90-555f-4524-8e33-5cfeeae84e13",
      "resource": {
        "resourceType": "Device",
        "id": "2dfdba90-555f-4524-8e33-5cfeeae84e13",
        "deviceName": [
          {
            "name": "SYNDERAI Synthetic Generator",
            "type": "manufacturer-name"
          }
        ],
        "version": [
          {
            "value": "5.0"
          }
        ],
        "text": {
          "status": "generated",
          "div": "<div xmlns=\"http://www.w3.org/1999/xhtml\">SYNDERAI Synthetic Generator v5.0</div>"
        },
        "status": "active\"",
        "distinctIdentifier": "synderai-generator-50",
        "manufacturer": "SYNDERAI Project"
      }
    },
    {
      "fullUrl": "urn:uuid:0b0cca74-0739-4768-9a39-d43053b06066",
      "resource": {
        "resourceType": "Provenance",
        "id": "0b0cca74-0739-4768-9a39-d43053b06066",
        "target": [
          {
            "reference": "Patient/19727d83-ed1c-4170-a278-eb51c5306361"
          },
          {
            "reference": "Bundle/6fab5efe-f0e5-4ceb-a0fe-e955d8a713d5"
          },
          {
            "reference": "Composition/8d212c6e-79a1-4fa6-90d3-deff966eb84d"
          },
          {
            "reference": "PractitionerRole/7461c72c-aec4-4fdb-be29-8128413984b5"
          },
          {
            "reference": "Practitioner/c14a8892-ee13-4cf1-9830-0e4e912b57d9"
          },
          {
            "reference": "PractitionerRole/23f0ac70-8508-4dbf-957f-c3bf5958d80c"
          },
          {
            "reference": "Organization/5761b424-954c-46a5-b3dc-d05ae4170114"
          }
        ],
        "activity": {
          "text": "Synthetic Example Data Generation"
        },
        "policy": [
          "https://synderai.net/synderai-synthetic-data-policy"
        ],
        "agent": [
          {
            "type": {
              "text": "author"
            },
            "who": {
              "reference": "Device/2dfdba90-555f-4524-8e33-5cfeeae84e13"
            }
          }
        ],
        "reason": [
          {
            "text": "Interoperability Testing and Training (non-clinical use)"
          }
        ],
        "text": {
          "status": "generated",
          "div": "<div xmlns=\"http://www.w3.org/1999/xhtml\">Provenance for SYNDERAI Synthetic Example Data Resource</div>"
        },
        "recorded": "2021-06-05T15:25:25Z"
      }
    },
    {
      "fullUrl": "urn:uuid:7461c72c-aec4-4fdb-be29-8128413984b5",
      "resource": {
        "resourceType": "PractitionerRole",
        "id": "7461c72c-aec4-4fdb-be29-8128413984b5",
        "meta": {
          "profile": [
            "http://hl7.eu/fhir/base/StructureDefinition/practitionerRole-eu"
          ]
        },
        "text": {
          "status": "generated",
          "div": "<div xmlns=\"http://www.w3.org/1999/xhtml\">Laboratory Role Id: 7461c72c-aec4-4fdb-be29-8128413984b5</div>"
        },
        "practitioner": {
          "reference": "urn:uuid:c14a8892-ee13-4cf1-9830-0e4e912b57d9"
        }
      }
    },
    {
      "fullUrl": "urn:uuid:c14a8892-ee13-4cf1-9830-0e4e912b57d9",
      "resource": {
        "resourceType": "Practitioner",
        "id": "c14a8892-ee13-4cf1-9830-0e4e912b57d9",
        "meta": {
          "profile": [
            "http://hl7.eu/fhir/base/StructureDefinition/practitioner-eu"
          ]
        },
        "identifier": [
          {
            "assigner": {
              "display": "HL7 Europe"
            },
            "system": "urn:oid:2.16.840.1.113883.2.51.999",
            "value": "8766eef3-26d2-4698-800d-f0d0fc8bad6b"
          }
        ],
        "name": [
          {
            "prefix": [
              "dr"
            ],
            "given": [
              "Ex"
            ],
            "family": "Ample"
          }
        ],
        "address": [
          {
            "line": [
              "Laboratoire Central Européenne",
              "Boulevard du Jardin Botanique 32"
            ],
            "postalCode": "1000",
            "city": "Brussels",
            "country": "Belgium"
          }
        ],
        "text": {
          "status": "generated",
          "div": "<div xmlns=\"http://www.w3.org/1999/xhtml\">Laboratory: Laboratoire Central Européenne, 1000 Brussels, Belgium</div>"
        }
      }
    }
  ],
  "type": "document",
  "timestamp": "2021-06-05T15:25:25Z"
}
