{
  "resourceType": "Bundle",
  "id": "1917b79f-d03c-4c28-898e-a4d107465bc8",
  "meta": {
    "profile": [
      "http://hl7.eu/fhir/laboratory/StructureDefinition/Bundle-eu-lab"
    ]
  },
  "identifier": {
    "assigner": {
      "display": "HL7 Europe"
    },
    "system": "urn:oid:2.16.840.1.113883.2.51.999",
    "value": "e83ee25d-dd1c-46eb-ab1e-884d79892d70"
  },
  "entry": [
    {
      "fullUrl": "urn:uuid:b74e505b-15f7-4430-a9e1-c1a9700e7021",
      "resource": {
        "resourceType": "Composition",
        "id": "b74e505b-15f7-4430-a9e1-c1a9700e7021",
        "meta": {
          "profile": [
            "http://hl7.eu/fhir/laboratory/StructureDefinition/Composition-eu-lab"
          ]
        },
        "identifier": {
          "assigner": {
            "display": "HL7 Europe"
          },
          "system": "urn:oid:2.16.840.1.113883.2.51.999",
          "value": "edd92d6d-3431-40c1-8134-9218e3cb59eb"
        },
        "author": [
          {
            "reference": "urn:uuid:0e594efa-5bcb-4a0e-bc7d-08486b91058d"
          }
        ],
        "category": [
          {
            "coding": [
              {
                "code": "26436-6",
                "system": "http://loinc.org",
                "display": "Laboratory studies (set)"
              }
            ]
          }
        ],
        "type": {
          "coding": [
            {
              "code": "11502-2",
              "system": "http://loinc.org",
              "display": "Laboratory report"
            }
          ],
          "text": "Laboratory Report"
        },
        "section": [
          {
            "code": {
              "coding": [
                {
                  "code": "26436-6",
                  "system": "http://loinc.org",
                  "display": "Laboratory studies (set)"
                }
              ],
              "text": "Laboratory studies"
            },
            "section": [
              {
                "code": {
                  "coding": [
                    {
                      "code": "$18719-5",
                      "system": "http://loinc.org",
                      "display": "Chemistry studies (set)"
                    }
                  ],
                  "text": "Chemistry"
                },
                "entry": [
                  {
                    "reference": "urn:uuid:cfe28369-cab6-4e88-bb26-660c9f3265f6"
                  },
                  {
                    "reference": "urn:uuid:06ee8c7c-3615-4b6f-8a7b-896bc7d8b7a3"
                  },
                  {
                    "reference": "urn:uuid:d630dd12-94e2-4ede-a8a1-4a5d07a212be"
                  },
                  {
                    "reference": "urn:uuid:f2c4ba1c-ab19-48f9-888e-8ce0e0d626fa"
                  },
                  {
                    "reference": "urn:uuid:e46741de-092f-44ee-b1e5-454fec24d8c4"
                  },
                  {
                    "reference": "urn:uuid:d9a50a6d-2031-4832-9191-ef4259fe60a3"
                  },
                  {
                    "reference": "urn:uuid:53854fcf-c58a-4edf-ab0c-1c1f60f89f9d"
                  },
                  {
                    "reference": "urn:uuid:4cb4f351-7d85-4f44-b519-3a2359ea9b1a"
                  },
                  {
                    "reference": "urn:uuid:e9cff10c-b66c-4088-a27f-2ab788fe5e49"
                  },
                  {
                    "reference": "urn:uuid:d406d438-ff88-47d8-897e-6db25e517dca"
                  },
                  {
                    "reference": "urn:uuid:781a4d9f-e126-4c20-86e2-db7fe9e5fedf"
                  },
                  {
                    "reference": "urn:uuid:e81cf6c6-ab3a-4f2d-b6a7-a151e230e538"
                  },
                  {
                    "reference": "urn:uuid:53615a16-a13c-4b16-99cd-c1e5a930502f"
                  },
                  {
                    "reference": "urn:uuid:d6bc0cb4-41fc-4a5f-95e3-2eab1b280638"
                  },
                  {
                    "reference": "urn:uuid:7b0f3508-4c63-4a97-8734-75ebb98f6d7c"
                  },
                  {
                    "reference": "urn:uuid:c2ea2d90-8120-4a40-b80f-8db2437b0fe9"
                  },
                  {
                    "reference": "urn:uuid:4a22c799-c672-4b60-add2-ad1a3650790b"
                  },
                  {
                    "reference": "urn:uuid:beee1678-5a98-40bc-a46e-39751e0e8a85"
                  }
                ],
                "text": {
                  "status": "generated",
                  "div": "<div xmlns=\"http://www.w3.org/1999/xhtml\"><h3>Chemistry</h3><table class=\"hl7__eu__lab__report\"><thead><tr><th>Test</th><th>20-OCT-2023</th><th>Reference&#xA0;Range</th><th>Unit</th></tr></thead><tbody><tr><td>Glucose [Mass/volume] in Serum or Plasma</td><td>98.8</td><td>70 - 140</td><td>mg/dL</td></tr><tr><td>Urea nitrogen [Mass/volume] in Serum or Plasma</td><td>16.9</td><td>7 - 20</td><td>mg/dL</td></tr><tr><td>Creatinine [Mass/volume] in Serum or Plasma</td><td><strong>2.1 H</strong></td><td>0.9 - 1.3</td><td>mg/dL</td></tr><tr><td>Calcium [Mass/volume] in Serum or Plasma</td><td>10.0</td><td>8.5 - 10.5</td><td>mg/dL</td></tr><tr><td>Sodium [Moles/volume] in Serum or Plasma</td><td>143.8</td><td>135 - 145</td><td>mmol/L</td></tr><tr><td>Potassium [Moles/volume] in Serum or Plasma</td><td>5.0</td><td>3.5 - 5.3</td><td>mmol/L</td></tr><tr><td>Chloride [Moles/volume] in Serum or Plasma</td><td><strong>107.1 H</strong></td><td>98 - 107</td><td>mmol/L</td></tr><tr><td>Carbon dioxide, total [Moles/volume] in Serum or Plasma</td><td>23.0</td><td>22 - 33</td><td>mmol/L</td></tr><tr><td>Ketones [Presence] in Urine by Test strip</td><td>Urine ketone test = ++</td><td></td><td></td></tr><tr><td>Hemoglobin A1c/Hemoglobin.total in Blood</td><td><strong>3.0 L</strong></td><td>4.3 - 6</td><td>%</td></tr><tr><td>Glucose [Mass/volume] in Blood</td><td>98.8</td><td>70 - 140</td><td>mg/dL</td></tr><tr><td>Urea nitrogen [Mass/volume] in Blood</td><td>16.9</td><td>7 - 20</td><td>mg/dL</td></tr><tr><td>Creatinine [Mass/volume] in Blood</td><td><strong>3.3 H</strong></td><td>0.9 - 1.3</td><td>mg/dL</td></tr><tr><td>Calcium [Mass/volume] in Blood</td><td>10.0</td><td>8.5 - 10.5</td><td>mg/dL</td></tr><tr><td>Sodium [Moles/volume] in Blood</td><td>143.8</td><td>135 - 145</td><td>mmol/L</td></tr><tr><td>Potassium [Moles/volume] in Blood</td><td>5.0</td><td>3.5 - 5.1</td><td>mmol/L</td></tr><tr><td>Chloride [Moles/volume] in Blood</td><td>107.1</td><td>98 - 108</td><td>mmol/L</td></tr><tr><td>Carbon dioxide, total [Moles/volume] in Blood</td><td>23.0</td><td>22 - 29</td><td>mmol/L</td></tr></tbody></table></div>"
                },
                "title": "Chemistry"
              },
              {
                "code": {
                  "coding": [
                    {
                      "code": "$18729-4",
                      "system": "http://loinc.org",
                      "display": "Urinalysis studies (set)"
                    }
                  ],
                  "text": "Urinalysis"
                },
                "entry": [
                  {
                    "reference": "urn:uuid:a31c7e1f-2a2d-4f08-85bc-b7c7ff6684e5"
                  },
                  {
                    "reference": "urn:uuid:8f5656a1-4b8a-45d5-953a-d113dd44bb08"
                  },
                  {
                    "reference": "urn:uuid:6a73433a-4152-47e9-8294-aa4f6cf66f62"
                  },
                  {
                    "reference": "urn:uuid:6442a52c-bdd7-4576-bc0c-77574ec1a50a"
                  },
                  {
                    "reference": "urn:uuid:9e1fa5fe-89cd-454a-91ee-fe0535f19f69"
                  },
                  {
                    "reference": "urn:uuid:0b71a264-3cf5-4349-a65f-ce6a8ce75a25"
                  },
                  {
                    "reference": "urn:uuid:d4a94396-e985-4ad0-ac5f-5d2e23432e1a"
                  },
                  {
                    "reference": "urn:uuid:dfb4f347-7f1b-45eb-933c-5d0874655518"
                  },
                  {
                    "reference": "urn:uuid:772eed60-ac93-4b7a-8673-6f874d3d7c90"
                  },
                  {
                    "reference": "urn:uuid:6896aa6e-1d73-4f99-ad77-703875129f6a"
                  },
                  {
                    "reference": "urn:uuid:0a82bdfb-5e59-4442-8b61-2df7638e09af"
                  },
                  {
                    "reference": "urn:uuid:e0b30f75-8244-48a9-945a-51cd3d0fa380"
                  }
                ],
                "text": {
                  "status": "generated",
                  "div": "<div xmlns=\"http://www.w3.org/1999/xhtml\"><h3>Urinalysis</h3><table class=\"hl7__eu__lab__report\"><thead><tr><th>Test</th><th>20-OCT-2023</th><th>Reference&#xA0;Range</th><th>Unit</th></tr></thead><tbody><tr><td>Glucose [Mass/volume] in Urine by Test strip</td><td><strong>1.0 H</strong></td><td>0 - 0.8</td><td>mg/dL</td></tr><tr><td>Glucose [Presence] in Urine by Test strip</td><td>++</td><td></td><td></td></tr><tr><td>Bilirubin.total [Mass/volume] in Urine by Test strip</td><td>0.9</td><td>0 - 1.9</td><td>mg/dL</td></tr><tr><td>Bilirubin.total [Presence] in Urine by Test strip</td><td>Finding of bilirubin in urine</td><td></td><td></td></tr><tr><td>Ketones [Mass/volume] in Urine by Test strip</td><td><strong>9.1 H</strong></td><td>0 - 3</td><td>mg/dL</td></tr><tr><td>Specific gravity of Urine by Test strip</td><td><strong>1.0 L</strong></td><td>1.01 - 1.03</td><td>{nominal}</td></tr><tr><td>pH of Urine by Test strip</td><td>5.7</td><td>4.5 - 7.5</td><td>pH</td></tr><tr><td>Protein [Mass/volume] in Urine by Test strip</td><td><strong>308.6 H</strong></td><td>0 - 149</td><td>mg/dL</td></tr><tr><td>Protein [Presence] in Urine by Test strip</td><td>Urine protein test = ++</td><td></td><td></td></tr><tr><td>Nitrite [Presence] in Urine by Test strip</td><td>Urine nitrite negative</td><td></td><td></td></tr><tr><td>Hemoglobin [Presence] in Urine by Test strip</td><td>Urine blood test = negative</td><td></td><td></td></tr><tr><td>Leukocyte esterase [Presence] in Urine by Test strip</td><td>Urine leukocyte test negative</td><td></td><td></td></tr></tbody></table></div>"
                },
                "title": "Urinalysis"
              },
              {
                "code": {
                  "coding": [
                    {
                      "code": "$LP7846-1",
                      "system": "http://loinc.org",
                      "display": "Specimen information"
                    }
                  ],
                  "text": "Specimen information"
                },
                "entry": [
                  {
                    "reference": "urn:uuid:4990d528-2efd-414c-b8b0-79eee512fd26"
                  },
                  {
                    "reference": "urn:uuid:31a8bc34-f8d7-4121-b459-df2add209511"
                  },
                  {
                    "reference": "urn:uuid:f26fdbf7-3545-40d0-9f4e-d769635a2e56"
                  },
                  {
                    "reference": "urn:uuid:f41e2b0f-53e9-490d-bd5b-0dbba1f1014a"
                  }
                ],
                "text": {
                  "status": "generated",
                  "div": "<div xmlns=\"http://www.w3.org/1999/xhtml\"><h3>Specimen information</h3><table class=\"hl7__eu__lab__report\"><thead><tr><th>Test</th><th>20-OCT-2023</th><th>Specimen</th><th></th></tr></thead><tbody><tr><td>Appearance of Urine</td><td>Cloudy urine</td><td>Urine</td><td></td></tr><tr><td>Odor of Urine</td><td>Urine smell ammoniacal</td><td>Urine</td><td></td></tr><tr><td>Clarity of Urine</td><td>Translucent</td><td>Urine</td><td></td></tr><tr><td>Color of Urine</td><td>Brown color</td><td>Urine</td><td></td></tr></tbody></table></div>"
                },
                "title": "Specimen information"
              }
            ],
            "title": "Laboratory Report"
          },
          {
            "text": {
              "status": "generated",
              "div": "<div xmlns=\"http://www.w3.org/1999/xhtml\"><h3>Annotation</h3><table class=\"hl7__eu__lab__report\"><tr><th>Conclusion and Recommendations based on this report and previous findings known to us</th></tr><tr><td>The patient shows elevated creatinine, proteinuria, glycosuria, and ketonuria, suggesting significant renal impairment and possible diabetic or metabolic derangement, despite a low HbA1c. Urine is dilute, cloudy, brown, and ammoniacal, but no evidence of infection (negative nitrites/leukocytes). Further evaluation of renal function, diabetes status, and possible acute or chronic kidney disease is recommended.</td></tr></table></div>"
            },
            "code": {
              "coding": [
                {
                  "system": "http://loinc.org",
                  "code": "48767-8",
                  "display": "Annotation comment"
                }
              ]
            },
            "title": "Annotation comment"
          }
        ],
        "status": "final",
        "subject": {
          "reference": "urn:uuid:0e024290-706c-4724-8008-91ffd4a0d078",
          "display": "Victor Lagarde"
        },
        "date": "2023-10-20T06:48:18Z",
        "title": "Laboratory Report",
        "confidentiality": "N"
      }
    },
    {
      "fullUrl": "urn:uuid:06f7a385-0e28-4da9-b494-da543a5f74f9",
      "resource": {
        "resourceType": "DiagnosticReport",
        "id": "06f7a385-0e28-4da9-b494-da543a5f74f9",
        "meta": {
          "profile": [
            "http://hl7.eu/fhir/laboratory/StructureDefinition/DiagnosticReport-eu-lab"
          ]
        },
        "identifier": [
          {
            "assigner": {
              "display": "HL7 Europe"
            },
            "system": "urn:oid:2.16.840.1.113883.2.51.999",
            "value": "675f9c2c-91fd-4864-b919-525ec99c93e6"
          }
        ],
        "extension": [
          {
            "url": "http://hl7.org/fhir/5.0/StructureDefinition/extension-DiagnosticReport.composition",
            "valueReference": {
              "reference": "urn:uuid:edd92d6d-3431-40c1-8134-9218e3cb59eb"
            }
          }
        ],
        "category": [
          {
            "coding": [
              {
                "code": "26436-6",
                "system": "http://loinc.org",
                "display": "Laboratory studies (set)"
              }
            ]
          }
        ],
        "specimen": [
          {
            "reference": "urn:uuid:b0c26e0d-54bc-47c4-94c1-2327df81f9ff"
          },
          {
            "reference": "urn:uuid:74a36d2a-d6ab-4874-98c2-69df0b3314b0"
          },
          {
            "reference": "urn:uuid:b005e77d-49e5-42b7-8c4b-f545758524c2"
          }
        ],
        "result": [
          {
            "reference": "urn:uuid:cfe28369-cab6-4e88-bb26-660c9f3265f6"
          },
          {
            "reference": "urn:uuid:06ee8c7c-3615-4b6f-8a7b-896bc7d8b7a3"
          },
          {
            "reference": "urn:uuid:d630dd12-94e2-4ede-a8a1-4a5d07a212be"
          },
          {
            "reference": "urn:uuid:f2c4ba1c-ab19-48f9-888e-8ce0e0d626fa"
          },
          {
            "reference": "urn:uuid:e46741de-092f-44ee-b1e5-454fec24d8c4"
          },
          {
            "reference": "urn:uuid:d9a50a6d-2031-4832-9191-ef4259fe60a3"
          },
          {
            "reference": "urn:uuid:53854fcf-c58a-4edf-ab0c-1c1f60f89f9d"
          },
          {
            "reference": "urn:uuid:4cb4f351-7d85-4f44-b519-3a2359ea9b1a"
          },
          {
            "reference": "urn:uuid:4990d528-2efd-414c-b8b0-79eee512fd26"
          },
          {
            "reference": "urn:uuid:31a8bc34-f8d7-4121-b459-df2add209511"
          },
          {
            "reference": "urn:uuid:f26fdbf7-3545-40d0-9f4e-d769635a2e56"
          },
          {
            "reference": "urn:uuid:f41e2b0f-53e9-490d-bd5b-0dbba1f1014a"
          },
          {
            "reference": "urn:uuid:a31c7e1f-2a2d-4f08-85bc-b7c7ff6684e5"
          },
          {
            "reference": "urn:uuid:8f5656a1-4b8a-45d5-953a-d113dd44bb08"
          },
          {
            "reference": "urn:uuid:6a73433a-4152-47e9-8294-aa4f6cf66f62"
          },
          {
            "reference": "urn:uuid:6442a52c-bdd7-4576-bc0c-77574ec1a50a"
          },
          {
            "reference": "urn:uuid:9e1fa5fe-89cd-454a-91ee-fe0535f19f69"
          },
          {
            "reference": "urn:uuid:e9cff10c-b66c-4088-a27f-2ab788fe5e49"
          },
          {
            "reference": "urn:uuid:0b71a264-3cf5-4349-a65f-ce6a8ce75a25"
          },
          {
            "reference": "urn:uuid:d4a94396-e985-4ad0-ac5f-5d2e23432e1a"
          },
          {
            "reference": "urn:uuid:dfb4f347-7f1b-45eb-933c-5d0874655518"
          },
          {
            "reference": "urn:uuid:772eed60-ac93-4b7a-8673-6f874d3d7c90"
          },
          {
            "reference": "urn:uuid:6896aa6e-1d73-4f99-ad77-703875129f6a"
          },
          {
            "reference": "urn:uuid:0a82bdfb-5e59-4442-8b61-2df7638e09af"
          },
          {
            "reference": "urn:uuid:e0b30f75-8244-48a9-945a-51cd3d0fa380"
          },
          {
            "reference": "urn:uuid:d406d438-ff88-47d8-897e-6db25e517dca"
          },
          {
            "reference": "urn:uuid:781a4d9f-e126-4c20-86e2-db7fe9e5fedf"
          },
          {
            "reference": "urn:uuid:e81cf6c6-ab3a-4f2d-b6a7-a151e230e538"
          },
          {
            "reference": "urn:uuid:53615a16-a13c-4b16-99cd-c1e5a930502f"
          },
          {
            "reference": "urn:uuid:d6bc0cb4-41fc-4a5f-95e3-2eab1b280638"
          },
          {
            "reference": "urn:uuid:7b0f3508-4c63-4a97-8734-75ebb98f6d7c"
          },
          {
            "reference": "urn:uuid:c2ea2d90-8120-4a40-b80f-8db2437b0fe9"
          },
          {
            "reference": "urn:uuid:4a22c799-c672-4b60-add2-ad1a3650790b"
          },
          {
            "reference": "urn:uuid:beee1678-5a98-40bc-a46e-39751e0e8a85"
          }
        ],
        "status": "registered",
        "code": {
          "coding": [
            {
              "code": "11502-2",
              "system": "http://loinc.org",
              "display": "Laboratory report"
            }
          ]
        },
        "subject": {
          "reference": "urn:uuid:0e024290-706c-4724-8008-91ffd4a0d078",
          "display": "Victor Lagarde"
        }
      }
    },
    {
      "fullUrl": "urn:uuid:0e024290-706c-4724-8008-91ffd4a0d078",
      "resource": {
        "resourceType": "Patient",
        "id": "0e024290-706c-4724-8008-91ffd4a0d078",
        "meta": {
          "security": [
            {
              "system": "http://terminology.hl7.org/CodeSystem/v3-ActReason",
              "code": "HTEST"
            },
            {
              "system": "http://terminology.hl7.org/CodeSystem/v3-ActReason",
              "code": "TRAIN"
            }
          ],
          "tag": [
            {
              "system": "https://synderai.net/fhir/CodeSystem/tags",
              "code": "synthetic",
              "display": "SYNDERAI Synthetic data"
            }
          ],
          "profile": [
            "http://hl7.eu/fhir/base/StructureDefinition/patient-eu-core"
          ]
        },
        "identifier": [
          {
            "type": {
              "coding": [
                {
                  "code": "PT",
                  "system": "http://terminology.hl7.org/CodeSystem/v2-0203"
                }
              ]
            },
            "system": "http://ec.europa.eu/identifier/eci",
            "value": "9925-001801-9"
          },
          {
            "type": {
              "coding": [
                {
                  "code": "MR",
                  "system": "http://terminology.hl7.org/CodeSystem/v2-0203"
                }
              ]
            },
            "system": "http://local.setting.eu/identifier",
            "value": "22c2dfd0-ac57-8833-2532-848f180896a4"
          }
        ],
        "name": [
          {
            "family": "Lagarde"
          },
          {
            "given": [
              "Victor"
            ]
          },
          {
            "text": "Victor Lagarde"
          }
        ],
        "address": [
          {
            "line": [
              "avenue Robert"
            ],
            "use": "home",
            "type": "physical",
            "postalCode": "80300",
            "city": "Albert",
            "country": "France"
          }
        ],
        "telecom": [
          {
            "system": "phone",
            "value": "0177941801"
          }
        ],
        "extension": [
          {
            "url": "http://hl7.org/fhir/StructureDefinition/patient-nationality",
            "valueCodeableConcept": {
              "coding": [
                {
                  "code": "FR",
                  "system": "http://hl7.org/fhir/ValueSet/country"
                }
              ]
            }
          }
        ],
        "text": {
          "status": "generated",
          "div": "<div xmlns=\"http://www.w3.org/1999/xhtml\"><table class=\"hl7__ips\"><tr><td>Victor Lagarde</td><td>male</td><td>31-Aug-1939</td></tr></table></div>"
        },
        "gender": "male",
        "birthDate": "1939-08-31"
      }
    },
    {
      "fullUrl": "urn:uuid:5b697b7a-c7bf-401b-8ff7-a83356f41afe",
      "resource": {
        "resourceType": "ServiceRequest",
        "id": "5b697b7a-c7bf-401b-8ff7-a83356f41afe",
        "meta": {
          "profile": [
            "http://hl7.eu/fhir/laboratory/StructureDefinition/ServiceRequest-eu-lab"
          ]
        },
        "identifier": [
          {
            "system": "http://example.org",
            "value": "21b7802d-2ea0-4a3d-a28e-b274d6df0c6b"
          }
        ],
        "specimen": [
          {
            "reference": "urn:uuid:b0c26e0d-54bc-47c4-94c1-2327df81f9ff"
          },
          {
            "reference": "urn:uuid:74a36d2a-d6ab-4874-98c2-69df0b3314b0"
          },
          {
            "reference": "urn:uuid:b005e77d-49e5-42b7-8c4b-f545758524c2"
          }
        ],
        "reasonCode": [
          {
            "coding": [
              {
                "code": "433144002",
                "system": "http://snomed.info/sct",
                "display": "Chronic kidney disease stage 3"
              }
            ]
          },
          {
            "coding": [
              {
                "code": "157141000119108",
                "system": "http://snomed.info/sct",
                "display": "Proteinuria due to type 2 diabetes mellitus"
              }
            ]
          },
          {
            "coding": [
              {
                "code": "431856006",
                "system": "http://snomed.info/sct",
                "display": "Chronic kidney disease stage 2"
              }
            ]
          },
          {
            "coding": [
              {
                "code": "90781000119102",
                "system": "http://snomed.info/sct",
                "display": "Microalbuminuria due to type 2 diabetes mellitus"
              }
            ]
          },
          {
            "coding": [
              {
                "code": "127013003",
                "system": "http://snomed.info/sct",
                "display": "Disorder of kidney due to diabetes mellitus"
              }
            ]
          },
          {
            "coding": [
              {
                "code": "431855005",
                "system": "http://snomed.info/sct",
                "display": "Chronic kidney disease stage 1"
              }
            ]
          },
          {
            "coding": [
              {
                "code": "55822004",
                "system": "http://snomed.info/sct",
                "display": "Hyperlipidemia"
              }
            ]
          },
          {
            "coding": [
              {
                "code": "59621000",
                "system": "http://snomed.info/sct",
                "display": "Essential hypertension"
              }
            ]
          },
          {
            "coding": [
              {
                "code": "237602007",
                "system": "http://snomed.info/sct",
                "display": "Metabolic syndrome X"
              }
            ]
          },
          {
            "coding": [
              {
                "code": "414545008",
                "system": "http://snomed.info/sct",
                "display": "Ischemic heart disease"
              }
            ]
          },
          {
            "coding": [
              {
                "code": "40055000",
                "system": "http://snomed.info/sct",
                "display": "Chronic sinusitis"
              }
            ]
          },
          {
            "coding": [
              {
                "code": "15777000",
                "system": "http://snomed.info/sct",
                "display": "Prediabetes"
              }
            ]
          },
          {
            "coding": [
              {
                "code": "271737000",
                "system": "http://snomed.info/sct",
                "display": "Anemia"
              }
            ]
          }
        ],
        "status": "active",
        "intent": "order",
        "code": {
          "coding": [
            {
              "code": "108252007",
              "system": "http://snomed.info/sct",
              "display": "Laboratory procedure"
            }
          ]
        },
        "subject": {
          "reference": "urn:uuid:0e024290-706c-4724-8008-91ffd4a0d078",
          "display": "Victor Lagarde"
        },
        "requester": {
          "reference": "urn:uuid:87beaeaa-9aed-4cbc-9b70-dd9f4542a999"
        }
      }
    },
    {
      "fullUrl": "urn:uuid:87beaeaa-9aed-4cbc-9b70-dd9f4542a999",
      "resource": {
        "resourceType": "PractitionerRole",
        "id": "87beaeaa-9aed-4cbc-9b70-dd9f4542a999",
        "meta": {
          "profile": [
            "http://hl7.eu/fhir/base/StructureDefinition/practitionerRole-eu"
          ]
        },
        "text": {
          "status": "generated",
          "div": "<div xmlns=\"http://www.w3.org/1999/xhtml\">Provider Role Id: 87beaeaa-9aed-4cbc-9b70-dd9f4542a999</div>"
        },
        "organization": {
          "reference": "urn:uuid:63de07cf-6b2d-4827-aa3f-447e28525cb4"
        }
      }
    },
    {
      "fullUrl": "urn:uuid:63de07cf-6b2d-4827-aa3f-447e28525cb4",
      "resource": {
        "resourceType": "Organization",
        "id": "63de07cf-6b2d-4827-aa3f-447e28525cb4",
        "meta": {
          "profile": [
            "http://hl7.eu/fhir/base/StructureDefinition/organization-eu"
          ]
        },
        "identifier": [
          {
            "assigner": {
              "display": "HL7 Europe"
            },
            "system": "urn:oid:2.16.840.1.113883.2.51.999",
            "value": "746acafd-3b81-4ea6-a51e-76752b555cfd"
          }
        ],
        "address": [
          {
            "city": "Auxerre",
            "postalCode": "89000",
            "country": "France"
          }
        ],
        "text": {
          "status": "generated",
          "div": "<div xmlns=\"http://www.w3.org/1999/xhtml\">Provider Organization: Thiriot Didier (Cardiologie)</div>"
        },
        "name": "Thiriot Didier (Cardiologie)"
      }
    },
    {
      "fullUrl": "urn:uuid:b0c26e0d-54bc-47c4-94c1-2327df81f9ff",
      "resource": {
        "resourceType": "Specimen",
        "id": "b0c26e0d-54bc-47c4-94c1-2327df81f9ff",
        "meta": {
          "profile": [
            "http://hl7.eu/fhir/laboratory/StructureDefinition/Specimen-eu-lab"
          ]
        },
        "collection": {
          "collectedDateTime": "2023-10-20"
        },
        "text": {
          "status": "generated",
          "div": "<div xmlns=\"http://www.w3.org/1999/xhtml\"><table class=\"hl7__eu__lab__report\"><tr><th>Specimen</th><th>Collection Date</th></tr><tr><td>Acellular blood (serum or plasma) specimen</td><td><span class=\"nb\">20-Oct-2023</span></td></tr></table></div>"
        },
        "type": {
          "coding": [
            {
              "code": "122592007",
              "system": "http://snomed.info/sct",
              "display": "Acellular blood (serum or plasma) specimen"
            }
          ]
        }
      }
    },
    {
      "fullUrl": "urn:uuid:74a36d2a-d6ab-4874-98c2-69df0b3314b0",
      "resource": {
        "resourceType": "Specimen",
        "id": "74a36d2a-d6ab-4874-98c2-69df0b3314b0",
        "meta": {
          "profile": [
            "http://hl7.eu/fhir/laboratory/StructureDefinition/Specimen-eu-lab"
          ]
        },
        "collection": {
          "collectedDateTime": "2023-10-20"
        },
        "text": {
          "status": "generated",
          "div": "<div xmlns=\"http://www.w3.org/1999/xhtml\"><table class=\"hl7__eu__lab__report\"><tr><th>Specimen</th><th>Collection Date</th></tr><tr><td>Urine specimen</td><td><span class=\"nb\">20-Oct-2023</span></td></tr></table></div>"
        },
        "type": {
          "coding": [
            {
              "code": "122575003",
              "system": "http://snomed.info/sct",
              "display": "Urine specimen"
            }
          ]
        }
      }
    },
    {
      "fullUrl": "urn:uuid:b005e77d-49e5-42b7-8c4b-f545758524c2",
      "resource": {
        "resourceType": "Specimen",
        "id": "b005e77d-49e5-42b7-8c4b-f545758524c2",
        "meta": {
          "profile": [
            "http://hl7.eu/fhir/laboratory/StructureDefinition/Specimen-eu-lab"
          ]
        },
        "collection": {
          "collectedDateTime": "2023-10-20"
        },
        "text": {
          "status": "generated",
          "div": "<div xmlns=\"http://www.w3.org/1999/xhtml\"><table class=\"hl7__eu__lab__report\"><tr><th>Specimen</th><th>Collection Date</th></tr><tr><td>Whole blood specimen (specimen)</td><td><span class=\"nb\">20-Oct-2023</span></td></tr></table></div>"
        },
        "type": {
          "coding": [
            {
              "code": "258580003",
              "system": "http://snomed.info/sct",
              "display": "Whole blood specimen (specimen)"
            }
          ]
        }
      }
    },
    {
      "fullUrl": "urn:uuid:cfe28369-cab6-4e88-bb26-660c9f3265f6",
      "resource": {
        "resourceType": "Observation",
        "id": "cfe28369-cab6-4e88-bb26-660c9f3265f6",
        "meta": {
          "profile": [
            "http://hl7.eu/fhir/laboratory/StructureDefinition/Observation-resultslab-eu-lab"
          ]
        },
        "performer": [
          {
            "display": "The Central European Lab"
          }
        ],
        "category": [
          {
            "coding": [
              {
                "system": "http://terminology.hl7.org/CodeSystem/observation-category",
                "code": "laboratory"
              }
            ]
          }
        ],
        "code": {
          "coding": [
            {
              "code": "2345-7",
              "system": "http://loinc.org",
              "display": "Glucose [Mass/volume] in Serum or Plasma"
            }
          ],
          "text": "Glucose [Mass/volume] in Serum or Plasma"
        },
        "valueQuantity": {
          "system": "http://unitsofmeasure.org",
          "value": 98.8,
          "unit": "mg/dL",
          "code": "mg/dL"
        },
        "referenceRange": [
          {
            "low": {
              "value": 70,
              "code": "mg/dL",
              "system": "http://unitsofmeasure.org"
            }
          },
          {
            "high": {
              "value": 140,
              "code": "mg/dL",
              "system": "http://unitsofmeasure.org"
            }
          }
        ],
        "text": {
          "status": "generated",
          "div": "<div xmlns=\"http://www.w3.org/1999/xhtml\"><table class=\"hl7__eu__lab__report\"><tr><th>Test</th><th>20-Oct-2023</th><th>Reference&#xA0;Range</th><th>Unit</th></tr><tr><td>Glucose [Mass/volume] in Serum or Plasma</td><td>98.8</td><td>70 - 140</td><td></td><td>mg/dL</td></tr></table></div>"
        },
        "status": "final",
        "subject": {
          "reference": "urn:uuid:0e024290-706c-4724-8008-91ffd4a0d078",
          "display": "Victor Lagarde"
        },
        "effectiveDateTime": "2023-10-20T04:48:18Z",
        "specimen": {
          "reference": "urn:uuid:b0c26e0d-54bc-47c4-94c1-2327df81f9ff"
        }
      }
    },
    {
      "fullUrl": "urn:uuid:06ee8c7c-3615-4b6f-8a7b-896bc7d8b7a3",
      "resource": {
        "resourceType": "Observation",
        "id": "06ee8c7c-3615-4b6f-8a7b-896bc7d8b7a3",
        "meta": {
          "profile": [
            "http://hl7.eu/fhir/laboratory/StructureDefinition/Observation-resultslab-eu-lab"
          ]
        },
        "performer": [
          {
            "display": "The Central European Lab"
          }
        ],
        "category": [
          {
            "coding": [
              {
                "system": "http://terminology.hl7.org/CodeSystem/observation-category",
                "code": "laboratory"
              }
            ]
          }
        ],
        "code": {
          "coding": [
            {
              "code": "3094-0",
              "system": "http://loinc.org",
              "display": "Urea nitrogen [Mass/volume] in Serum or Plasma"
            }
          ],
          "text": "Urea nitrogen [Mass/volume] in Serum or Plasma"
        },
        "valueQuantity": {
          "system": "http://unitsofmeasure.org",
          "value": 16.9,
          "unit": "mg/dL",
          "code": "mg/dL"
        },
        "referenceRange": [
          {
            "low": {
              "value": 7,
              "code": "mg/dL",
              "system": "http://unitsofmeasure.org"
            }
          },
          {
            "high": {
              "value": 20,
              "code": "mg/dL",
              "system": "http://unitsofmeasure.org"
            }
          }
        ],
        "text": {
          "status": "generated",
          "div": "<div xmlns=\"http://www.w3.org/1999/xhtml\"><table class=\"hl7__eu__lab__report\"><tr><th>Test</th><th>20-Oct-2023</th><th>Reference&#xA0;Range</th><th>Unit</th></tr><tr><td>Urea nitrogen [Mass/volume] in Serum or Plasma</td><td>16.9</td><td>7 - 20</td><td></td><td>mg/dL</td></tr></table></div>"
        },
        "status": "final",
        "subject": {
          "reference": "urn:uuid:0e024290-706c-4724-8008-91ffd4a0d078",
          "display": "Victor Lagarde"
        },
        "effectiveDateTime": "2023-10-20T04:48:18Z",
        "specimen": {
          "reference": "urn:uuid:b0c26e0d-54bc-47c4-94c1-2327df81f9ff"
        }
      }
    },
    {
      "fullUrl": "urn:uuid:d630dd12-94e2-4ede-a8a1-4a5d07a212be",
      "resource": {
        "resourceType": "Observation",
        "id": "d630dd12-94e2-4ede-a8a1-4a5d07a212be",
        "meta": {
          "profile": [
            "http://hl7.eu/fhir/laboratory/StructureDefinition/Observation-resultslab-eu-lab"
          ]
        },
        "performer": [
          {
            "display": "The Central European Lab"
          }
        ],
        "category": [
          {
            "coding": [
              {
                "system": "http://terminology.hl7.org/CodeSystem/observation-category",
                "code": "laboratory"
              }
            ]
          }
        ],
        "code": {
          "coding": [
            {
              "code": "2160-0",
              "system": "http://loinc.org",
              "display": "Creatinine [Mass/volume] in Serum or Plasma"
            }
          ],
          "text": "Creatinine [Mass/volume] in Serum or Plasma"
        },
        "valueQuantity": {
          "system": "http://unitsofmeasure.org",
          "value": 2.1,
          "unit": "mg/dL",
          "code": "mg/dL"
        },
        "referenceRange": [
          {
            "low": {
              "value": 0.9,
              "code": "mg/dL",
              "system": "http://unitsofmeasure.org"
            }
          },
          {
            "high": {
              "value": 1.3,
              "code": "mg/dL",
              "system": "http://unitsofmeasure.org"
            }
          }
        ],
        "interpretation": [
          {
            "coding": [
              {
                "code": "H",
                "system": "http://terminology.hl7.org/CodeSystem/v3-ObservationInterpretation",
                "display": "High"
              }
            ]
          }
        ],
        "text": {
          "status": "generated",
          "div": "<div xmlns=\"http://www.w3.org/1999/xhtml\"><table class=\"hl7__eu__lab__report\"><tr><th>Test</th><th>20-Oct-2023</th><th>Reference&#xA0;Range</th><th>Unit</th></tr><tr><td>Creatinine [Mass/volume] in Serum or Plasma</td><td>2.1</td><td>0.9 - 1.3</td><td>H</td><td>mg/dL</td></tr></table></div>"
        },
        "status": "final",
        "subject": {
          "reference": "urn:uuid:0e024290-706c-4724-8008-91ffd4a0d078",
          "display": "Victor Lagarde"
        },
        "effectiveDateTime": "2023-10-20T04:48:18Z",
        "specimen": {
          "reference": "urn:uuid:b0c26e0d-54bc-47c4-94c1-2327df81f9ff"
        }
      }
    },
    {
      "fullUrl": "urn:uuid:f2c4ba1c-ab19-48f9-888e-8ce0e0d626fa",
      "resource": {
        "resourceType": "Observation",
        "id": "f2c4ba1c-ab19-48f9-888e-8ce0e0d626fa",
        "meta": {
          "profile": [
            "http://hl7.eu/fhir/laboratory/StructureDefinition/Observation-resultslab-eu-lab"
          ]
        },
        "performer": [
          {
            "display": "The Central European Lab"
          }
        ],
        "category": [
          {
            "coding": [
              {
                "system": "http://terminology.hl7.org/CodeSystem/observation-category",
                "code": "laboratory"
              }
            ]
          }
        ],
        "code": {
          "coding": [
            {
              "code": "17861-6",
              "system": "http://loinc.org",
              "display": "Calcium [Mass/volume] in Serum or Plasma"
            }
          ],
          "text": "Calcium [Mass/volume] in Serum or Plasma"
        },
        "valueQuantity": {
          "system": "http://unitsofmeasure.org",
          "value": 10,
          "unit": "mg/dL",
          "code": "mg/dL"
        },
        "referenceRange": [
          {
            "low": {
              "value": 8.5,
              "code": "mg/dL",
              "system": "http://unitsofmeasure.org"
            }
          },
          {
            "high": {
              "value": 10.5,
              "code": "mg/dL",
              "system": "http://unitsofmeasure.org"
            }
          }
        ],
        "text": {
          "status": "generated",
          "div": "<div xmlns=\"http://www.w3.org/1999/xhtml\"><table class=\"hl7__eu__lab__report\"><tr><th>Test</th><th>20-Oct-2023</th><th>Reference&#xA0;Range</th><th>Unit</th></tr><tr><td>Calcium [Mass/volume] in Serum or Plasma</td><td>10.0</td><td>8.5 - 10.5</td><td></td><td>mg/dL</td></tr></table></div>"
        },
        "status": "final",
        "subject": {
          "reference": "urn:uuid:0e024290-706c-4724-8008-91ffd4a0d078",
          "display": "Victor Lagarde"
        },
        "effectiveDateTime": "2023-10-20T04:48:18Z",
        "specimen": {
          "reference": "urn:uuid:b0c26e0d-54bc-47c4-94c1-2327df81f9ff"
        }
      }
    },
    {
      "fullUrl": "urn:uuid:e46741de-092f-44ee-b1e5-454fec24d8c4",
      "resource": {
        "resourceType": "Observation",
        "id": "e46741de-092f-44ee-b1e5-454fec24d8c4",
        "meta": {
          "profile": [
            "http://hl7.eu/fhir/laboratory/StructureDefinition/Observation-resultslab-eu-lab"
          ]
        },
        "performer": [
          {
            "display": "The Central European Lab"
          }
        ],
        "category": [
          {
            "coding": [
              {
                "system": "http://terminology.hl7.org/CodeSystem/observation-category",
                "code": "laboratory"
              }
            ]
          }
        ],
        "code": {
          "coding": [
            {
              "code": "2951-2",
              "system": "http://loinc.org",
              "display": "Sodium [Moles/volume] in Serum or Plasma"
            }
          ],
          "text": "Sodium [Moles/volume] in Serum or Plasma"
        },
        "valueQuantity": {
          "system": "http://unitsofmeasure.org",
          "value": 143.8,
          "unit": "mmol/L",
          "code": "mmol/L"
        },
        "referenceRange": [
          {
            "low": {
              "value": 135,
              "code": "mmol/L",
              "system": "http://unitsofmeasure.org"
            }
          },
          {
            "high": {
              "value": 145,
              "code": "mmol/L",
              "system": "http://unitsofmeasure.org"
            }
          }
        ],
        "text": {
          "status": "generated",
          "div": "<div xmlns=\"http://www.w3.org/1999/xhtml\"><table class=\"hl7__eu__lab__report\"><tr><th>Test</th><th>20-Oct-2023</th><th>Reference&#xA0;Range</th><th>Unit</th></tr><tr><td>Sodium [Moles/volume] in Serum or Plasma</td><td>143.8</td><td>135 - 145</td><td></td><td>mmol/L</td></tr></table></div>"
        },
        "status": "final",
        "subject": {
          "reference": "urn:uuid:0e024290-706c-4724-8008-91ffd4a0d078",
          "display": "Victor Lagarde"
        },
        "effectiveDateTime": "2023-10-20T04:48:18Z",
        "specimen": {
          "reference": "urn:uuid:b0c26e0d-54bc-47c4-94c1-2327df81f9ff"
        }
      }
    },
    {
      "fullUrl": "urn:uuid:d9a50a6d-2031-4832-9191-ef4259fe60a3",
      "resource": {
        "resourceType": "Observation",
        "id": "d9a50a6d-2031-4832-9191-ef4259fe60a3",
        "meta": {
          "profile": [
            "http://hl7.eu/fhir/laboratory/StructureDefinition/Observation-resultslab-eu-lab"
          ]
        },
        "performer": [
          {
            "display": "The Central European Lab"
          }
        ],
        "category": [
          {
            "coding": [
              {
                "system": "http://terminology.hl7.org/CodeSystem/observation-category",
                "code": "laboratory"
              }
            ]
          }
        ],
        "code": {
          "coding": [
            {
              "code": "2823-3",
              "system": "http://loinc.org",
              "display": "Potassium [Moles/volume] in Serum or Plasma"
            }
          ],
          "text": "Potassium [Moles/volume] in Serum or Plasma"
        },
        "valueQuantity": {
          "system": "http://unitsofmeasure.org",
          "value": 5,
          "unit": "mmol/L",
          "code": "mmol/L"
        },
        "referenceRange": [
          {
            "low": {
              "value": 3.5,
              "code": "mmol/L",
              "system": "http://unitsofmeasure.org"
            }
          },
          {
            "high": {
              "value": 5.3,
              "code": "mmol/L",
              "system": "http://unitsofmeasure.org"
            }
          }
        ],
        "text": {
          "status": "generated",
          "div": "<div xmlns=\"http://www.w3.org/1999/xhtml\"><table class=\"hl7__eu__lab__report\"><tr><th>Test</th><th>20-Oct-2023</th><th>Reference&#xA0;Range</th><th>Unit</th></tr><tr><td>Potassium [Moles/volume] in Serum or Plasma</td><td>5.0</td><td>3.5 - 5.3</td><td></td><td>mmol/L</td></tr></table></div>"
        },
        "status": "final",
        "subject": {
          "reference": "urn:uuid:0e024290-706c-4724-8008-91ffd4a0d078",
          "display": "Victor Lagarde"
        },
        "effectiveDateTime": "2023-10-20T04:48:18Z",
        "specimen": {
          "reference": "urn:uuid:b0c26e0d-54bc-47c4-94c1-2327df81f9ff"
        }
      }
    },
    {
      "fullUrl": "urn:uuid:53854fcf-c58a-4edf-ab0c-1c1f60f89f9d",
      "resource": {
        "resourceType": "Observation",
        "id": "53854fcf-c58a-4edf-ab0c-1c1f60f89f9d",
        "meta": {
          "profile": [
            "http://hl7.eu/fhir/laboratory/StructureDefinition/Observation-resultslab-eu-lab"
          ]
        },
        "performer": [
          {
            "display": "The Central European Lab"
          }
        ],
        "category": [
          {
            "coding": [
              {
                "system": "http://terminology.hl7.org/CodeSystem/observation-category",
                "code": "laboratory"
              }
            ]
          }
        ],
        "code": {
          "coding": [
            {
              "code": "2075-0",
              "system": "http://loinc.org",
              "display": "Chloride [Moles/volume] in Serum or Plasma"
            }
          ],
          "text": "Chloride [Moles/volume] in Serum or Plasma"
        },
        "valueQuantity": {
          "system": "http://unitsofmeasure.org",
          "value": 107.1,
          "unit": "mmol/L",
          "code": "mmol/L"
        },
        "referenceRange": [
          {
            "low": {
              "value": 98,
              "code": "mmol/L",
              "system": "http://unitsofmeasure.org"
            }
          },
          {
            "high": {
              "value": 107,
              "code": "mmol/L",
              "system": "http://unitsofmeasure.org"
            }
          }
        ],
        "interpretation": [
          {
            "coding": [
              {
                "code": "H",
                "system": "http://terminology.hl7.org/CodeSystem/v3-ObservationInterpretation",
                "display": "High"
              }
            ]
          }
        ],
        "text": {
          "status": "generated",
          "div": "<div xmlns=\"http://www.w3.org/1999/xhtml\"><table class=\"hl7__eu__lab__report\"><tr><th>Test</th><th>20-Oct-2023</th><th>Reference&#xA0;Range</th><th>Unit</th></tr><tr><td>Chloride [Moles/volume] in Serum or Plasma</td><td>107.1</td><td>98 - 107</td><td>H</td><td>mmol/L</td></tr></table></div>"
        },
        "status": "final",
        "subject": {
          "reference": "urn:uuid:0e024290-706c-4724-8008-91ffd4a0d078",
          "display": "Victor Lagarde"
        },
        "effectiveDateTime": "2023-10-20T04:48:18Z",
        "specimen": {
          "reference": "urn:uuid:b0c26e0d-54bc-47c4-94c1-2327df81f9ff"
        }
      }
    },
    {
      "fullUrl": "urn:uuid:4cb4f351-7d85-4f44-b519-3a2359ea9b1a",
      "resource": {
        "resourceType": "Observation",
        "id": "4cb4f351-7d85-4f44-b519-3a2359ea9b1a",
        "meta": {
          "profile": [
            "http://hl7.eu/fhir/laboratory/StructureDefinition/Observation-resultslab-eu-lab"
          ]
        },
        "performer": [
          {
            "display": "The Central European Lab"
          }
        ],
        "category": [
          {
            "coding": [
              {
                "system": "http://terminology.hl7.org/CodeSystem/observation-category",
                "code": "laboratory"
              }
            ]
          }
        ],
        "code": {
          "coding": [
            {
              "code": "2028-9",
              "system": "http://loinc.org",
              "display": "Carbon dioxide, total [Moles/volume] in Serum or Plasma"
            }
          ],
          "text": "Carbon dioxide, total [Moles/volume] in Serum or Plasma"
        },
        "valueQuantity": {
          "system": "http://unitsofmeasure.org",
          "value": 23,
          "unit": "mmol/L",
          "code": "mmol/L"
        },
        "referenceRange": [
          {
            "low": {
              "value": 22,
              "code": "mmol/L",
              "system": "http://unitsofmeasure.org"
            }
          },
          {
            "high": {
              "value": 33,
              "code": "mmol/L",
              "system": "http://unitsofmeasure.org"
            }
          }
        ],
        "text": {
          "status": "generated",
          "div": "<div xmlns=\"http://www.w3.org/1999/xhtml\"><table class=\"hl7__eu__lab__report\"><tr><th>Test</th><th>20-Oct-2023</th><th>Reference&#xA0;Range</th><th>Unit</th></tr><tr><td>Carbon dioxide, total [Moles/volume] in Serum or Plasma</td><td>23.0</td><td>22 - 33</td><td></td><td>mmol/L</td></tr></table></div>"
        },
        "status": "final",
        "subject": {
          "reference": "urn:uuid:0e024290-706c-4724-8008-91ffd4a0d078",
          "display": "Victor Lagarde"
        },
        "effectiveDateTime": "2023-10-20T04:48:18Z",
        "specimen": {
          "reference": "urn:uuid:b0c26e0d-54bc-47c4-94c1-2327df81f9ff"
        }
      }
    },
    {
      "fullUrl": "urn:uuid:4990d528-2efd-414c-b8b0-79eee512fd26",
      "resource": {
        "resourceType": "Observation",
        "id": "4990d528-2efd-414c-b8b0-79eee512fd26",
        "meta": {
          "profile": [
            "http://hl7.eu/fhir/laboratory/StructureDefinition/Observation-resultslab-eu-lab"
          ]
        },
        "performer": [
          {
            "display": "The Central European Lab"
          }
        ],
        "category": [
          {
            "coding": [
              {
                "system": "http://terminology.hl7.org/CodeSystem/observation-category",
                "code": "laboratory"
              }
            ]
          }
        ],
        "code": {
          "coding": [
            {
              "code": "5767-9",
              "system": "http://loinc.org",
              "display": "Appearance of Urine"
            }
          ],
          "text": "Appearance of Urine"
        },
        "text": {
          "status": "generated",
          "div": "<div xmlns=\"http://www.w3.org/1999/xhtml\"><table class=\"hl7__eu__lab__report\"><tr><th>Test</th><th>20-Oct-2023</th><th>Reference&#xA0;Range</th><th>Unit</th></tr><tr><td>Appearance of Urine</td></tr></table></div>"
        },
        "status": "final",
        "subject": {
          "reference": "urn:uuid:0e024290-706c-4724-8008-91ffd4a0d078",
          "display": "Victor Lagarde"
        },
        "effectiveDateTime": "2023-10-20T04:48:18Z",
        "specimen": {
          "reference": "urn:uuid:74a36d2a-d6ab-4874-98c2-69df0b3314b0"
        }
      }
    },
    {
      "fullUrl": "urn:uuid:31a8bc34-f8d7-4121-b459-df2add209511",
      "resource": {
        "resourceType": "Observation",
        "id": "31a8bc34-f8d7-4121-b459-df2add209511",
        "meta": {
          "profile": [
            "http://hl7.eu/fhir/laboratory/StructureDefinition/Observation-resultslab-eu-lab"
          ]
        },
        "performer": [
          {
            "display": "The Central European Lab"
          }
        ],
        "category": [
          {
            "coding": [
              {
                "system": "http://terminology.hl7.org/CodeSystem/observation-category",
                "code": "laboratory"
              }
            ]
          }
        ],
        "code": {
          "coding": [
            {
              "code": "34533-0",
              "system": "http://loinc.org",
              "display": "Odor of Urine"
            }
          ],
          "text": "Odor of Urine"
        },
        "text": {
          "status": "generated",
          "div": "<div xmlns=\"http://www.w3.org/1999/xhtml\"><table class=\"hl7__eu__lab__report\"><tr><th>Test</th><th>20-Oct-2023</th><th>Reference&#xA0;Range</th><th>Unit</th></tr><tr><td>Odor of Urine</td></tr></table></div>"
        },
        "status": "final",
        "subject": {
          "reference": "urn:uuid:0e024290-706c-4724-8008-91ffd4a0d078",
          "display": "Victor Lagarde"
        },
        "effectiveDateTime": "2023-10-20T04:48:18Z",
        "specimen": {
          "reference": "urn:uuid:74a36d2a-d6ab-4874-98c2-69df0b3314b0"
        }
      }
    },
    {
      "fullUrl": "urn:uuid:f26fdbf7-3545-40d0-9f4e-d769635a2e56",
      "resource": {
        "resourceType": "Observation",
        "id": "f26fdbf7-3545-40d0-9f4e-d769635a2e56",
        "meta": {
          "profile": [
            "http://hl7.eu/fhir/laboratory/StructureDefinition/Observation-resultslab-eu-lab"
          ]
        },
        "performer": [
          {
            "display": "The Central European Lab"
          }
        ],
        "category": [
          {
            "coding": [
              {
                "system": "http://terminology.hl7.org/CodeSystem/observation-category",
                "code": "laboratory"
              }
            ]
          }
        ],
        "code": {
          "coding": [
            {
              "code": "32167-9",
              "system": "http://loinc.org",
              "display": "Clarity of Urine"
            }
          ],
          "text": "Clarity of Urine"
        },
        "text": {
          "status": "generated",
          "div": "<div xmlns=\"http://www.w3.org/1999/xhtml\"><table class=\"hl7__eu__lab__report\"><tr><th>Test</th><th>20-Oct-2023</th><th>Reference&#xA0;Range</th><th>Unit</th></tr><tr><td>Clarity of Urine</td></tr></table></div>"
        },
        "status": "final",
        "subject": {
          "reference": "urn:uuid:0e024290-706c-4724-8008-91ffd4a0d078",
          "display": "Victor Lagarde"
        },
        "effectiveDateTime": "2023-10-20T04:48:18Z",
        "specimen": {
          "reference": "urn:uuid:74a36d2a-d6ab-4874-98c2-69df0b3314b0"
        }
      }
    },
    {
      "fullUrl": "urn:uuid:f41e2b0f-53e9-490d-bd5b-0dbba1f1014a",
      "resource": {
        "resourceType": "Observation",
        "id": "f41e2b0f-53e9-490d-bd5b-0dbba1f1014a",
        "meta": {
          "profile": [
            "http://hl7.eu/fhir/laboratory/StructureDefinition/Observation-resultslab-eu-lab"
          ]
        },
        "performer": [
          {
            "display": "The Central European Lab"
          }
        ],
        "category": [
          {
            "coding": [
              {
                "system": "http://terminology.hl7.org/CodeSystem/observation-category",
                "code": "laboratory"
              }
            ]
          }
        ],
        "code": {
          "coding": [
            {
              "code": "5778-6",
              "system": "http://loinc.org",
              "display": "Color of Urine"
            }
          ],
          "text": "Color of Urine"
        },
        "text": {
          "status": "generated",
          "div": "<div xmlns=\"http://www.w3.org/1999/xhtml\"><table class=\"hl7__eu__lab__report\"><tr><th>Test</th><th>20-Oct-2023</th><th>Reference&#xA0;Range</th><th>Unit</th></tr><tr><td>Color of Urine</td></tr></table></div>"
        },
        "status": "final",
        "subject": {
          "reference": "urn:uuid:0e024290-706c-4724-8008-91ffd4a0d078",
          "display": "Victor Lagarde"
        },
        "effectiveDateTime": "2023-10-20T04:48:18Z",
        "specimen": {
          "reference": "urn:uuid:74a36d2a-d6ab-4874-98c2-69df0b3314b0"
        }
      }
    },
    {
      "fullUrl": "urn:uuid:a31c7e1f-2a2d-4f08-85bc-b7c7ff6684e5",
      "resource": {
        "resourceType": "Observation",
        "id": "a31c7e1f-2a2d-4f08-85bc-b7c7ff6684e5",
        "meta": {
          "profile": [
            "http://hl7.eu/fhir/laboratory/StructureDefinition/Observation-resultslab-eu-lab"
          ]
        },
        "performer": [
          {
            "display": "The Central European Lab"
          }
        ],
        "category": [
          {
            "coding": [
              {
                "system": "http://terminology.hl7.org/CodeSystem/observation-category",
                "code": "laboratory"
              }
            ]
          }
        ],
        "code": {
          "coding": [
            {
              "code": "5792-7",
              "system": "http://loinc.org",
              "display": "Glucose [Mass/volume] in Urine by Test strip"
            }
          ],
          "text": "Glucose [Mass/volume] in Urine by Test strip"
        },
        "valueQuantity": {
          "system": "http://unitsofmeasure.org",
          "value": 1,
          "unit": "mg/dL",
          "code": "mg/dL"
        },
        "referenceRange": [
          {
            "low": {
              "value": 0,
              "code": "mg/dL",
              "system": "http://unitsofmeasure.org"
            }
          },
          {
            "high": {
              "value": 0.8,
              "code": "mg/dL",
              "system": "http://unitsofmeasure.org"
            }
          }
        ],
        "interpretation": [
          {
            "coding": [
              {
                "code": "H",
                "system": "http://terminology.hl7.org/CodeSystem/v3-ObservationInterpretation",
                "display": "High"
              }
            ]
          }
        ],
        "text": {
          "status": "generated",
          "div": "<div xmlns=\"http://www.w3.org/1999/xhtml\"><table class=\"hl7__eu__lab__report\"><tr><th>Test</th><th>20-Oct-2023</th><th>Reference&#xA0;Range</th><th>Unit</th></tr><tr><td>Glucose [Mass/volume] in Urine by Test strip</td><td>1.0</td><td>0 - 0.8</td><td>H</td><td>mg/dL</td></tr></table></div>"
        },
        "status": "final",
        "subject": {
          "reference": "urn:uuid:0e024290-706c-4724-8008-91ffd4a0d078",
          "display": "Victor Lagarde"
        },
        "effectiveDateTime": "2023-10-20T04:48:18Z",
        "specimen": {
          "reference": "urn:uuid:74a36d2a-d6ab-4874-98c2-69df0b3314b0"
        }
      }
    },
    {
      "fullUrl": "urn:uuid:8f5656a1-4b8a-45d5-953a-d113dd44bb08",
      "resource": {
        "resourceType": "Observation",
        "id": "8f5656a1-4b8a-45d5-953a-d113dd44bb08",
        "meta": {
          "profile": [
            "http://hl7.eu/fhir/laboratory/StructureDefinition/Observation-resultslab-eu-lab"
          ]
        },
        "performer": [
          {
            "display": "The Central European Lab"
          }
        ],
        "category": [
          {
            "coding": [
              {
                "system": "http://terminology.hl7.org/CodeSystem/observation-category",
                "code": "laboratory"
              }
            ]
          }
        ],
        "code": {
          "coding": [
            {
              "code": "25428-4",
              "system": "http://loinc.org",
              "display": "Glucose [Presence] in Urine by Test strip"
            }
          ],
          "text": "Glucose [Presence] in Urine by Test strip"
        },
        "text": {
          "status": "generated",
          "div": "<div xmlns=\"http://www.w3.org/1999/xhtml\"><table class=\"hl7__eu__lab__report\"><tr><th>Test</th><th>20-Oct-2023</th><th>Reference&#xA0;Range</th><th>Unit</th></tr><tr><td>Glucose [Presence] in Urine by Test strip</td></tr></table></div>"
        },
        "status": "final",
        "subject": {
          "reference": "urn:uuid:0e024290-706c-4724-8008-91ffd4a0d078",
          "display": "Victor Lagarde"
        },
        "effectiveDateTime": "2023-10-20T04:48:18Z",
        "specimen": {
          "reference": "urn:uuid:74a36d2a-d6ab-4874-98c2-69df0b3314b0"
        }
      }
    },
    {
      "fullUrl": "urn:uuid:6a73433a-4152-47e9-8294-aa4f6cf66f62",
      "resource": {
        "resourceType": "Observation",
        "id": "6a73433a-4152-47e9-8294-aa4f6cf66f62",
        "meta": {
          "profile": [
            "http://hl7.eu/fhir/laboratory/StructureDefinition/Observation-resultslab-eu-lab"
          ]
        },
        "performer": [
          {
            "display": "The Central European Lab"
          }
        ],
        "category": [
          {
            "coding": [
              {
                "system": "http://terminology.hl7.org/CodeSystem/observation-category",
                "code": "laboratory"
              }
            ]
          }
        ],
        "code": {
          "coding": [
            {
              "code": "20505-4",
              "system": "http://loinc.org",
              "display": "Bilirubin.total [Mass/volume] in Urine by Test strip"
            }
          ],
          "text": "Bilirubin.total [Mass/volume] in Urine by Test strip"
        },
        "valueQuantity": {
          "system": "http://unitsofmeasure.org",
          "value": 0.9,
          "unit": "mg/dL",
          "code": "mg/dL"
        },
        "referenceRange": [
          {
            "low": {
              "value": 0,
              "code": "mg/dL",
              "system": "http://unitsofmeasure.org"
            }
          },
          {
            "high": {
              "value": 1.9,
              "code": "mg/dL",
              "system": "http://unitsofmeasure.org"
            }
          }
        ],
        "text": {
          "status": "generated",
          "div": "<div xmlns=\"http://www.w3.org/1999/xhtml\"><table class=\"hl7__eu__lab__report\"><tr><th>Test</th><th>20-Oct-2023</th><th>Reference&#xA0;Range</th><th>Unit</th></tr><tr><td>Bilirubin.total [Mass/volume] in Urine by Test strip</td><td>0.9</td><td>0 - 1.9</td><td></td><td>mg/dL</td></tr></table></div>"
        },
        "status": "final",
        "subject": {
          "reference": "urn:uuid:0e024290-706c-4724-8008-91ffd4a0d078",
          "display": "Victor Lagarde"
        },
        "effectiveDateTime": "2023-10-20T04:48:18Z",
        "specimen": {
          "reference": "urn:uuid:74a36d2a-d6ab-4874-98c2-69df0b3314b0"
        }
      }
    },
    {
      "fullUrl": "urn:uuid:6442a52c-bdd7-4576-bc0c-77574ec1a50a",
      "resource": {
        "resourceType": "Observation",
        "id": "6442a52c-bdd7-4576-bc0c-77574ec1a50a",
        "meta": {
          "profile": [
            "http://hl7.eu/fhir/laboratory/StructureDefinition/Observation-resultslab-eu-lab"
          ]
        },
        "performer": [
          {
            "display": "The Central European Lab"
          }
        ],
        "category": [
          {
            "coding": [
              {
                "system": "http://terminology.hl7.org/CodeSystem/observation-category",
                "code": "laboratory"
              }
            ]
          }
        ],
        "code": {
          "coding": [
            {
              "code": "5770-3",
              "system": "http://loinc.org",
              "display": "Bilirubin.total [Presence] in Urine by Test strip"
            }
          ],
          "text": "Bilirubin.total [Presence] in Urine by Test strip"
        },
        "text": {
          "status": "generated",
          "div": "<div xmlns=\"http://www.w3.org/1999/xhtml\"><table class=\"hl7__eu__lab__report\"><tr><th>Test</th><th>20-Oct-2023</th><th>Reference&#xA0;Range</th><th>Unit</th></tr><tr><td>Bilirubin.total [Presence] in Urine by Test strip</td></tr></table></div>"
        },
        "status": "final",
        "subject": {
          "reference": "urn:uuid:0e024290-706c-4724-8008-91ffd4a0d078",
          "display": "Victor Lagarde"
        },
        "effectiveDateTime": "2023-10-20T04:48:18Z",
        "specimen": {
          "reference": "urn:uuid:74a36d2a-d6ab-4874-98c2-69df0b3314b0"
        }
      }
    },
    {
      "fullUrl": "urn:uuid:9e1fa5fe-89cd-454a-91ee-fe0535f19f69",
      "resource": {
        "resourceType": "Observation",
        "id": "9e1fa5fe-89cd-454a-91ee-fe0535f19f69",
        "meta": {
          "profile": [
            "http://hl7.eu/fhir/laboratory/StructureDefinition/Observation-resultslab-eu-lab"
          ]
        },
        "performer": [
          {
            "display": "The Central European Lab"
          }
        ],
        "category": [
          {
            "coding": [
              {
                "system": "http://terminology.hl7.org/CodeSystem/observation-category",
                "code": "laboratory"
              }
            ]
          }
        ],
        "code": {
          "coding": [
            {
              "code": "5797-6",
              "system": "http://loinc.org",
              "display": "Ketones [Mass/volume] in Urine by Test strip"
            }
          ],
          "text": "Ketones [Mass/volume] in Urine by Test strip"
        },
        "valueQuantity": {
          "system": "http://unitsofmeasure.org",
          "value": 9.1,
          "unit": "mg/dL",
          "code": "mg/dL"
        },
        "referenceRange": [
          {
            "low": {
              "value": 0,
              "code": "mg/dL",
              "system": "http://unitsofmeasure.org"
            }
          },
          {
            "high": {
              "value": 3,
              "code": "mg/dL",
              "system": "http://unitsofmeasure.org"
            }
          }
        ],
        "interpretation": [
          {
            "coding": [
              {
                "code": "H",
                "system": "http://terminology.hl7.org/CodeSystem/v3-ObservationInterpretation",
                "display": "High"
              }
            ]
          }
        ],
        "text": {
          "status": "generated",
          "div": "<div xmlns=\"http://www.w3.org/1999/xhtml\"><table class=\"hl7__eu__lab__report\"><tr><th>Test</th><th>20-Oct-2023</th><th>Reference&#xA0;Range</th><th>Unit</th></tr><tr><td>Ketones [Mass/volume] in Urine by Test strip</td><td>9.1</td><td>0 - 3</td><td>H</td><td>mg/dL</td></tr></table></div>"
        },
        "status": "final",
        "subject": {
          "reference": "urn:uuid:0e024290-706c-4724-8008-91ffd4a0d078",
          "display": "Victor Lagarde"
        },
        "effectiveDateTime": "2023-10-20T04:48:18Z",
        "specimen": {
          "reference": "urn:uuid:74a36d2a-d6ab-4874-98c2-69df0b3314b0"
        }
      }
    },
    {
      "fullUrl": "urn:uuid:e9cff10c-b66c-4088-a27f-2ab788fe5e49",
      "resource": {
        "resourceType": "Observation",
        "id": "e9cff10c-b66c-4088-a27f-2ab788fe5e49",
        "meta": {
          "profile": [
            "http://hl7.eu/fhir/laboratory/StructureDefinition/Observation-resultslab-eu-lab"
          ]
        },
        "performer": [
          {
            "display": "The Central European Lab"
          }
        ],
        "category": [
          {
            "coding": [
              {
                "system": "http://terminology.hl7.org/CodeSystem/observation-category",
                "code": "laboratory"
              }
            ]
          }
        ],
        "code": {
          "coding": [
            {
              "code": "2514-8",
              "system": "http://loinc.org",
              "display": "Ketones [Presence] in Urine by Test strip"
            }
          ],
          "text": "Ketones [Presence] in Urine by Test strip"
        },
        "text": {
          "status": "generated",
          "div": "<div xmlns=\"http://www.w3.org/1999/xhtml\"><table class=\"hl7__eu__lab__report\"><tr><th>Test</th><th>20-Oct-2023</th><th>Reference&#xA0;Range</th><th>Unit</th></tr><tr><td>Ketones [Presence] in Urine by Test strip</td></tr></table></div>"
        },
        "status": "final",
        "subject": {
          "reference": "urn:uuid:0e024290-706c-4724-8008-91ffd4a0d078",
          "display": "Victor Lagarde"
        },
        "effectiveDateTime": "2023-10-20T04:48:18Z",
        "specimen": {
          "reference": "urn:uuid:74a36d2a-d6ab-4874-98c2-69df0b3314b0"
        }
      }
    },
    {
      "fullUrl": "urn:uuid:0b71a264-3cf5-4349-a65f-ce6a8ce75a25",
      "resource": {
        "resourceType": "Observation",
        "id": "0b71a264-3cf5-4349-a65f-ce6a8ce75a25",
        "meta": {
          "profile": [
            "http://hl7.eu/fhir/laboratory/StructureDefinition/Observation-resultslab-eu-lab"
          ]
        },
        "performer": [
          {
            "display": "The Central European Lab"
          }
        ],
        "category": [
          {
            "coding": [
              {
                "system": "http://terminology.hl7.org/CodeSystem/observation-category",
                "code": "laboratory"
              }
            ]
          }
        ],
        "code": {
          "coding": [
            {
              "code": "5811-5",
              "system": "http://loinc.org",
              "display": "Specific gravity of Urine by Test strip"
            }
          ],
          "text": "Specific gravity of Urine by Test strip"
        },
        "valueQuantity": {
          "system": "http://unitsofmeasure.org",
          "value": 1,
          "unit": "{nominal}",
          "code": "{nominal}"
        },
        "referenceRange": [
          {
            "low": {
              "value": 1.01,
              "code": "g/mL",
              "system": "http://unitsofmeasure.org"
            }
          },
          {
            "high": {
              "value": 1.03,
              "code": "g/mL",
              "system": "http://unitsofmeasure.org"
            }
          }
        ],
        "interpretation": [
          {
            "coding": [
              {
                "code": "L",
                "system": "http://terminology.hl7.org/CodeSystem/v3-ObservationInterpretation",
                "display": "Low"
              }
            ]
          }
        ],
        "text": {
          "status": "generated",
          "div": "<div xmlns=\"http://www.w3.org/1999/xhtml\"><table class=\"hl7__eu__lab__report\"><tr><th>Test</th><th>20-Oct-2023</th><th>Reference&#xA0;Range</th><th>Unit</th></tr><tr><td>Specific gravity of Urine by Test strip</td><td>1.0</td><td>1.01 - 1.03</td><td>L</td><td>{nominal}</td></tr></table></div>"
        },
        "status": "final",
        "subject": {
          "reference": "urn:uuid:0e024290-706c-4724-8008-91ffd4a0d078",
          "display": "Victor Lagarde"
        },
        "effectiveDateTime": "2023-10-20T04:48:18Z",
        "specimen": {
          "reference": "urn:uuid:74a36d2a-d6ab-4874-98c2-69df0b3314b0"
        }
      }
    },
    {
      "fullUrl": "urn:uuid:d4a94396-e985-4ad0-ac5f-5d2e23432e1a",
      "resource": {
        "resourceType": "Observation",
        "id": "d4a94396-e985-4ad0-ac5f-5d2e23432e1a",
        "meta": {
          "profile": [
            "http://hl7.eu/fhir/laboratory/StructureDefinition/Observation-resultslab-eu-lab"
          ]
        },
        "performer": [
          {
            "display": "The Central European Lab"
          }
        ],
        "category": [
          {
            "coding": [
              {
                "system": "http://terminology.hl7.org/CodeSystem/observation-category",
                "code": "laboratory"
              }
            ]
          }
        ],
        "code": {
          "coding": [
            {
              "code": "5803-2",
              "system": "http://loinc.org",
              "display": "pH of Urine by Test strip"
            }
          ],
          "text": "pH of Urine by Test strip"
        },
        "valueQuantity": {
          "system": "http://unitsofmeasure.org",
          "value": 5.7,
          "unit": "pH",
          "code": "pH"
        },
        "referenceRange": [
          {
            "low": {
              "value": 4.5,
              "code": "pH",
              "system": "http://unitsofmeasure.org"
            }
          },
          {
            "high": {
              "value": 7.5,
              "code": "pH",
              "system": "http://unitsofmeasure.org"
            }
          }
        ],
        "text": {
          "status": "generated",
          "div": "<div xmlns=\"http://www.w3.org/1999/xhtml\"><table class=\"hl7__eu__lab__report\"><tr><th>Test</th><th>20-Oct-2023</th><th>Reference&#xA0;Range</th><th>Unit</th></tr><tr><td>pH of Urine by Test strip</td><td>5.7</td><td>4.5 - 7.5</td><td></td><td>pH</td></tr></table></div>"
        },
        "status": "final",
        "subject": {
          "reference": "urn:uuid:0e024290-706c-4724-8008-91ffd4a0d078",
          "display": "Victor Lagarde"
        },
        "effectiveDateTime": "2023-10-20T04:48:18Z",
        "specimen": {
          "reference": "urn:uuid:74a36d2a-d6ab-4874-98c2-69df0b3314b0"
        }
      }
    },
    {
      "fullUrl": "urn:uuid:dfb4f347-7f1b-45eb-933c-5d0874655518",
      "resource": {
        "resourceType": "Observation",
        "id": "dfb4f347-7f1b-45eb-933c-5d0874655518",
        "meta": {
          "profile": [
            "http://hl7.eu/fhir/laboratory/StructureDefinition/Observation-resultslab-eu-lab"
          ]
        },
        "performer": [
          {
            "display": "The Central European Lab"
          }
        ],
        "category": [
          {
            "coding": [
              {
                "system": "http://terminology.hl7.org/CodeSystem/observation-category",
                "code": "laboratory"
              }
            ]
          }
        ],
        "code": {
          "coding": [
            {
              "code": "5804-0",
              "system": "http://loinc.org",
              "display": "Protein [Mass/volume] in Urine by Test strip"
            }
          ],
          "text": "Protein [Mass/volume] in Urine by Test strip"
        },
        "valueQuantity": {
          "system": "http://unitsofmeasure.org",
          "value": 308.6,
          "unit": "mg/dL",
          "code": "mg/dL"
        },
        "referenceRange": [
          {
            "low": {
              "value": 0,
              "code": "mg/dL",
              "system": "http://unitsofmeasure.org"
            }
          },
          {
            "high": {
              "value": 149,
              "code": "mg/dL",
              "system": "http://unitsofmeasure.org"
            }
          }
        ],
        "interpretation": [
          {
            "coding": [
              {
                "code": "H",
                "system": "http://terminology.hl7.org/CodeSystem/v3-ObservationInterpretation",
                "display": "High"
              }
            ]
          }
        ],
        "text": {
          "status": "generated",
          "div": "<div xmlns=\"http://www.w3.org/1999/xhtml\"><table class=\"hl7__eu__lab__report\"><tr><th>Test</th><th>20-Oct-2023</th><th>Reference&#xA0;Range</th><th>Unit</th></tr><tr><td>Protein [Mass/volume] in Urine by Test strip</td><td>308.6</td><td>0 - 149</td><td>H</td><td>mg/dL</td></tr></table></div>"
        },
        "status": "final",
        "subject": {
          "reference": "urn:uuid:0e024290-706c-4724-8008-91ffd4a0d078",
          "display": "Victor Lagarde"
        },
        "effectiveDateTime": "2023-10-20T04:48:18Z",
        "specimen": {
          "reference": "urn:uuid:74a36d2a-d6ab-4874-98c2-69df0b3314b0"
        }
      }
    },
    {
      "fullUrl": "urn:uuid:772eed60-ac93-4b7a-8673-6f874d3d7c90",
      "resource": {
        "resourceType": "Observation",
        "id": "772eed60-ac93-4b7a-8673-6f874d3d7c90",
        "meta": {
          "profile": [
            "http://hl7.eu/fhir/laboratory/StructureDefinition/Observation-resultslab-eu-lab"
          ]
        },
        "performer": [
          {
            "display": "The Central European Lab"
          }
        ],
        "category": [
          {
            "coding": [
              {
                "system": "http://terminology.hl7.org/CodeSystem/observation-category",
                "code": "laboratory"
              }
            ]
          }
        ],
        "code": {
          "coding": [
            {
              "code": "20454-5",
              "system": "http://loinc.org",
              "display": "Protein [Presence] in Urine by Test strip"
            }
          ],
          "text": "Protein [Presence] in Urine by Test strip"
        },
        "text": {
          "status": "generated",
          "div": "<div xmlns=\"http://www.w3.org/1999/xhtml\"><table class=\"hl7__eu__lab__report\"><tr><th>Test</th><th>20-Oct-2023</th><th>Reference&#xA0;Range</th><th>Unit</th></tr><tr><td>Protein [Presence] in Urine by Test strip</td></tr></table></div>"
        },
        "status": "final",
        "subject": {
          "reference": "urn:uuid:0e024290-706c-4724-8008-91ffd4a0d078",
          "display": "Victor Lagarde"
        },
        "effectiveDateTime": "2023-10-20T04:48:18Z",
        "specimen": {
          "reference": "urn:uuid:74a36d2a-d6ab-4874-98c2-69df0b3314b0"
        }
      }
    },
    {
      "fullUrl": "urn:uuid:6896aa6e-1d73-4f99-ad77-703875129f6a",
      "resource": {
        "resourceType": "Observation",
        "id": "6896aa6e-1d73-4f99-ad77-703875129f6a",
        "meta": {
          "profile": [
            "http://hl7.eu/fhir/laboratory/StructureDefinition/Observation-resultslab-eu-lab"
          ]
        },
        "performer": [
          {
            "display": "The Central European Lab"
          }
        ],
        "category": [
          {
            "coding": [
              {
                "system": "http://terminology.hl7.org/CodeSystem/observation-category",
                "code": "laboratory"
              }
            ]
          }
        ],
        "code": {
          "coding": [
            {
              "code": "5802-4",
              "system": "http://loinc.org",
              "display": "Nitrite [Presence] in Urine by Test strip"
            }
          ],
          "text": "Nitrite [Presence] in Urine by Test strip"
        },
        "text": {
          "status": "generated",
          "div": "<div xmlns=\"http://www.w3.org/1999/xhtml\"><table class=\"hl7__eu__lab__report\"><tr><th>Test</th><th>20-Oct-2023</th><th>Reference&#xA0;Range</th><th>Unit</th></tr><tr><td>Nitrite [Presence] in Urine by Test strip</td></tr></table></div>"
        },
        "status": "final",
        "subject": {
          "reference": "urn:uuid:0e024290-706c-4724-8008-91ffd4a0d078",
          "display": "Victor Lagarde"
        },
        "effectiveDateTime": "2023-10-20T04:48:18Z",
        "specimen": {
          "reference": "urn:uuid:74a36d2a-d6ab-4874-98c2-69df0b3314b0"
        }
      }
    },
    {
      "fullUrl": "urn:uuid:0a82bdfb-5e59-4442-8b61-2df7638e09af",
      "resource": {
        "resourceType": "Observation",
        "id": "0a82bdfb-5e59-4442-8b61-2df7638e09af",
        "meta": {
          "profile": [
            "http://hl7.eu/fhir/laboratory/StructureDefinition/Observation-resultslab-eu-lab"
          ]
        },
        "performer": [
          {
            "display": "The Central European Lab"
          }
        ],
        "category": [
          {
            "coding": [
              {
                "system": "http://terminology.hl7.org/CodeSystem/observation-category",
                "code": "laboratory"
              }
            ]
          }
        ],
        "code": {
          "coding": [
            {
              "code": "5794-3",
              "system": "http://loinc.org",
              "display": "Hemoglobin [Presence] in Urine by Test strip"
            }
          ],
          "text": "Hemoglobin [Presence] in Urine by Test strip"
        },
        "text": {
          "status": "generated",
          "div": "<div xmlns=\"http://www.w3.org/1999/xhtml\"><table class=\"hl7__eu__lab__report\"><tr><th>Test</th><th>20-Oct-2023</th><th>Reference&#xA0;Range</th><th>Unit</th></tr><tr><td>Hemoglobin [Presence] in Urine by Test strip</td></tr></table></div>"
        },
        "status": "final",
        "subject": {
          "reference": "urn:uuid:0e024290-706c-4724-8008-91ffd4a0d078",
          "display": "Victor Lagarde"
        },
        "effectiveDateTime": "2023-10-20T04:48:18Z",
        "specimen": {
          "reference": "urn:uuid:74a36d2a-d6ab-4874-98c2-69df0b3314b0"
        }
      }
    },
    {
      "fullUrl": "urn:uuid:e0b30f75-8244-48a9-945a-51cd3d0fa380",
      "resource": {
        "resourceType": "Observation",
        "id": "e0b30f75-8244-48a9-945a-51cd3d0fa380",
        "meta": {
          "profile": [
            "http://hl7.eu/fhir/laboratory/StructureDefinition/Observation-resultslab-eu-lab"
          ]
        },
        "performer": [
          {
            "display": "The Central European Lab"
          }
        ],
        "category": [
          {
            "coding": [
              {
                "system": "http://terminology.hl7.org/CodeSystem/observation-category",
                "code": "laboratory"
              }
            ]
          }
        ],
        "code": {
          "coding": [
            {
              "code": "5799-2",
              "system": "http://loinc.org",
              "display": "Leukocyte esterase [Presence] in Urine by Test strip"
            }
          ],
          "text": "Leukocyte esterase [Presence] in Urine by Test strip"
        },
        "text": {
          "status": "generated",
          "div": "<div xmlns=\"http://www.w3.org/1999/xhtml\"><table class=\"hl7__eu__lab__report\"><tr><th>Test</th><th>20-Oct-2023</th><th>Reference&#xA0;Range</th><th>Unit</th></tr><tr><td>Leukocyte esterase [Presence] in Urine by Test strip</td></tr></table></div>"
        },
        "status": "final",
        "subject": {
          "reference": "urn:uuid:0e024290-706c-4724-8008-91ffd4a0d078",
          "display": "Victor Lagarde"
        },
        "effectiveDateTime": "2023-10-20T04:48:18Z",
        "specimen": {
          "reference": "urn:uuid:74a36d2a-d6ab-4874-98c2-69df0b3314b0"
        }
      }
    },
    {
      "fullUrl": "urn:uuid:d406d438-ff88-47d8-897e-6db25e517dca",
      "resource": {
        "resourceType": "Observation",
        "id": "d406d438-ff88-47d8-897e-6db25e517dca",
        "meta": {
          "profile": [
            "http://hl7.eu/fhir/laboratory/StructureDefinition/Observation-resultslab-eu-lab"
          ]
        },
        "performer": [
          {
            "display": "The Central European Lab"
          }
        ],
        "category": [
          {
            "coding": [
              {
                "system": "http://terminology.hl7.org/CodeSystem/observation-category",
                "code": "laboratory"
              }
            ]
          }
        ],
        "code": {
          "coding": [
            {
              "code": "4548-4",
              "system": "http://loinc.org",
              "display": "Hemoglobin A1c/Hemoglobin.total in Blood"
            }
          ],
          "text": "Hemoglobin A1c/Hemoglobin.total in Blood"
        },
        "valueQuantity": {
          "system": "http://unitsofmeasure.org",
          "value": 3,
          "unit": "%",
          "code": "%"
        },
        "referenceRange": [
          {
            "low": {
              "value": 4.3,
              "code": "%",
              "system": "http://unitsofmeasure.org"
            }
          },
          {
            "high": {
              "value": 6,
              "code": "%",
              "system": "http://unitsofmeasure.org"
            }
          }
        ],
        "interpretation": [
          {
            "coding": [
              {
                "code": "L",
                "system": "http://terminology.hl7.org/CodeSystem/v3-ObservationInterpretation",
                "display": "Low"
              }
            ]
          }
        ],
        "text": {
          "status": "generated",
          "div": "<div xmlns=\"http://www.w3.org/1999/xhtml\"><table class=\"hl7__eu__lab__report\"><tr><th>Test</th><th>20-Oct-2023</th><th>Reference&#xA0;Range</th><th>Unit</th></tr><tr><td>Hemoglobin A1c/Hemoglobin.total in Blood</td><td>3.0</td><td>4.3 - 6</td><td>L</td><td>%</td></tr></table></div>"
        },
        "status": "final",
        "subject": {
          "reference": "urn:uuid:0e024290-706c-4724-8008-91ffd4a0d078",
          "display": "Victor Lagarde"
        },
        "effectiveDateTime": "2023-10-20T04:48:18Z",
        "specimen": {
          "reference": "urn:uuid:b005e77d-49e5-42b7-8c4b-f545758524c2"
        }
      }
    },
    {
      "fullUrl": "urn:uuid:781a4d9f-e126-4c20-86e2-db7fe9e5fedf",
      "resource": {
        "resourceType": "Observation",
        "id": "781a4d9f-e126-4c20-86e2-db7fe9e5fedf",
        "meta": {
          "profile": [
            "http://hl7.eu/fhir/laboratory/StructureDefinition/Observation-resultslab-eu-lab"
          ]
        },
        "performer": [
          {
            "display": "The Central European Lab"
          }
        ],
        "category": [
          {
            "coding": [
              {
                "system": "http://terminology.hl7.org/CodeSystem/observation-category",
                "code": "laboratory"
              }
            ]
          }
        ],
        "code": {
          "coding": [
            {
              "code": "2339-0",
              "system": "http://loinc.org",
              "display": "Glucose [Mass/volume] in Blood"
            }
          ],
          "text": "Glucose [Mass/volume] in Blood"
        },
        "valueQuantity": {
          "system": "http://unitsofmeasure.org",
          "value": 98.8,
          "unit": "mg/dL",
          "code": "mg/dL"
        },
        "referenceRange": [
          {
            "low": {
              "value": 70,
              "code": "mg/dL",
              "system": "http://unitsofmeasure.org"
            }
          },
          {
            "high": {
              "value": 140,
              "code": "mg/dL",
              "system": "http://unitsofmeasure.org"
            }
          }
        ],
        "text": {
          "status": "generated",
          "div": "<div xmlns=\"http://www.w3.org/1999/xhtml\"><table class=\"hl7__eu__lab__report\"><tr><th>Test</th><th>20-Oct-2023</th><th>Reference&#xA0;Range</th><th>Unit</th></tr><tr><td>Glucose [Mass/volume] in Blood</td><td>98.8</td><td>70 - 140</td><td></td><td>mg/dL</td></tr></table></div>"
        },
        "status": "final",
        "subject": {
          "reference": "urn:uuid:0e024290-706c-4724-8008-91ffd4a0d078",
          "display": "Victor Lagarde"
        },
        "effectiveDateTime": "2023-10-20T04:48:18Z",
        "specimen": {
          "reference": "urn:uuid:b005e77d-49e5-42b7-8c4b-f545758524c2"
        }
      }
    },
    {
      "fullUrl": "urn:uuid:e81cf6c6-ab3a-4f2d-b6a7-a151e230e538",
      "resource": {
        "resourceType": "Observation",
        "id": "e81cf6c6-ab3a-4f2d-b6a7-a151e230e538",
        "meta": {
          "profile": [
            "http://hl7.eu/fhir/laboratory/StructureDefinition/Observation-resultslab-eu-lab"
          ]
        },
        "performer": [
          {
            "display": "The Central European Lab"
          }
        ],
        "category": [
          {
            "coding": [
              {
                "system": "http://terminology.hl7.org/CodeSystem/observation-category",
                "code": "laboratory"
              }
            ]
          }
        ],
        "code": {
          "coding": [
            {
              "code": "6299-2",
              "system": "http://loinc.org",
              "display": "Urea nitrogen [Mass/volume] in Blood"
            }
          ],
          "text": "Urea nitrogen [Mass/volume] in Blood"
        },
        "valueQuantity": {
          "system": "http://unitsofmeasure.org",
          "value": 16.9,
          "unit": "mg/dL",
          "code": "mg/dL"
        },
        "referenceRange": [
          {
            "low": {
              "value": 7,
              "code": "mg/dL",
              "system": "http://unitsofmeasure.org"
            }
          },
          {
            "high": {
              "value": 20,
              "code": "mg/dL",
              "system": "http://unitsofmeasure.org"
            }
          }
        ],
        "text": {
          "status": "generated",
          "div": "<div xmlns=\"http://www.w3.org/1999/xhtml\"><table class=\"hl7__eu__lab__report\"><tr><th>Test</th><th>20-Oct-2023</th><th>Reference&#xA0;Range</th><th>Unit</th></tr><tr><td>Urea nitrogen [Mass/volume] in Blood</td><td>16.9</td><td>7 - 20</td><td></td><td>mg/dL</td></tr></table></div>"
        },
        "status": "final",
        "subject": {
          "reference": "urn:uuid:0e024290-706c-4724-8008-91ffd4a0d078",
          "display": "Victor Lagarde"
        },
        "effectiveDateTime": "2023-10-20T04:48:18Z",
        "specimen": {
          "reference": "urn:uuid:b005e77d-49e5-42b7-8c4b-f545758524c2"
        }
      }
    },
    {
      "fullUrl": "urn:uuid:53615a16-a13c-4b16-99cd-c1e5a930502f",
      "resource": {
        "resourceType": "Observation",
        "id": "53615a16-a13c-4b16-99cd-c1e5a930502f",
        "meta": {
          "profile": [
            "http://hl7.eu/fhir/laboratory/StructureDefinition/Observation-resultslab-eu-lab"
          ]
        },
        "performer": [
          {
            "display": "The Central European Lab"
          }
        ],
        "category": [
          {
            "coding": [
              {
                "system": "http://terminology.hl7.org/CodeSystem/observation-category",
                "code": "laboratory"
              }
            ]
          }
        ],
        "code": {
          "coding": [
            {
              "code": "38483-4",
              "system": "http://loinc.org",
              "display": "Creatinine [Mass/volume] in Blood"
            }
          ],
          "text": "Creatinine [Mass/volume] in Blood"
        },
        "valueQuantity": {
          "system": "http://unitsofmeasure.org",
          "value": 3.3,
          "unit": "mg/dL",
          "code": "mg/dL"
        },
        "referenceRange": [
          {
            "low": {
              "value": 0.9,
              "code": "mg/dL",
              "system": "http://unitsofmeasure.org"
            }
          },
          {
            "high": {
              "value": 1.3,
              "code": "mg/dL",
              "system": "http://unitsofmeasure.org"
            }
          }
        ],
        "interpretation": [
          {
            "coding": [
              {
                "code": "H",
                "system": "http://terminology.hl7.org/CodeSystem/v3-ObservationInterpretation",
                "display": "High"
              }
            ]
          }
        ],
        "text": {
          "status": "generated",
          "div": "<div xmlns=\"http://www.w3.org/1999/xhtml\"><table class=\"hl7__eu__lab__report\"><tr><th>Test</th><th>20-Oct-2023</th><th>Reference&#xA0;Range</th><th>Unit</th></tr><tr><td>Creatinine [Mass/volume] in Blood</td><td>3.3</td><td>0.9 - 1.3</td><td>H</td><td>mg/dL</td></tr></table></div>"
        },
        "status": "final",
        "subject": {
          "reference": "urn:uuid:0e024290-706c-4724-8008-91ffd4a0d078",
          "display": "Victor Lagarde"
        },
        "effectiveDateTime": "2023-10-20T04:48:18Z",
        "specimen": {
          "reference": "urn:uuid:b005e77d-49e5-42b7-8c4b-f545758524c2"
        }
      }
    },
    {
      "fullUrl": "urn:uuid:d6bc0cb4-41fc-4a5f-95e3-2eab1b280638",
      "resource": {
        "resourceType": "Observation",
        "id": "d6bc0cb4-41fc-4a5f-95e3-2eab1b280638",
        "meta": {
          "profile": [
            "http://hl7.eu/fhir/laboratory/StructureDefinition/Observation-resultslab-eu-lab"
          ]
        },
        "performer": [
          {
            "display": "The Central European Lab"
          }
        ],
        "category": [
          {
            "coding": [
              {
                "system": "http://terminology.hl7.org/CodeSystem/observation-category",
                "code": "laboratory"
              }
            ]
          }
        ],
        "code": {
          "coding": [
            {
              "code": "49765-1",
              "system": "http://loinc.org",
              "display": "Calcium [Mass/volume] in Blood"
            }
          ],
          "text": "Calcium [Mass/volume] in Blood"
        },
        "valueQuantity": {
          "system": "http://unitsofmeasure.org",
          "value": 10,
          "unit": "mg/dL",
          "code": "mg/dL"
        },
        "referenceRange": [
          {
            "low": {
              "value": 8.5,
              "code": "mg/dL",
              "system": "http://unitsofmeasure.org"
            }
          },
          {
            "high": {
              "value": 10.5,
              "code": "mg/dL",
              "system": "http://unitsofmeasure.org"
            }
          }
        ],
        "text": {
          "status": "generated",
          "div": "<div xmlns=\"http://www.w3.org/1999/xhtml\"><table class=\"hl7__eu__lab__report\"><tr><th>Test</th><th>20-Oct-2023</th><th>Reference&#xA0;Range</th><th>Unit</th></tr><tr><td>Calcium [Mass/volume] in Blood</td><td>10.0</td><td>8.5 - 10.5</td><td></td><td>mg/dL</td></tr></table></div>"
        },
        "status": "final",
        "subject": {
          "reference": "urn:uuid:0e024290-706c-4724-8008-91ffd4a0d078",
          "display": "Victor Lagarde"
        },
        "effectiveDateTime": "2023-10-20T04:48:18Z",
        "specimen": {
          "reference": "urn:uuid:b005e77d-49e5-42b7-8c4b-f545758524c2"
        }
      }
    },
    {
      "fullUrl": "urn:uuid:7b0f3508-4c63-4a97-8734-75ebb98f6d7c",
      "resource": {
        "resourceType": "Observation",
        "id": "7b0f3508-4c63-4a97-8734-75ebb98f6d7c",
        "meta": {
          "profile": [
            "http://hl7.eu/fhir/laboratory/StructureDefinition/Observation-resultslab-eu-lab"
          ]
        },
        "performer": [
          {
            "display": "The Central European Lab"
          }
        ],
        "category": [
          {
            "coding": [
              {
                "system": "http://terminology.hl7.org/CodeSystem/observation-category",
                "code": "laboratory"
              }
            ]
          }
        ],
        "code": {
          "coding": [
            {
              "code": "2947-0",
              "system": "http://loinc.org",
              "display": "Sodium [Moles/volume] in Blood"
            }
          ],
          "text": "Sodium [Moles/volume] in Blood"
        },
        "valueQuantity": {
          "system": "http://unitsofmeasure.org",
          "value": 143.8,
          "unit": "mmol/L",
          "code": "mmol/L"
        },
        "referenceRange": [
          {
            "low": {
              "value": 135,
              "code": "mmol/L",
              "system": "http://unitsofmeasure.org"
            }
          },
          {
            "high": {
              "value": 145,
              "code": "mmol/L",
              "system": "http://unitsofmeasure.org"
            }
          }
        ],
        "text": {
          "status": "generated",
          "div": "<div xmlns=\"http://www.w3.org/1999/xhtml\"><table class=\"hl7__eu__lab__report\"><tr><th>Test</th><th>20-Oct-2023</th><th>Reference&#xA0;Range</th><th>Unit</th></tr><tr><td>Sodium [Moles/volume] in Blood</td><td>143.8</td><td>135 - 145</td><td></td><td>mmol/L</td></tr></table></div>"
        },
        "status": "final",
        "subject": {
          "reference": "urn:uuid:0e024290-706c-4724-8008-91ffd4a0d078",
          "display": "Victor Lagarde"
        },
        "effectiveDateTime": "2023-10-20T04:48:18Z",
        "specimen": {
          "reference": "urn:uuid:b005e77d-49e5-42b7-8c4b-f545758524c2"
        }
      }
    },
    {
      "fullUrl": "urn:uuid:c2ea2d90-8120-4a40-b80f-8db2437b0fe9",
      "resource": {
        "resourceType": "Observation",
        "id": "c2ea2d90-8120-4a40-b80f-8db2437b0fe9",
        "meta": {
          "profile": [
            "http://hl7.eu/fhir/laboratory/StructureDefinition/Observation-resultslab-eu-lab"
          ]
        },
        "performer": [
          {
            "display": "The Central European Lab"
          }
        ],
        "category": [
          {
            "coding": [
              {
                "system": "http://terminology.hl7.org/CodeSystem/observation-category",
                "code": "laboratory"
              }
            ]
          }
        ],
        "code": {
          "coding": [
            {
              "code": "6298-4",
              "system": "http://loinc.org",
              "display": "Potassium [Moles/volume] in Blood"
            }
          ],
          "text": "Potassium [Moles/volume] in Blood"
        },
        "valueQuantity": {
          "system": "http://unitsofmeasure.org",
          "value": 5,
          "unit": "mmol/L",
          "code": "mmol/L"
        },
        "referenceRange": [
          {
            "low": {
              "value": 3.5,
              "code": "mmol/L",
              "system": "http://unitsofmeasure.org"
            }
          },
          {
            "high": {
              "value": 5.1,
              "code": "mmol/L",
              "system": "http://unitsofmeasure.org"
            }
          }
        ],
        "text": {
          "status": "generated",
          "div": "<div xmlns=\"http://www.w3.org/1999/xhtml\"><table class=\"hl7__eu__lab__report\"><tr><th>Test</th><th>20-Oct-2023</th><th>Reference&#xA0;Range</th><th>Unit</th></tr><tr><td>Potassium [Moles/volume] in Blood</td><td>5.0</td><td>3.5 - 5.1</td><td></td><td>mmol/L</td></tr></table></div>"
        },
        "status": "final",
        "subject": {
          "reference": "urn:uuid:0e024290-706c-4724-8008-91ffd4a0d078",
          "display": "Victor Lagarde"
        },
        "effectiveDateTime": "2023-10-20T04:48:18Z",
        "specimen": {
          "reference": "urn:uuid:b005e77d-49e5-42b7-8c4b-f545758524c2"
        }
      }
    },
    {
      "fullUrl": "urn:uuid:4a22c799-c672-4b60-add2-ad1a3650790b",
      "resource": {
        "resourceType": "Observation",
        "id": "4a22c799-c672-4b60-add2-ad1a3650790b",
        "meta": {
          "profile": [
            "http://hl7.eu/fhir/laboratory/StructureDefinition/Observation-resultslab-eu-lab"
          ]
        },
        "performer": [
          {
            "display": "The Central European Lab"
          }
        ],
        "category": [
          {
            "coding": [
              {
                "system": "http://terminology.hl7.org/CodeSystem/observation-category",
                "code": "laboratory"
              }
            ]
          }
        ],
        "code": {
          "coding": [
            {
              "code": "2069-3",
              "system": "http://loinc.org",
              "display": "Chloride [Moles/volume] in Blood"
            }
          ],
          "text": "Chloride [Moles/volume] in Blood"
        },
        "valueQuantity": {
          "system": "http://unitsofmeasure.org",
          "value": 107.1,
          "unit": "mmol/L",
          "code": "mmol/L"
        },
        "referenceRange": [
          {
            "low": {
              "value": 98,
              "code": "mmol/L",
              "system": "http://unitsofmeasure.org"
            }
          },
          {
            "high": {
              "value": 108,
              "code": "mmol/L",
              "system": "http://unitsofmeasure.org"
            }
          }
        ],
        "text": {
          "status": "generated",
          "div": "<div xmlns=\"http://www.w3.org/1999/xhtml\"><table class=\"hl7__eu__lab__report\"><tr><th>Test</th><th>20-Oct-2023</th><th>Reference&#xA0;Range</th><th>Unit</th></tr><tr><td>Chloride [Moles/volume] in Blood</td><td>107.1</td><td>98 - 108</td><td></td><td>mmol/L</td></tr></table></div>"
        },
        "status": "final",
        "subject": {
          "reference": "urn:uuid:0e024290-706c-4724-8008-91ffd4a0d078",
          "display": "Victor Lagarde"
        },
        "effectiveDateTime": "2023-10-20T04:48:18Z",
        "specimen": {
          "reference": "urn:uuid:b005e77d-49e5-42b7-8c4b-f545758524c2"
        }
      }
    },
    {
      "fullUrl": "urn:uuid:beee1678-5a98-40bc-a46e-39751e0e8a85",
      "resource": {
        "resourceType": "Observation",
        "id": "beee1678-5a98-40bc-a46e-39751e0e8a85",
        "meta": {
          "profile": [
            "http://hl7.eu/fhir/laboratory/StructureDefinition/Observation-resultslab-eu-lab"
          ]
        },
        "performer": [
          {
            "display": "The Central European Lab"
          }
        ],
        "category": [
          {
            "coding": [
              {
                "system": "http://terminology.hl7.org/CodeSystem/observation-category",
                "code": "laboratory"
              }
            ]
          }
        ],
        "code": {
          "coding": [
            {
              "code": "20565-8",
              "system": "http://loinc.org",
              "display": "Carbon dioxide, total [Moles/volume] in Blood"
            }
          ],
          "text": "Carbon dioxide, total [Moles/volume] in Blood"
        },
        "valueQuantity": {
          "system": "http://unitsofmeasure.org",
          "value": 23,
          "unit": "mmol/L",
          "code": "mmol/L"
        },
        "referenceRange": [
          {
            "low": {
              "value": 22,
              "code": "mmol/L",
              "system": "http://unitsofmeasure.org"
            }
          },
          {
            "high": {
              "value": 29,
              "code": "mmol/L",
              "system": "http://unitsofmeasure.org"
            }
          }
        ],
        "text": {
          "status": "generated",
          "div": "<div xmlns=\"http://www.w3.org/1999/xhtml\"><table class=\"hl7__eu__lab__report\"><tr><th>Test</th><th>20-Oct-2023</th><th>Reference&#xA0;Range</th><th>Unit</th></tr><tr><td>Carbon dioxide, total [Moles/volume] in Blood</td><td>23.0</td><td>22 - 29</td><td></td><td>mmol/L</td></tr></table></div>"
        },
        "status": "final",
        "subject": {
          "reference": "urn:uuid:0e024290-706c-4724-8008-91ffd4a0d078",
          "display": "Victor Lagarde"
        },
        "effectiveDateTime": "2023-10-20T04:48:18Z",
        "specimen": {
          "reference": "urn:uuid:b005e77d-49e5-42b7-8c4b-f545758524c2"
        }
      }
    },
    {
      "fullUrl": "urn:uuid:4cddfbff-2e7b-463f-a47f-d9508084c03f",
      "resource": {
        "resourceType": "Device",
        "id": "4cddfbff-2e7b-463f-a47f-d9508084c03f",
        "deviceName": [
          {
            "name": "SYNDERAI Synthetic Generator",
            "type": "manufacturer-name"
          }
        ],
        "version": [
          {
            "value": "5.0"
          }
        ],
        "text": {
          "status": "generated",
          "div": "<div xmlns=\"http://www.w3.org/1999/xhtml\">SYNDERAI Synthetic Generator v5.0</div>"
        },
        "status": "active\"",
        "distinctIdentifier": "synderai-generator-50",
        "manufacturer": "SYNDERAI Project"
      }
    },
    {
      "fullUrl": "urn:uuid:2fec4429-703c-4385-8b0e-5ca4dce69d25",
      "resource": {
        "resourceType": "Provenance",
        "id": "2fec4429-703c-4385-8b0e-5ca4dce69d25",
        "target": [
          {
            "reference": "Patient/0e024290-706c-4724-8008-91ffd4a0d078"
          },
          {
            "reference": "Bundle/1917b79f-d03c-4c28-898e-a4d107465bc8"
          },
          {
            "reference": "Composition/b74e505b-15f7-4430-a9e1-c1a9700e7021"
          },
          {
            "reference": "PractitionerRole/0e594efa-5bcb-4a0e-bc7d-08486b91058d"
          },
          {
            "reference": "Practitioner/1dd8a48e-9385-461a-99e9-95fc31fb42ff"
          },
          {
            "reference": "PractitionerRole/87beaeaa-9aed-4cbc-9b70-dd9f4542a999"
          },
          {
            "reference": "Organization/63de07cf-6b2d-4827-aa3f-447e28525cb4"
          }
        ],
        "activity": {
          "text": "Synthetic Example Data Generation"
        },
        "policy": [
          "https://synderai.net/synderai-synthetic-data-policy"
        ],
        "agent": [
          {
            "type": {
              "text": "author"
            },
            "who": {
              "reference": "Device/4cddfbff-2e7b-463f-a47f-d9508084c03f"
            }
          }
        ],
        "reason": [
          {
            "text": "Interoperability Testing and Training (non-clinical use)"
          }
        ],
        "text": {
          "status": "generated",
          "div": "<div xmlns=\"http://www.w3.org/1999/xhtml\">Provenance for SYNDERAI Synthetic Example Data Resource</div>"
        },
        "recorded": "2023-10-20T06:48:18Z"
      }
    },
    {
      "fullUrl": "urn:uuid:0e594efa-5bcb-4a0e-bc7d-08486b91058d",
      "resource": {
        "resourceType": "PractitionerRole",
        "id": "0e594efa-5bcb-4a0e-bc7d-08486b91058d",
        "meta": {
          "profile": [
            "http://hl7.eu/fhir/base/StructureDefinition/practitionerRole-eu"
          ]
        },
        "text": {
          "status": "generated",
          "div": "<div xmlns=\"http://www.w3.org/1999/xhtml\">Laboratory Role Id: 0e594efa-5bcb-4a0e-bc7d-08486b91058d</div>"
        },
        "practitioner": {
          "reference": "urn:uuid:1dd8a48e-9385-461a-99e9-95fc31fb42ff"
        }
      }
    },
    {
      "fullUrl": "urn:uuid:1dd8a48e-9385-461a-99e9-95fc31fb42ff",
      "resource": {
        "resourceType": "Practitioner",
        "id": "1dd8a48e-9385-461a-99e9-95fc31fb42ff",
        "meta": {
          "profile": [
            "http://hl7.eu/fhir/base/StructureDefinition/practitioner-eu"
          ]
        },
        "identifier": [
          {
            "assigner": {
              "display": "HL7 Europe"
            },
            "system": "urn:oid:2.16.840.1.113883.2.51.999",
            "value": "be27bbbf-42fc-41a0-8e79-4e8298f1ba55"
          }
        ],
        "name": [
          {
            "prefix": [
              "dr"
            ],
            "given": [
              "Ex"
            ],
            "family": "Ample"
          }
        ],
        "address": [
          {
            "line": [
              "Laboratoire Central Européenne",
              "Boulevard du Jardin Botanique 32"
            ],
            "postalCode": "1000",
            "city": "Brussels",
            "country": "Belgium"
          }
        ],
        "text": {
          "status": "generated",
          "div": "<div xmlns=\"http://www.w3.org/1999/xhtml\">Laboratory: Laboratoire Central Européenne, 1000 Brussels, Belgium</div>"
        }
      }
    }
  ],
  "type": "document",
  "timestamp": "2023-10-20T06:48:18Z"
}
