{
  "resourceType": "Bundle",
  "id": "a30fc5e0-4da5-4aee-a01b-dd1b8e9d273c",
  "meta": {
    "profile": [
      "http://hl7.eu/fhir/laboratory/StructureDefinition/Bundle-eu-lab"
    ]
  },
  "identifier": {
    "assigner": {
      "display": "HL7 Europe"
    },
    "system": "urn:oid:2.16.840.1.113883.2.51.999",
    "value": "22d0226f-9dd8-4655-9de6-2ae45b261a05"
  },
  "entry": [
    {
      "fullUrl": "urn:uuid:251c6f61-4209-4bd4-bd4a-6e05ddf5e2f9",
      "resource": {
        "resourceType": "Composition",
        "id": "251c6f61-4209-4bd4-bd4a-6e05ddf5e2f9",
        "meta": {
          "profile": [
            "http://hl7.eu/fhir/laboratory/StructureDefinition/Composition-eu-lab"
          ]
        },
        "identifier": {
          "assigner": {
            "display": "HL7 Europe"
          },
          "system": "urn:oid:2.16.840.1.113883.2.51.999",
          "value": "083d0836-6a32-4de2-9e19-b27d05299ebe"
        },
        "author": [
          {
            "reference": "urn:uuid:9dee1379-aeaa-4a5a-9180-faaebcc26289"
          }
        ],
        "category": [
          {
            "coding": [
              {
                "code": "26436-6",
                "system": "http://loinc.org",
                "display": "Laboratory studies (set)"
              }
            ]
          }
        ],
        "type": {
          "coding": [
            {
              "code": "11502-2",
              "system": "http://loinc.org",
              "display": "Laboratory report"
            }
          ],
          "text": "Laboratory Report"
        },
        "section": [
          {
            "code": {
              "coding": [
                {
                  "code": "26436-6",
                  "system": "http://loinc.org",
                  "display": "Laboratory studies (set)"
                }
              ],
              "text": "Laboratory studies"
            },
            "section": [
              {
                "code": {
                  "coding": [
                    {
                      "code": "$18723-7",
                      "system": "http://loinc.org",
                      "display": "Hematology studies (set)"
                    }
                  ],
                  "text": "Hematology"
                },
                "entry": [
                  {
                    "reference": "urn:uuid:61cf2e79-2ee6-4e0a-b31f-1f931cedc6d1"
                  },
                  {
                    "reference": "urn:uuid:72156e3e-646e-47f3-a216-1e18d29b6d4b"
                  },
                  {
                    "reference": "urn:uuid:64041b8d-94c3-4ed9-a9e3-33830135884a"
                  },
                  {
                    "reference": "urn:uuid:022bb5d0-3b3c-462a-b598-390c323925fc"
                  },
                  {
                    "reference": "urn:uuid:70286d79-e990-4ac7-81cb-849f9db09ad7"
                  },
                  {
                    "reference": "urn:uuid:07d39d68-29e1-4225-ae9e-4425db0c4831"
                  },
                  {
                    "reference": "urn:uuid:27857054-8179-490e-8e49-4c3b1577cccb"
                  },
                  {
                    "reference": "urn:uuid:40ce6283-4357-4a44-b566-ae3c6b08a702"
                  },
                  {
                    "reference": "urn:uuid:e9ab057c-1cde-4f0c-b5a8-3855e30916d2"
                  }
                ],
                "text": {
                  "status": "generated",
                  "div": "<div xmlns=\"http://www.w3.org/1999/xhtml\"><h3>Hematology</h3><table class=\"hl7__eu__lab__report\"><thead><tr><th>Test</th><th>27-JAN-2025</th><th>Reference&#xA0;Range</th><th>Unit</th></tr></thead><tbody><tr><td>Leukocytes [#/volume] in Blood by Automated count</td><td>4.7</td><td>3.6 - 10.5</td><td>10*3/uL</td></tr><tr><td>Erythrocytes [#/volume] in Blood by Automated count</td><td>5.1</td><td>4.3 - 6.1</td><td>10*6/uL</td></tr><tr><td>Hemoglobin [Mass/volume] in Blood</td><td><strong>12.6 L</strong></td><td>13.5 - 17.5</td><td>g/dL</td></tr><tr><td>Hematocrit [Volume Fraction] of Blood by Automated count</td><td><strong>37.5 L</strong></td><td>38 - 50</td><td>%</td></tr><tr><td>MCV [Entitic volume] by Automated count</td><td>89.5</td><td>76 - 98</td><td>fL</td></tr><tr><td>MCH [Entitic mass] by Automated count</td><td>28.5</td><td>27 - 33</td><td>pg</td></tr><tr><td>MCHC [Mass/volume] by Automated count</td><td>33.6</td><td>31 - 37</td><td>g/dL</td></tr><tr><td>Erythrocyte distribution width [Ratio] by Automated count</td><td>15.3</td><td>11.6 - 16.5</td><td>%</td></tr><tr><td>Platelets [#/volume] in Blood by Automated count</td><td>257.2</td><td>155 - 415</td><td>10*3/uL</td></tr></tbody></table></div>"
                },
                "title": "Hematology"
              },
              {
                "code": {
                  "coding": [
                    {
                      "code": "$18719-5",
                      "system": "http://loinc.org",
                      "display": "Chemistry studies (set)"
                    }
                  ],
                  "text": "Chemistry"
                },
                "entry": [
                  {
                    "reference": "urn:uuid:7878df8c-de9f-4500-be55-d4faffd2881e"
                  },
                  {
                    "reference": "urn:uuid:d990ed76-00c0-4e16-875d-e00cc0aee8d9"
                  },
                  {
                    "reference": "urn:uuid:fa504128-6cbd-403b-9ee8-53ed08724e88"
                  },
                  {
                    "reference": "urn:uuid:108938f4-f01a-4c71-93b1-121f5db31081"
                  },
                  {
                    "reference": "urn:uuid:cdbec2d1-657a-49f4-98a3-2281de8e6348"
                  },
                  {
                    "reference": "urn:uuid:d45783f6-025d-4cdb-a4bb-d17ea6c88ae3"
                  },
                  {
                    "reference": "urn:uuid:990be708-9fa8-43d0-b9ad-7064c9c14d74"
                  },
                  {
                    "reference": "urn:uuid:04dd5fcf-e920-4a51-bb64-fbfba2cced04"
                  },
                  {
                    "reference": "urn:uuid:6fe16cfe-1cb3-4114-ac25-1940487c2ea1"
                  },
                  {
                    "reference": "urn:uuid:5084ce7d-003d-464a-8375-727eca344074"
                  },
                  {
                    "reference": "urn:uuid:37ff3f59-b3ba-4bb9-b6c3-01b3a343f883"
                  },
                  {
                    "reference": "urn:uuid:b8f3f0df-d26a-4194-8a33-5e5dd52f81fb"
                  },
                  {
                    "reference": "urn:uuid:956e1213-cef2-45e4-b8d2-cbb993464572"
                  },
                  {
                    "reference": "urn:uuid:e1fb4720-4fab-4556-9f01-d7b86c2d7812"
                  },
                  {
                    "reference": "urn:uuid:a9379701-1708-43ba-9e74-173fb33cbcc1"
                  },
                  {
                    "reference": "urn:uuid:e424ab9a-cc22-4b1d-a833-e128aecc3f1f"
                  },
                  {
                    "reference": "urn:uuid:8fa7a697-b373-4ab6-bf7c-b780a59a3d3d"
                  },
                  {
                    "reference": "urn:uuid:fad0dc1a-16f9-44ec-a17b-123c22fd771f"
                  },
                  {
                    "reference": "urn:uuid:cf6c87a2-eb0c-464d-bace-7c03a6ccd825"
                  },
                  {
                    "reference": "urn:uuid:89fef71c-a5bc-41ed-8dc9-b3ae6e8f0933"
                  },
                  {
                    "reference": "urn:uuid:dfa1e793-ab78-42a4-94ee-81e5b1d97b67"
                  },
                  {
                    "reference": "urn:uuid:cc00d101-3ade-43b7-bc3f-c9b9619f8c71"
                  },
                  {
                    "reference": "urn:uuid:42e0af9c-4a86-42a5-8a90-b5bb0561dc4b"
                  },
                  {
                    "reference": "urn:uuid:c9b641f4-e752-47ff-b663-ccbd94d963c4"
                  },
                  {
                    "reference": "urn:uuid:de91645f-e8b6-4dab-bad7-7cb1480341f2"
                  },
                  {
                    "reference": "urn:uuid:fc0116ca-bcbc-43bf-bb2a-5703ed7ace63"
                  },
                  {
                    "reference": "urn:uuid:a08d8310-87d4-4534-9c8b-bafab5773c75"
                  }
                ],
                "text": {
                  "status": "generated",
                  "div": "<div xmlns=\"http://www.w3.org/1999/xhtml\"><h3>Chemistry</h3><table class=\"hl7__eu__lab__report\"><thead><tr><th>Test</th><th>27-JAN-2025</th><th>Reference&#xA0;Range</th><th>Unit</th></tr></thead><tbody><tr><td>Oxygen saturation in Arterial blood</td><td><strong>80.0 L</strong></td><td>95 - 100</td><td>%</td></tr><tr><td>Natriuretic peptide.B prohormone N-Terminal [Mass/volume] in Serum or Plasma</td><td><strong>1570.4 H</strong></td><td>300 - 900</td><td>pg/mL</td></tr><tr><td>Glucose [Mass/volume] in Serum or Plasma</td><td><strong>190.4 H</strong></td><td>70 - 140</td><td>mg/dL</td></tr><tr><td>Urea nitrogen [Mass/volume] in Serum or Plasma</td><td>16.5</td><td>7 - 50</td><td>mg/dL</td></tr><tr><td>Creatinine [Mass/volume] in Serum or Plasma</td><td><strong>0.7 L</strong></td><td>0.9 - 1.3</td><td>mg/dL</td></tr><tr><td>Calcium [Mass/volume] in Serum or Plasma</td><td>9.5</td><td>8.5 - 10.5</td><td>mg/dL</td></tr><tr><td>Sodium [Moles/volume] in Serum or Plasma</td><td>142.2</td><td>135 - 145</td><td>mmol/L</td></tr><tr><td>Potassium [Moles/volume] in Serum or Plasma</td><td>4.2</td><td>3.5 - 5.1</td><td>mmol/L</td></tr><tr><td>Chloride [Moles/volume] in Serum or Plasma</td><td><strong>110.7 H</strong></td><td>98 - 108</td><td>mmol/L</td></tr><tr><td>Carbon dioxide, total [Moles/volume] in Serum or Plasma</td><td>25.7</td><td>22 - 32</td><td>mmol/L</td></tr><tr><td>Protein [Mass/volume] in Serum or Plasma</td><td>6.1</td><td>6 - 8.3</td><td>g/dL</td></tr><tr><td>Albumin [Mass/volume] in Serum or Plasma</td><td>4.3</td><td>3.5 - 5.5</td><td>g/dL</td></tr><tr><td>Bilirubin.total [Mass/volume] in Serum or Plasma</td><td>0.5</td><td>0.3 - 1.2</td><td>mg/dL</td></tr><tr><td>Alkaline phosphatase [Enzymatic activity/volume] in Serum or Plasma</td><td>109.8</td><td>40 - 117</td><td>U/L</td></tr><tr><td>Alanine aminotransferase [Enzymatic activity/volume] in Serum or Plasma</td><td>25.3</td><td>10 - 66</td><td>U/L</td></tr><tr><td>Aspartate aminotransferase [Enzymatic activity/volume] in Serum or Plasma</td><td><strong>3.3 L</strong></td><td>10 - 40</td><td>U/L</td></tr><tr><td>Magnesium [Mass/volume] in Serum or Plasma</td><td>2.2</td><td>1.6 - 2.6</td><td>mg/dL</td></tr><tr><td>Cholesterol [Mass/volume] in Serum or Plasma</td><td><strong>244.5 H</strong></td><td>0 - 200</td><td>mg/dL</td></tr><tr><td>Triglyceride [Mass/volume] in Serum or Plasma</td><td><strong>445.8 H</strong></td><td>0 - 199</td><td>mg/dL</td></tr><tr><td>Cholesterol in LDL [Mass/volume] in Serum or Plasma by Direct assay</td><td><strong>134.5 H</strong></td><td>0 - 130</td><td>mg/dL</td></tr><tr><td>Cholesterol in HDL [Mass/volume] in Serum or Plasma</td><td><strong>20.8 L</strong></td><td>40 - 100</td><td>mg/dL</td></tr><tr><td>Hemoglobin A1c/Hemoglobin.total in Blood</td><td>5.5</td><td>4.5 - 6.4</td><td>%</td></tr><tr><td>Troponin I.cardiac [Mass/volume] in Serum or Plasma by High sensitivity method</td><td>0.0</td><td>0 - 19.9</td><td>pg/mL</td></tr><tr><td>Ferritin [Mass/volume] in Serum or Plasma</td><td>84.3</td><td>30 - 300</td><td>ug/L</td></tr><tr><td>Iron [Mass/volume] in Serum or Plasma</td><td><strong>51.4 L</strong></td><td>65 - 300</td><td>ug/dL</td></tr><tr><td>Iron binding capacity [Mass/volume] in Serum or Plasma</td><td>393.0</td><td>250 - 450</td><td>ug/dL</td></tr><tr><td>Iron saturation [Mass Fraction] in Serum or Plasma</td><td>33.4</td><td>15 - 45</td><td>%</td></tr></tbody></table></div>"
                },
                "title": "Chemistry"
              }
            ],
            "title": "Laboratory Report"
          },
          {
            "text": {
              "status": "generated",
              "div": "<div xmlns=\"http://www.w3.org/1999/xhtml\"><h3>Annotation</h3><table class=\"hl7__eu__lab__report\"><tr><th>Conclusion and Recommendations based on this report and previous findings known to us</th></tr><tr><td>The patient shows significant hypoxemia, elevated NT-proBNP suggesting possible heart failure, mild normocytic anemia, hyperglycemia, dyslipidemia (high total cholesterol, LDL, triglycerides, low HDL), and mild iron deficiency. Creatinine is low but not clinically significant. No acute myocardial injury is indicated. The findings warrant urgent clinical evaluation for cardiac and respiratory compromise, and metabolic risk factors should be addressed.</td></tr></table></div>"
            },
            "code": {
              "coding": [
                {
                  "system": "http://loinc.org",
                  "code": "48767-8",
                  "display": "Annotation comment"
                }
              ]
            },
            "title": "Annotation comment"
          }
        ],
        "status": "final",
        "subject": {
          "reference": "urn:uuid:742fa009-b1cb-47b9-8d1c-b7265d0b1e4a",
          "display": "Timothy Smith"
        },
        "date": "2025-01-27T16:48:21Z",
        "title": "Laboratory Report",
        "confidentiality": "N"
      }
    },
    {
      "fullUrl": "urn:uuid:7cc83f29-d3c4-45a6-9ae6-ad881e4467e4",
      "resource": {
        "resourceType": "DiagnosticReport",
        "id": "7cc83f29-d3c4-45a6-9ae6-ad881e4467e4",
        "meta": {
          "profile": [
            "http://hl7.eu/fhir/laboratory/StructureDefinition/DiagnosticReport-eu-lab"
          ]
        },
        "identifier": [
          {
            "assigner": {
              "display": "HL7 Europe"
            },
            "system": "urn:oid:2.16.840.1.113883.2.51.999",
            "value": "d20712a3-4a94-43d0-83e9-6e8789eaaa15"
          }
        ],
        "extension": [
          {
            "url": "http://hl7.org/fhir/5.0/StructureDefinition/extension-DiagnosticReport.composition",
            "valueReference": {
              "reference": "urn:uuid:083d0836-6a32-4de2-9e19-b27d05299ebe"
            }
          }
        ],
        "category": [
          {
            "coding": [
              {
                "code": "26436-6",
                "system": "http://loinc.org",
                "display": "Laboratory studies (set)"
              }
            ]
          }
        ],
        "specimen": [
          {
            "reference": "urn:uuid:e1626b60-2734-436a-a454-31c7d46955ca"
          },
          {
            "reference": "urn:uuid:e68a83af-ae41-4408-848b-ddfd73b7181e"
          },
          {
            "reference": "urn:uuid:01bed8e9-5859-4112-b4c6-3d00dc6aa008"
          },
          {
            "reference": "urn:uuid:01bed8e9-5859-4112-b4c6-3d00dc6aa008"
          }
        ],
        "result": [
          {
            "reference": "urn:uuid:7878df8c-de9f-4500-be55-d4faffd2881e"
          },
          {
            "reference": "urn:uuid:d990ed76-00c0-4e16-875d-e00cc0aee8d9"
          },
          {
            "reference": "urn:uuid:61cf2e79-2ee6-4e0a-b31f-1f931cedc6d1"
          },
          {
            "reference": "urn:uuid:72156e3e-646e-47f3-a216-1e18d29b6d4b"
          },
          {
            "reference": "urn:uuid:64041b8d-94c3-4ed9-a9e3-33830135884a"
          },
          {
            "reference": "urn:uuid:022bb5d0-3b3c-462a-b598-390c323925fc"
          },
          {
            "reference": "urn:uuid:70286d79-e990-4ac7-81cb-849f9db09ad7"
          },
          {
            "reference": "urn:uuid:07d39d68-29e1-4225-ae9e-4425db0c4831"
          },
          {
            "reference": "urn:uuid:27857054-8179-490e-8e49-4c3b1577cccb"
          },
          {
            "reference": "urn:uuid:40ce6283-4357-4a44-b566-ae3c6b08a702"
          },
          {
            "reference": "urn:uuid:e9ab057c-1cde-4f0c-b5a8-3855e30916d2"
          },
          {
            "reference": "urn:uuid:fa504128-6cbd-403b-9ee8-53ed08724e88"
          },
          {
            "reference": "urn:uuid:108938f4-f01a-4c71-93b1-121f5db31081"
          },
          {
            "reference": "urn:uuid:cdbec2d1-657a-49f4-98a3-2281de8e6348"
          },
          {
            "reference": "urn:uuid:d45783f6-025d-4cdb-a4bb-d17ea6c88ae3"
          },
          {
            "reference": "urn:uuid:990be708-9fa8-43d0-b9ad-7064c9c14d74"
          },
          {
            "reference": "urn:uuid:04dd5fcf-e920-4a51-bb64-fbfba2cced04"
          },
          {
            "reference": "urn:uuid:6fe16cfe-1cb3-4114-ac25-1940487c2ea1"
          },
          {
            "reference": "urn:uuid:5084ce7d-003d-464a-8375-727eca344074"
          },
          {
            "reference": "urn:uuid:37ff3f59-b3ba-4bb9-b6c3-01b3a343f883"
          },
          {
            "reference": "urn:uuid:b8f3f0df-d26a-4194-8a33-5e5dd52f81fb"
          },
          {
            "reference": "urn:uuid:956e1213-cef2-45e4-b8d2-cbb993464572"
          },
          {
            "reference": "urn:uuid:e1fb4720-4fab-4556-9f01-d7b86c2d7812"
          },
          {
            "reference": "urn:uuid:a9379701-1708-43ba-9e74-173fb33cbcc1"
          },
          {
            "reference": "urn:uuid:e424ab9a-cc22-4b1d-a833-e128aecc3f1f"
          },
          {
            "reference": "urn:uuid:8fa7a697-b373-4ab6-bf7c-b780a59a3d3d"
          },
          {
            "reference": "urn:uuid:fad0dc1a-16f9-44ec-a17b-123c22fd771f"
          },
          {
            "reference": "urn:uuid:cf6c87a2-eb0c-464d-bace-7c03a6ccd825"
          },
          {
            "reference": "urn:uuid:89fef71c-a5bc-41ed-8dc9-b3ae6e8f0933"
          },
          {
            "reference": "urn:uuid:dfa1e793-ab78-42a4-94ee-81e5b1d97b67"
          },
          {
            "reference": "urn:uuid:cc00d101-3ade-43b7-bc3f-c9b9619f8c71"
          },
          {
            "reference": "urn:uuid:42e0af9c-4a86-42a5-8a90-b5bb0561dc4b"
          },
          {
            "reference": "urn:uuid:c9b641f4-e752-47ff-b663-ccbd94d963c4"
          },
          {
            "reference": "urn:uuid:de91645f-e8b6-4dab-bad7-7cb1480341f2"
          },
          {
            "reference": "urn:uuid:fc0116ca-bcbc-43bf-bb2a-5703ed7ace63"
          },
          {
            "reference": "urn:uuid:a08d8310-87d4-4534-9c8b-bafab5773c75"
          }
        ],
        "status": "registered",
        "code": {
          "coding": [
            {
              "code": "11502-2",
              "system": "http://loinc.org",
              "display": "Laboratory report"
            }
          ]
        },
        "subject": {
          "reference": "urn:uuid:742fa009-b1cb-47b9-8d1c-b7265d0b1e4a",
          "display": "Timothy Smith"
        }
      }
    },
    {
      "fullUrl": "urn:uuid:742fa009-b1cb-47b9-8d1c-b7265d0b1e4a",
      "resource": {
        "resourceType": "Patient",
        "id": "742fa009-b1cb-47b9-8d1c-b7265d0b1e4a",
        "meta": {
          "security": [
            {
              "system": "http://terminology.hl7.org/CodeSystem/v3-ActReason",
              "code": "HTEST"
            },
            {
              "system": "http://terminology.hl7.org/CodeSystem/v3-ActReason",
              "code": "TRAIN"
            }
          ],
          "tag": [
            {
              "system": "https://synderai.net/fhir/CodeSystem/tags",
              "code": "synthetic",
              "display": "SYNDERAI Synthetic data"
            }
          ],
          "profile": [
            "http://hl7.eu/fhir/base/StructureDefinition/patient-eu-core"
          ]
        },
        "identifier": [
          {
            "type": {
              "coding": [
                {
                  "code": "PT",
                  "system": "http://terminology.hl7.org/CodeSystem/v2-0203"
                }
              ]
            },
            "system": "http://ec.europa.eu/identifier/eci",
            "value": "8029-862360-6"
          },
          {
            "type": {
              "coding": [
                {
                  "code": "MR",
                  "system": "http://terminology.hl7.org/CodeSystem/v2-0203"
                }
              ]
            },
            "system": "http://local.setting.eu/identifier",
            "value": "1fe71aa8-fb8e-4622-d398-65f6235c4fef"
          }
        ],
        "name": [
          {
            "family": "Smith"
          },
          {
            "given": [
              "Timothy"
            ]
          },
          {
            "text": "Timothy Smith"
          }
        ],
        "address": [
          {
            "line": [
              "9 Jeffrey orchard"
            ],
            "use": "home",
            "type": "physical",
            "postalCode": "NW1",
            "city": "North Joshuaville",
            "country": "United Kingdom"
          }
        ],
        "telecom": [
          {
            "system": "phone",
            "value": "+44(0)28 9018592"
          }
        ],
        "extension": [
          {
            "url": "http://hl7.org/fhir/StructureDefinition/patient-nationality",
            "valueCodeableConcept": {
              "coding": [
                {
                  "code": "GB",
                  "system": "http://hl7.org/fhir/ValueSet/country"
                }
              ]
            }
          }
        ],
        "text": {
          "status": "generated",
          "div": "<div xmlns=\"http://www.w3.org/1999/xhtml\"><table class=\"hl7__ips\"><tr><td>Timothy Smith</td><td>male</td><td>10-Sep-1941</td></tr></table></div>"
        },
        "gender": "male",
        "birthDate": "1941-09-10"
      }
    },
    {
      "fullUrl": "urn:uuid:be1fc0dd-2ec1-44ef-8248-33a08f5977f7",
      "resource": {
        "resourceType": "ServiceRequest",
        "id": "be1fc0dd-2ec1-44ef-8248-33a08f5977f7",
        "meta": {
          "profile": [
            "http://hl7.eu/fhir/laboratory/StructureDefinition/ServiceRequest-eu-lab"
          ]
        },
        "identifier": [
          {
            "system": "http://example.org",
            "value": "4101d868-bd1a-4760-a000-35536fbc0332"
          }
        ],
        "specimen": [
          {
            "reference": "urn:uuid:e1626b60-2734-436a-a454-31c7d46955ca"
          },
          {
            "reference": "urn:uuid:e68a83af-ae41-4408-848b-ddfd73b7181e"
          },
          {
            "reference": "urn:uuid:01bed8e9-5859-4112-b4c6-3d00dc6aa008"
          }
        ],
        "reasonCode": [
          {
            "coding": [
              {
                "code": "88805009",
                "system": "http://snomed.info/sct",
                "display": "Chronic congestive heart failure"
              }
            ]
          },
          {
            "coding": [
              {
                "code": "60573004",
                "system": "http://snomed.info/sct",
                "display": "Aortic valve stenosis"
              }
            ]
          },
          {
            "coding": [
              {
                "code": "414545008",
                "system": "http://snomed.info/sct",
                "display": "Ischemic heart disease"
              }
            ]
          },
          {
            "coding": [
              {
                "code": "64859006",
                "system": "http://snomed.info/sct",
                "display": "Osteoporosis"
              }
            ]
          },
          {
            "coding": [
              {
                "code": "6525002",
                "system": "http://snomed.info/sct",
                "display": "Dependent drug abuse"
              }
            ]
          },
          {
            "coding": [
              {
                "code": "55822004",
                "system": "http://snomed.info/sct",
                "display": "Hyperlipidemia"
              }
            ]
          },
          {
            "coding": [
              {
                "code": "78275009",
                "system": "http://snomed.info/sct",
                "display": "Obstructive sleep apnea syndrome"
              }
            ]
          },
          {
            "coding": [
              {
                "code": "39898005",
                "system": "http://snomed.info/sct",
                "display": "Sleep disorder"
              }
            ]
          },
          {
            "coding": [
              {
                "code": "401314000",
                "system": "http://snomed.info/sct",
                "display": "Acute non-ST segment elevation myocardial infarction"
              }
            ]
          },
          {
            "coding": [
              {
                "code": "124171000119105",
                "system": "http://snomed.info/sct",
                "display": "Chronic intractable migraine without aura"
              }
            ]
          },
          {
            "coding": [
              {
                "code": "196416002",
                "system": "http://snomed.info/sct",
                "display": "Impacted molars"
              }
            ]
          },
          {
            "coding": [
              {
                "code": "59621000",
                "system": "http://snomed.info/sct",
                "display": "Essential hypertension"
              }
            ]
          },
          {
            "coding": [
              {
                "code": "80394007",
                "system": "http://snomed.info/sct",
                "display": "Hyperglycemia"
              }
            ]
          },
          {
            "coding": [
              {
                "code": "237602007",
                "system": "http://snomed.info/sct",
                "display": "Metabolic syndrome X"
              }
            ]
          },
          {
            "coding": [
              {
                "code": "302870006",
                "system": "http://snomed.info/sct",
                "display": "Hypertriglyceridemia"
              }
            ]
          },
          {
            "coding": [
              {
                "code": "44054006",
                "system": "http://snomed.info/sct",
                "display": "Type 2 diabetes mellitus"
              }
            ]
          },
          {
            "coding": [
              {
                "code": "271737000",
                "system": "http://snomed.info/sct",
                "display": "Anemia"
              }
            ]
          },
          {
            "coding": [
              {
                "code": "15777000",
                "system": "http://snomed.info/sct",
                "display": "Prediabetes"
              }
            ]
          }
        ],
        "status": "active",
        "intent": "order",
        "code": {
          "coding": [
            {
              "code": "108252007",
              "system": "http://snomed.info/sct",
              "display": "Laboratory procedure"
            }
          ]
        },
        "subject": {
          "reference": "urn:uuid:742fa009-b1cb-47b9-8d1c-b7265d0b1e4a",
          "display": "Timothy Smith"
        },
        "requester": {
          "reference": "urn:uuid:67a3e138-60b2-4ce2-95d1-b617b1d0bbfe"
        }
      }
    },
    {
      "fullUrl": "urn:uuid:67a3e138-60b2-4ce2-95d1-b617b1d0bbfe",
      "resource": {
        "resourceType": "PractitionerRole",
        "id": "67a3e138-60b2-4ce2-95d1-b617b1d0bbfe",
        "meta": {
          "profile": [
            "http://hl7.eu/fhir/base/StructureDefinition/practitionerRole-eu"
          ]
        },
        "text": {
          "status": "generated",
          "div": "<div xmlns=\"http://www.w3.org/1999/xhtml\">Provider Role Id: 67a3e138-60b2-4ce2-95d1-b617b1d0bbfe</div>"
        },
        "organization": {
          "reference": "urn:uuid:6c557d65-b532-433a-9f66-7ca77472db3e"
        }
      }
    },
    {
      "fullUrl": "urn:uuid:6c557d65-b532-433a-9f66-7ca77472db3e",
      "resource": {
        "resourceType": "Organization",
        "id": "6c557d65-b532-433a-9f66-7ca77472db3e",
        "meta": {
          "profile": [
            "http://hl7.eu/fhir/base/StructureDefinition/organization-eu"
          ]
        },
        "identifier": [
          {
            "assigner": {
              "display": "HL7 Europe"
            },
            "system": "urn:oid:2.16.840.1.113883.2.51.999",
            "value": "12fc0f24-1d13-4e54-ba1d-8d3a0cee398b"
          }
        ],
        "address": [
          {
            "city": "London",
            "postalCode": "SE1 7",
            "country": "United Kingdom"
          }
        ],
        "text": {
          "status": "generated",
          "div": "<div xmlns=\"http://www.w3.org/1999/xhtml\">Provider Organization: Evelina Children&#039;s Hospital</div>"
        },
        "name": "Evelina Children&#039;s Hospital"
      }
    },
    {
      "fullUrl": "urn:uuid:e1626b60-2734-436a-a454-31c7d46955ca",
      "resource": {
        "resourceType": "Specimen",
        "id": "e1626b60-2734-436a-a454-31c7d46955ca",
        "meta": {
          "profile": [
            "http://hl7.eu/fhir/laboratory/StructureDefinition/Specimen-eu-lab"
          ]
        },
        "collection": {
          "collectedDateTime": "2025-01-27"
        },
        "text": {
          "status": "generated",
          "div": "<div xmlns=\"http://www.w3.org/1999/xhtml\"><table class=\"hl7__eu__lab__report\"><tr><th>Specimen</th><th>Collection Date</th></tr><tr><td>Arterial blood specimen</td><td><span class=\"nb\">27-Jan-2025</span></td></tr></table></div>"
        },
        "type": {
          "coding": [
            {
              "code": "122552005",
              "system": "http://snomed.info/sct",
              "display": "Arterial blood specimen"
            }
          ]
        }
      }
    },
    {
      "fullUrl": "urn:uuid:e68a83af-ae41-4408-848b-ddfd73b7181e",
      "resource": {
        "resourceType": "Specimen",
        "id": "e68a83af-ae41-4408-848b-ddfd73b7181e",
        "meta": {
          "profile": [
            "http://hl7.eu/fhir/laboratory/StructureDefinition/Specimen-eu-lab"
          ]
        },
        "collection": {
          "collectedDateTime": "2025-01-27"
        },
        "text": {
          "status": "generated",
          "div": "<div xmlns=\"http://www.w3.org/1999/xhtml\"><table class=\"hl7__eu__lab__report\"><tr><th>Specimen</th><th>Collection Date</th></tr><tr><td>Acellular blood (serum or plasma) specimen</td><td><span class=\"nb\">27-Jan-2025</span></td></tr></table></div>"
        },
        "type": {
          "coding": [
            {
              "code": "122592007",
              "system": "http://snomed.info/sct",
              "display": "Acellular blood (serum or plasma) specimen"
            }
          ]
        }
      }
    },
    {
      "fullUrl": "urn:uuid:01bed8e9-5859-4112-b4c6-3d00dc6aa008",
      "resource": {
        "resourceType": "Specimen",
        "id": "01bed8e9-5859-4112-b4c6-3d00dc6aa008",
        "meta": {
          "profile": [
            "http://hl7.eu/fhir/laboratory/StructureDefinition/Specimen-eu-lab"
          ]
        },
        "collection": {
          "collectedDateTime": "2025-01-27"
        },
        "text": {
          "status": "generated",
          "div": "<div xmlns=\"http://www.w3.org/1999/xhtml\"><table class=\"hl7__eu__lab__report\"><tr><th>Specimen</th><th>Collection Date</th></tr><tr><td>Whole blood specimen (specimen)</td><td><span class=\"nb\">27-Jan-2025</span></td></tr></table></div>"
        },
        "type": {
          "coding": [
            {
              "code": "258580003",
              "system": "http://snomed.info/sct",
              "display": "Whole blood specimen (specimen)"
            }
          ]
        }
      }
    },
    {
      "fullUrl": "urn:uuid:01bed8e9-5859-4112-b4c6-3d00dc6aa008",
      "resource": {
        "resourceType": "Specimen",
        "id": "01bed8e9-5859-4112-b4c6-3d00dc6aa008",
        "meta": {
          "profile": [
            "http://hl7.eu/fhir/laboratory/StructureDefinition/Specimen-eu-lab"
          ]
        },
        "collection": {
          "collectedDateTime": "2025-01-27"
        },
        "text": {
          "status": "generated",
          "div": "<div xmlns=\"http://www.w3.org/1999/xhtml\"><table class=\"hl7__eu__lab__report\"><tr><th>Specimen</th><th>Collection Date</th></tr><tr><td>Whole blood specimen (specimen)</td><td><span class=\"nb\">27-Jan-2025</span></td></tr></table></div>"
        },
        "type": {
          "coding": [
            {
              "code": "258580003",
              "system": "http://snomed.info/sct",
              "display": "Whole blood specimen (specimen)"
            }
          ]
        }
      }
    },
    {
      "fullUrl": "urn:uuid:7878df8c-de9f-4500-be55-d4faffd2881e",
      "resource": {
        "resourceType": "Observation",
        "id": "7878df8c-de9f-4500-be55-d4faffd2881e",
        "meta": {
          "profile": [
            "http://hl7.eu/fhir/laboratory/StructureDefinition/Observation-resultslab-eu-lab"
          ]
        },
        "performer": [
          {
            "display": "The Central European Lab"
          }
        ],
        "category": [
          {
            "coding": [
              {
                "system": "http://terminology.hl7.org/CodeSystem/observation-category",
                "code": "laboratory"
              }
            ]
          }
        ],
        "code": {
          "coding": [
            {
              "code": "2708-6",
              "system": "http://loinc.org",
              "display": "Oxygen saturation in Arterial blood"
            }
          ],
          "text": "Oxygen saturation in Arterial blood"
        },
        "valueQuantity": {
          "system": "http://unitsofmeasure.org",
          "value": 80,
          "unit": "%",
          "code": "%"
        },
        "referenceRange": [
          {
            "low": {
              "value": 95,
              "code": "%",
              "system": "http://unitsofmeasure.org"
            }
          },
          {
            "high": {
              "value": 100,
              "code": "%",
              "system": "http://unitsofmeasure.org"
            }
          }
        ],
        "interpretation": [
          {
            "coding": [
              {
                "code": "L",
                "system": "http://terminology.hl7.org/CodeSystem/v3-ObservationInterpretation",
                "display": "Low"
              }
            ]
          }
        ],
        "text": {
          "status": "generated",
          "div": "<div xmlns=\"http://www.w3.org/1999/xhtml\"><table class=\"hl7__eu__lab__report\"><tr><th>Test</th><th>27-Jan-2025</th><th>Reference&#xA0;Range</th><th>Unit</th></tr><tr><td>Oxygen saturation in Arterial blood</td><td>80.0</td><td>95 - 100</td><td>L</td><td>%</td></tr></table></div>"
        },
        "status": "final",
        "subject": {
          "reference": "urn:uuid:742fa009-b1cb-47b9-8d1c-b7265d0b1e4a",
          "display": "Timothy Smith"
        },
        "effectiveDateTime": "2025-01-27T15:48:21Z",
        "specimen": {
          "reference": "urn:uuid:e1626b60-2734-436a-a454-31c7d46955ca"
        }
      }
    },
    {
      "fullUrl": "urn:uuid:d990ed76-00c0-4e16-875d-e00cc0aee8d9",
      "resource": {
        "resourceType": "Observation",
        "id": "d990ed76-00c0-4e16-875d-e00cc0aee8d9",
        "meta": {
          "profile": [
            "http://hl7.eu/fhir/laboratory/StructureDefinition/Observation-resultslab-eu-lab"
          ]
        },
        "performer": [
          {
            "display": "The Central European Lab"
          }
        ],
        "category": [
          {
            "coding": [
              {
                "system": "http://terminology.hl7.org/CodeSystem/observation-category",
                "code": "laboratory"
              }
            ]
          }
        ],
        "code": {
          "coding": [
            {
              "code": "33762-6",
              "system": "http://loinc.org",
              "display": "Natriuretic peptide.B prohormone N-Terminal [Mass/volume] in Serum or Plasma"
            }
          ],
          "text": "Natriuretic peptide.B prohormone N-Terminal [Mass/volume] in Serum or Plasma"
        },
        "valueQuantity": {
          "system": "http://unitsofmeasure.org",
          "value": 1570.4,
          "unit": "pg/mL",
          "code": "pg/mL"
        },
        "referenceRange": [
          {
            "low": {
              "value": 300,
              "code": "pg/mL",
              "system": "http://unitsofmeasure.org"
            }
          },
          {
            "high": {
              "value": 900,
              "code": "pg/mL",
              "system": "http://unitsofmeasure.org"
            }
          }
        ],
        "interpretation": [
          {
            "coding": [
              {
                "code": "H",
                "system": "http://terminology.hl7.org/CodeSystem/v3-ObservationInterpretation",
                "display": "High"
              }
            ]
          }
        ],
        "text": {
          "status": "generated",
          "div": "<div xmlns=\"http://www.w3.org/1999/xhtml\"><table class=\"hl7__eu__lab__report\"><tr><th>Test</th><th>27-Jan-2025</th><th>Reference&#xA0;Range</th><th>Unit</th></tr><tr><td>Natriuretic peptide.B prohormone N-Terminal [Mass/volume] in Serum or Plasma</td><td>1570.4</td><td>300 - 900</td><td>H</td><td>pg/mL</td></tr></table></div>"
        },
        "status": "final",
        "subject": {
          "reference": "urn:uuid:742fa009-b1cb-47b9-8d1c-b7265d0b1e4a",
          "display": "Timothy Smith"
        },
        "effectiveDateTime": "2025-01-27T15:48:21Z",
        "specimen": {
          "reference": "urn:uuid:e68a83af-ae41-4408-848b-ddfd73b7181e"
        }
      }
    },
    {
      "fullUrl": "urn:uuid:61cf2e79-2ee6-4e0a-b31f-1f931cedc6d1",
      "resource": {
        "resourceType": "Observation",
        "id": "61cf2e79-2ee6-4e0a-b31f-1f931cedc6d1",
        "meta": {
          "profile": [
            "http://hl7.eu/fhir/laboratory/StructureDefinition/Observation-resultslab-eu-lab"
          ]
        },
        "performer": [
          {
            "display": "The Central European Lab"
          }
        ],
        "category": [
          {
            "coding": [
              {
                "system": "http://terminology.hl7.org/CodeSystem/observation-category",
                "code": "laboratory"
              }
            ]
          }
        ],
        "code": {
          "coding": [
            {
              "code": "6690-2",
              "system": "http://loinc.org",
              "display": "Leukocytes [#/volume] in Blood by Automated count"
            }
          ],
          "text": "Leukocytes [#/volume] in Blood by Automated count"
        },
        "valueQuantity": {
          "system": "http://unitsofmeasure.org",
          "value": 4.7,
          "unit": "10*3/uL",
          "code": "10*3/uL"
        },
        "referenceRange": [
          {
            "low": {
              "value": 3.6,
              "code": "10*3/uL",
              "system": "http://unitsofmeasure.org"
            }
          },
          {
            "high": {
              "value": 10.5,
              "code": "10*3/uL",
              "system": "http://unitsofmeasure.org"
            }
          }
        ],
        "text": {
          "status": "generated",
          "div": "<div xmlns=\"http://www.w3.org/1999/xhtml\"><table class=\"hl7__eu__lab__report\"><tr><th>Test</th><th>27-Jan-2025</th><th>Reference&#xA0;Range</th><th>Unit</th></tr><tr><td>Leukocytes [#/volume] in Blood by Automated count</td><td>4.7</td><td>3.6 - 10.5</td><td></td><td>10*3/uL</td></tr></table></div>"
        },
        "status": "final",
        "subject": {
          "reference": "urn:uuid:742fa009-b1cb-47b9-8d1c-b7265d0b1e4a",
          "display": "Timothy Smith"
        },
        "effectiveDateTime": "2025-01-27T15:48:21Z",
        "specimen": {
          "reference": "urn:uuid:01bed8e9-5859-4112-b4c6-3d00dc6aa008"
        }
      }
    },
    {
      "fullUrl": "urn:uuid:72156e3e-646e-47f3-a216-1e18d29b6d4b",
      "resource": {
        "resourceType": "Observation",
        "id": "72156e3e-646e-47f3-a216-1e18d29b6d4b",
        "meta": {
          "profile": [
            "http://hl7.eu/fhir/laboratory/StructureDefinition/Observation-resultslab-eu-lab"
          ]
        },
        "performer": [
          {
            "display": "The Central European Lab"
          }
        ],
        "category": [
          {
            "coding": [
              {
                "system": "http://terminology.hl7.org/CodeSystem/observation-category",
                "code": "laboratory"
              }
            ]
          }
        ],
        "code": {
          "coding": [
            {
              "code": "789-8",
              "system": "http://loinc.org",
              "display": "Erythrocytes [#/volume] in Blood by Automated count"
            }
          ],
          "text": "Erythrocytes [#/volume] in Blood by Automated count"
        },
        "valueQuantity": {
          "system": "http://unitsofmeasure.org",
          "value": 5.1,
          "unit": "10*6/uL",
          "code": "10*6/uL"
        },
        "referenceRange": [
          {
            "low": {
              "value": 4.3,
              "code": "10*6/uL",
              "system": "http://unitsofmeasure.org"
            }
          },
          {
            "high": {
              "value": 6.1,
              "code": "10*6/uL",
              "system": "http://unitsofmeasure.org"
            }
          }
        ],
        "text": {
          "status": "generated",
          "div": "<div xmlns=\"http://www.w3.org/1999/xhtml\"><table class=\"hl7__eu__lab__report\"><tr><th>Test</th><th>27-Jan-2025</th><th>Reference&#xA0;Range</th><th>Unit</th></tr><tr><td>Erythrocytes [#/volume] in Blood by Automated count</td><td>5.1</td><td>4.3 - 6.1</td><td></td><td>10*6/uL</td></tr></table></div>"
        },
        "status": "final",
        "subject": {
          "reference": "urn:uuid:742fa009-b1cb-47b9-8d1c-b7265d0b1e4a",
          "display": "Timothy Smith"
        },
        "effectiveDateTime": "2025-01-27T15:48:21Z",
        "specimen": {
          "reference": "urn:uuid:01bed8e9-5859-4112-b4c6-3d00dc6aa008"
        }
      }
    },
    {
      "fullUrl": "urn:uuid:64041b8d-94c3-4ed9-a9e3-33830135884a",
      "resource": {
        "resourceType": "Observation",
        "id": "64041b8d-94c3-4ed9-a9e3-33830135884a",
        "meta": {
          "profile": [
            "http://hl7.eu/fhir/laboratory/StructureDefinition/Observation-resultslab-eu-lab"
          ]
        },
        "performer": [
          {
            "display": "The Central European Lab"
          }
        ],
        "category": [
          {
            "coding": [
              {
                "system": "http://terminology.hl7.org/CodeSystem/observation-category",
                "code": "laboratory"
              }
            ]
          }
        ],
        "code": {
          "coding": [
            {
              "code": "718-7",
              "system": "http://loinc.org",
              "display": "Hemoglobin [Mass/volume] in Blood"
            }
          ],
          "text": "Hemoglobin [Mass/volume] in Blood"
        },
        "valueQuantity": {
          "system": "http://unitsofmeasure.org",
          "value": 12.6,
          "unit": "g/dL",
          "code": "g/dL"
        },
        "referenceRange": [
          {
            "low": {
              "value": 13.5,
              "code": "g/dL",
              "system": "http://unitsofmeasure.org"
            }
          },
          {
            "high": {
              "value": 17.5,
              "code": "g/dL",
              "system": "http://unitsofmeasure.org"
            }
          }
        ],
        "interpretation": [
          {
            "coding": [
              {
                "code": "L",
                "system": "http://terminology.hl7.org/CodeSystem/v3-ObservationInterpretation",
                "display": "Low"
              }
            ]
          }
        ],
        "text": {
          "status": "generated",
          "div": "<div xmlns=\"http://www.w3.org/1999/xhtml\"><table class=\"hl7__eu__lab__report\"><tr><th>Test</th><th>27-Jan-2025</th><th>Reference&#xA0;Range</th><th>Unit</th></tr><tr><td>Hemoglobin [Mass/volume] in Blood</td><td>12.6</td><td>13.5 - 17.5</td><td>L</td><td>g/dL</td></tr></table></div>"
        },
        "status": "final",
        "subject": {
          "reference": "urn:uuid:742fa009-b1cb-47b9-8d1c-b7265d0b1e4a",
          "display": "Timothy Smith"
        },
        "effectiveDateTime": "2025-01-27T15:48:21Z",
        "specimen": {
          "reference": "urn:uuid:01bed8e9-5859-4112-b4c6-3d00dc6aa008"
        }
      }
    },
    {
      "fullUrl": "urn:uuid:022bb5d0-3b3c-462a-b598-390c323925fc",
      "resource": {
        "resourceType": "Observation",
        "id": "022bb5d0-3b3c-462a-b598-390c323925fc",
        "meta": {
          "profile": [
            "http://hl7.eu/fhir/laboratory/StructureDefinition/Observation-resultslab-eu-lab"
          ]
        },
        "performer": [
          {
            "display": "The Central European Lab"
          }
        ],
        "category": [
          {
            "coding": [
              {
                "system": "http://terminology.hl7.org/CodeSystem/observation-category",
                "code": "laboratory"
              }
            ]
          }
        ],
        "code": {
          "coding": [
            {
              "code": "4544-3",
              "system": "http://loinc.org",
              "display": "Hematocrit [Volume Fraction] of Blood by Automated count"
            }
          ],
          "text": "Hematocrit [Volume Fraction] of Blood by Automated count"
        },
        "valueQuantity": {
          "system": "http://unitsofmeasure.org",
          "value": 37.5,
          "unit": "%",
          "code": "%"
        },
        "referenceRange": [
          {
            "low": {
              "value": 38,
              "code": "%",
              "system": "http://unitsofmeasure.org"
            }
          },
          {
            "high": {
              "value": 50,
              "code": "%",
              "system": "http://unitsofmeasure.org"
            }
          }
        ],
        "interpretation": [
          {
            "coding": [
              {
                "code": "L",
                "system": "http://terminology.hl7.org/CodeSystem/v3-ObservationInterpretation",
                "display": "Low"
              }
            ]
          }
        ],
        "text": {
          "status": "generated",
          "div": "<div xmlns=\"http://www.w3.org/1999/xhtml\"><table class=\"hl7__eu__lab__report\"><tr><th>Test</th><th>27-Jan-2025</th><th>Reference&#xA0;Range</th><th>Unit</th></tr><tr><td>Hematocrit [Volume Fraction] of Blood by Automated count</td><td>37.5</td><td>38 - 50</td><td>L</td><td>%</td></tr></table></div>"
        },
        "status": "final",
        "subject": {
          "reference": "urn:uuid:742fa009-b1cb-47b9-8d1c-b7265d0b1e4a",
          "display": "Timothy Smith"
        },
        "effectiveDateTime": "2025-01-27T15:48:21Z",
        "specimen": {
          "reference": "urn:uuid:01bed8e9-5859-4112-b4c6-3d00dc6aa008"
        }
      }
    },
    {
      "fullUrl": "urn:uuid:70286d79-e990-4ac7-81cb-849f9db09ad7",
      "resource": {
        "resourceType": "Observation",
        "id": "70286d79-e990-4ac7-81cb-849f9db09ad7",
        "meta": {
          "profile": [
            "http://hl7.eu/fhir/laboratory/StructureDefinition/Observation-resultslab-eu-lab"
          ]
        },
        "performer": [
          {
            "display": "The Central European Lab"
          }
        ],
        "category": [
          {
            "coding": [
              {
                "system": "http://terminology.hl7.org/CodeSystem/observation-category",
                "code": "laboratory"
              }
            ]
          }
        ],
        "code": {
          "coding": [
            {
              "code": "787-2",
              "system": "http://loinc.org",
              "display": "MCV [Entitic volume] by Automated count"
            }
          ],
          "text": "MCV [Entitic volume] by Automated count"
        },
        "valueQuantity": {
          "system": "http://unitsofmeasure.org",
          "value": 89.5,
          "unit": "fL",
          "code": "fL"
        },
        "referenceRange": [
          {
            "low": {
              "value": 76,
              "code": "fL",
              "system": "http://unitsofmeasure.org"
            }
          },
          {
            "high": {
              "value": 98,
              "code": "fL",
              "system": "http://unitsofmeasure.org"
            }
          }
        ],
        "text": {
          "status": "generated",
          "div": "<div xmlns=\"http://www.w3.org/1999/xhtml\"><table class=\"hl7__eu__lab__report\"><tr><th>Test</th><th>27-Jan-2025</th><th>Reference&#xA0;Range</th><th>Unit</th></tr><tr><td>MCV [Entitic volume] by Automated count</td><td>89.5</td><td>76 - 98</td><td></td><td>fL</td></tr></table></div>"
        },
        "status": "final",
        "subject": {
          "reference": "urn:uuid:742fa009-b1cb-47b9-8d1c-b7265d0b1e4a",
          "display": "Timothy Smith"
        },
        "effectiveDateTime": "2025-01-27T15:48:21Z",
        "specimen": {
          "reference": "urn:uuid:01bed8e9-5859-4112-b4c6-3d00dc6aa008"
        }
      }
    },
    {
      "fullUrl": "urn:uuid:07d39d68-29e1-4225-ae9e-4425db0c4831",
      "resource": {
        "resourceType": "Observation",
        "id": "07d39d68-29e1-4225-ae9e-4425db0c4831",
        "meta": {
          "profile": [
            "http://hl7.eu/fhir/laboratory/StructureDefinition/Observation-resultslab-eu-lab"
          ]
        },
        "performer": [
          {
            "display": "The Central European Lab"
          }
        ],
        "category": [
          {
            "coding": [
              {
                "system": "http://terminology.hl7.org/CodeSystem/observation-category",
                "code": "laboratory"
              }
            ]
          }
        ],
        "code": {
          "coding": [
            {
              "code": "785-6",
              "system": "http://loinc.org",
              "display": "MCH [Entitic mass] by Automated count"
            }
          ],
          "text": "MCH [Entitic mass] by Automated count"
        },
        "valueQuantity": {
          "system": "http://unitsofmeasure.org",
          "value": 28.5,
          "unit": "pg",
          "code": "pg"
        },
        "referenceRange": [
          {
            "low": {
              "value": 27,
              "code": "pg",
              "system": "http://unitsofmeasure.org"
            }
          },
          {
            "high": {
              "value": 33,
              "code": "pg",
              "system": "http://unitsofmeasure.org"
            }
          }
        ],
        "text": {
          "status": "generated",
          "div": "<div xmlns=\"http://www.w3.org/1999/xhtml\"><table class=\"hl7__eu__lab__report\"><tr><th>Test</th><th>27-Jan-2025</th><th>Reference&#xA0;Range</th><th>Unit</th></tr><tr><td>MCH [Entitic mass] by Automated count</td><td>28.5</td><td>27 - 33</td><td></td><td>pg</td></tr></table></div>"
        },
        "status": "final",
        "subject": {
          "reference": "urn:uuid:742fa009-b1cb-47b9-8d1c-b7265d0b1e4a",
          "display": "Timothy Smith"
        },
        "effectiveDateTime": "2025-01-27T15:48:21Z",
        "specimen": {
          "reference": "urn:uuid:01bed8e9-5859-4112-b4c6-3d00dc6aa008"
        }
      }
    },
    {
      "fullUrl": "urn:uuid:27857054-8179-490e-8e49-4c3b1577cccb",
      "resource": {
        "resourceType": "Observation",
        "id": "27857054-8179-490e-8e49-4c3b1577cccb",
        "meta": {
          "profile": [
            "http://hl7.eu/fhir/laboratory/StructureDefinition/Observation-resultslab-eu-lab"
          ]
        },
        "performer": [
          {
            "display": "The Central European Lab"
          }
        ],
        "category": [
          {
            "coding": [
              {
                "system": "http://terminology.hl7.org/CodeSystem/observation-category",
                "code": "laboratory"
              }
            ]
          }
        ],
        "code": {
          "coding": [
            {
              "code": "786-4",
              "system": "http://loinc.org",
              "display": "MCHC [Mass/volume] by Automated count"
            }
          ],
          "text": "MCHC [Mass/volume] by Automated count"
        },
        "valueQuantity": {
          "system": "http://unitsofmeasure.org",
          "value": 33.6,
          "unit": "g/dL",
          "code": "g/dL"
        },
        "referenceRange": [
          {
            "low": {
              "value": 31,
              "code": "g/dL",
              "system": "http://unitsofmeasure.org"
            }
          },
          {
            "high": {
              "value": 37,
              "code": "g/dL",
              "system": "http://unitsofmeasure.org"
            }
          }
        ],
        "text": {
          "status": "generated",
          "div": "<div xmlns=\"http://www.w3.org/1999/xhtml\"><table class=\"hl7__eu__lab__report\"><tr><th>Test</th><th>27-Jan-2025</th><th>Reference&#xA0;Range</th><th>Unit</th></tr><tr><td>MCHC [Mass/volume] by Automated count</td><td>33.6</td><td>31 - 37</td><td></td><td>g/dL</td></tr></table></div>"
        },
        "status": "final",
        "subject": {
          "reference": "urn:uuid:742fa009-b1cb-47b9-8d1c-b7265d0b1e4a",
          "display": "Timothy Smith"
        },
        "effectiveDateTime": "2025-01-27T15:48:21Z",
        "specimen": {
          "reference": "urn:uuid:01bed8e9-5859-4112-b4c6-3d00dc6aa008"
        }
      }
    },
    {
      "fullUrl": "urn:uuid:40ce6283-4357-4a44-b566-ae3c6b08a702",
      "resource": {
        "resourceType": "Observation",
        "id": "40ce6283-4357-4a44-b566-ae3c6b08a702",
        "meta": {
          "profile": [
            "http://hl7.eu/fhir/laboratory/StructureDefinition/Observation-resultslab-eu-lab"
          ]
        },
        "performer": [
          {
            "display": "The Central European Lab"
          }
        ],
        "category": [
          {
            "coding": [
              {
                "system": "http://terminology.hl7.org/CodeSystem/observation-category",
                "code": "laboratory"
              }
            ]
          }
        ],
        "code": {
          "coding": [
            {
              "code": "788-0",
              "system": "http://loinc.org",
              "display": "Erythrocyte distribution width [Ratio] by Automated count"
            }
          ],
          "text": "Erythrocyte distribution width [Ratio] by Automated count"
        },
        "valueQuantity": {
          "system": "http://unitsofmeasure.org",
          "value": 15.3,
          "unit": "%",
          "code": "%"
        },
        "referenceRange": [
          {
            "low": {
              "value": 11.6,
              "code": "%",
              "system": "http://unitsofmeasure.org"
            }
          },
          {
            "high": {
              "value": 16.5,
              "code": "%",
              "system": "http://unitsofmeasure.org"
            }
          }
        ],
        "text": {
          "status": "generated",
          "div": "<div xmlns=\"http://www.w3.org/1999/xhtml\"><table class=\"hl7__eu__lab__report\"><tr><th>Test</th><th>27-Jan-2025</th><th>Reference&#xA0;Range</th><th>Unit</th></tr><tr><td>Erythrocyte distribution width [Ratio] by Automated count</td><td>15.3</td><td>11.6 - 16.5</td><td></td><td>%</td></tr></table></div>"
        },
        "status": "final",
        "subject": {
          "reference": "urn:uuid:742fa009-b1cb-47b9-8d1c-b7265d0b1e4a",
          "display": "Timothy Smith"
        },
        "effectiveDateTime": "2025-01-27T15:48:21Z",
        "specimen": {
          "reference": "urn:uuid:01bed8e9-5859-4112-b4c6-3d00dc6aa008"
        }
      }
    },
    {
      "fullUrl": "urn:uuid:e9ab057c-1cde-4f0c-b5a8-3855e30916d2",
      "resource": {
        "resourceType": "Observation",
        "id": "e9ab057c-1cde-4f0c-b5a8-3855e30916d2",
        "meta": {
          "profile": [
            "http://hl7.eu/fhir/laboratory/StructureDefinition/Observation-resultslab-eu-lab"
          ]
        },
        "performer": [
          {
            "display": "The Central European Lab"
          }
        ],
        "category": [
          {
            "coding": [
              {
                "system": "http://terminology.hl7.org/CodeSystem/observation-category",
                "code": "laboratory"
              }
            ]
          }
        ],
        "code": {
          "coding": [
            {
              "code": "777-3",
              "system": "http://loinc.org",
              "display": "Platelets [#/volume] in Blood by Automated count"
            }
          ],
          "text": "Platelets [#/volume] in Blood by Automated count"
        },
        "valueQuantity": {
          "system": "http://unitsofmeasure.org",
          "value": 257.2,
          "unit": "10*3/uL",
          "code": "10*3/uL"
        },
        "referenceRange": [
          {
            "low": {
              "value": 155,
              "code": "10*3/uL",
              "system": "http://unitsofmeasure.org"
            }
          },
          {
            "high": {
              "value": 415,
              "code": "10*3/uL",
              "system": "http://unitsofmeasure.org"
            }
          }
        ],
        "text": {
          "status": "generated",
          "div": "<div xmlns=\"http://www.w3.org/1999/xhtml\"><table class=\"hl7__eu__lab__report\"><tr><th>Test</th><th>27-Jan-2025</th><th>Reference&#xA0;Range</th><th>Unit</th></tr><tr><td>Platelets [#/volume] in Blood by Automated count</td><td>257.2</td><td>155 - 415</td><td></td><td>10*3/uL</td></tr></table></div>"
        },
        "status": "final",
        "subject": {
          "reference": "urn:uuid:742fa009-b1cb-47b9-8d1c-b7265d0b1e4a",
          "display": "Timothy Smith"
        },
        "effectiveDateTime": "2025-01-27T15:48:21Z",
        "specimen": {
          "reference": "urn:uuid:01bed8e9-5859-4112-b4c6-3d00dc6aa008"
        }
      }
    },
    {
      "fullUrl": "urn:uuid:fa504128-6cbd-403b-9ee8-53ed08724e88",
      "resource": {
        "resourceType": "Observation",
        "id": "fa504128-6cbd-403b-9ee8-53ed08724e88",
        "meta": {
          "profile": [
            "http://hl7.eu/fhir/laboratory/StructureDefinition/Observation-resultslab-eu-lab"
          ]
        },
        "performer": [
          {
            "display": "The Central European Lab"
          }
        ],
        "category": [
          {
            "coding": [
              {
                "system": "http://terminology.hl7.org/CodeSystem/observation-category",
                "code": "laboratory"
              }
            ]
          }
        ],
        "code": {
          "coding": [
            {
              "code": "2345-7",
              "system": "http://loinc.org",
              "display": "Glucose [Mass/volume] in Serum or Plasma"
            }
          ],
          "text": "Glucose [Mass/volume] in Serum or Plasma"
        },
        "valueQuantity": {
          "system": "http://unitsofmeasure.org",
          "value": 190.4,
          "unit": "mg/dL",
          "code": "mg/dL"
        },
        "referenceRange": [
          {
            "low": {
              "value": 70,
              "code": "mg/dL",
              "system": "http://unitsofmeasure.org"
            }
          },
          {
            "high": {
              "value": 140,
              "code": "mg/dL",
              "system": "http://unitsofmeasure.org"
            }
          }
        ],
        "interpretation": [
          {
            "coding": [
              {
                "code": "H",
                "system": "http://terminology.hl7.org/CodeSystem/v3-ObservationInterpretation",
                "display": "High"
              }
            ]
          }
        ],
        "text": {
          "status": "generated",
          "div": "<div xmlns=\"http://www.w3.org/1999/xhtml\"><table class=\"hl7__eu__lab__report\"><tr><th>Test</th><th>27-Jan-2025</th><th>Reference&#xA0;Range</th><th>Unit</th></tr><tr><td>Glucose [Mass/volume] in Serum or Plasma</td><td>190.4</td><td>70 - 140</td><td>H</td><td>mg/dL</td></tr></table></div>"
        },
        "status": "final",
        "subject": {
          "reference": "urn:uuid:742fa009-b1cb-47b9-8d1c-b7265d0b1e4a",
          "display": "Timothy Smith"
        },
        "effectiveDateTime": "2025-01-27T15:48:21Z",
        "specimen": {
          "reference": "urn:uuid:e68a83af-ae41-4408-848b-ddfd73b7181e"
        }
      }
    },
    {
      "fullUrl": "urn:uuid:108938f4-f01a-4c71-93b1-121f5db31081",
      "resource": {
        "resourceType": "Observation",
        "id": "108938f4-f01a-4c71-93b1-121f5db31081",
        "meta": {
          "profile": [
            "http://hl7.eu/fhir/laboratory/StructureDefinition/Observation-resultslab-eu-lab"
          ]
        },
        "performer": [
          {
            "display": "The Central European Lab"
          }
        ],
        "category": [
          {
            "coding": [
              {
                "system": "http://terminology.hl7.org/CodeSystem/observation-category",
                "code": "laboratory"
              }
            ]
          }
        ],
        "code": {
          "coding": [
            {
              "code": "3094-0",
              "system": "http://loinc.org",
              "display": "Urea nitrogen [Mass/volume] in Serum or Plasma"
            }
          ],
          "text": "Urea nitrogen [Mass/volume] in Serum or Plasma"
        },
        "valueQuantity": {
          "system": "http://unitsofmeasure.org",
          "value": 16.5,
          "unit": "mg/dL",
          "code": "mg/dL"
        },
        "referenceRange": [
          {
            "low": {
              "value": 7,
              "code": "mg/dL",
              "system": "http://unitsofmeasure.org"
            }
          },
          {
            "high": {
              "value": 50,
              "code": "mg/dL",
              "system": "http://unitsofmeasure.org"
            }
          }
        ],
        "text": {
          "status": "generated",
          "div": "<div xmlns=\"http://www.w3.org/1999/xhtml\"><table class=\"hl7__eu__lab__report\"><tr><th>Test</th><th>27-Jan-2025</th><th>Reference&#xA0;Range</th><th>Unit</th></tr><tr><td>Urea nitrogen [Mass/volume] in Serum or Plasma</td><td>16.5</td><td>7 - 50</td><td></td><td>mg/dL</td></tr></table></div>"
        },
        "status": "final",
        "subject": {
          "reference": "urn:uuid:742fa009-b1cb-47b9-8d1c-b7265d0b1e4a",
          "display": "Timothy Smith"
        },
        "effectiveDateTime": "2025-01-27T15:48:21Z",
        "specimen": {
          "reference": "urn:uuid:e68a83af-ae41-4408-848b-ddfd73b7181e"
        }
      }
    },
    {
      "fullUrl": "urn:uuid:cdbec2d1-657a-49f4-98a3-2281de8e6348",
      "resource": {
        "resourceType": "Observation",
        "id": "cdbec2d1-657a-49f4-98a3-2281de8e6348",
        "meta": {
          "profile": [
            "http://hl7.eu/fhir/laboratory/StructureDefinition/Observation-resultslab-eu-lab"
          ]
        },
        "performer": [
          {
            "display": "The Central European Lab"
          }
        ],
        "category": [
          {
            "coding": [
              {
                "system": "http://terminology.hl7.org/CodeSystem/observation-category",
                "code": "laboratory"
              }
            ]
          }
        ],
        "code": {
          "coding": [
            {
              "code": "2160-0",
              "system": "http://loinc.org",
              "display": "Creatinine [Mass/volume] in Serum or Plasma"
            }
          ],
          "text": "Creatinine [Mass/volume] in Serum or Plasma"
        },
        "valueQuantity": {
          "system": "http://unitsofmeasure.org",
          "value": 0.7,
          "unit": "mg/dL",
          "code": "mg/dL"
        },
        "referenceRange": [
          {
            "low": {
              "value": 0.9,
              "code": "mg/dL",
              "system": "http://unitsofmeasure.org"
            }
          },
          {
            "high": {
              "value": 1.3,
              "code": "mg/dL",
              "system": "http://unitsofmeasure.org"
            }
          }
        ],
        "interpretation": [
          {
            "coding": [
              {
                "code": "L",
                "system": "http://terminology.hl7.org/CodeSystem/v3-ObservationInterpretation",
                "display": "Low"
              }
            ]
          }
        ],
        "text": {
          "status": "generated",
          "div": "<div xmlns=\"http://www.w3.org/1999/xhtml\"><table class=\"hl7__eu__lab__report\"><tr><th>Test</th><th>27-Jan-2025</th><th>Reference&#xA0;Range</th><th>Unit</th></tr><tr><td>Creatinine [Mass/volume] in Serum or Plasma</td><td>0.7</td><td>0.9 - 1.3</td><td>L</td><td>mg/dL</td></tr></table></div>"
        },
        "status": "final",
        "subject": {
          "reference": "urn:uuid:742fa009-b1cb-47b9-8d1c-b7265d0b1e4a",
          "display": "Timothy Smith"
        },
        "effectiveDateTime": "2025-01-27T15:48:21Z",
        "specimen": {
          "reference": "urn:uuid:e68a83af-ae41-4408-848b-ddfd73b7181e"
        }
      }
    },
    {
      "fullUrl": "urn:uuid:d45783f6-025d-4cdb-a4bb-d17ea6c88ae3",
      "resource": {
        "resourceType": "Observation",
        "id": "d45783f6-025d-4cdb-a4bb-d17ea6c88ae3",
        "meta": {
          "profile": [
            "http://hl7.eu/fhir/laboratory/StructureDefinition/Observation-resultslab-eu-lab"
          ]
        },
        "performer": [
          {
            "display": "The Central European Lab"
          }
        ],
        "category": [
          {
            "coding": [
              {
                "system": "http://terminology.hl7.org/CodeSystem/observation-category",
                "code": "laboratory"
              }
            ]
          }
        ],
        "code": {
          "coding": [
            {
              "code": "17861-6",
              "system": "http://loinc.org",
              "display": "Calcium [Mass/volume] in Serum or Plasma"
            }
          ],
          "text": "Calcium [Mass/volume] in Serum or Plasma"
        },
        "valueQuantity": {
          "system": "http://unitsofmeasure.org",
          "value": 9.5,
          "unit": "mg/dL",
          "code": "mg/dL"
        },
        "referenceRange": [
          {
            "low": {
              "value": 8.5,
              "code": "mg/dL",
              "system": "http://unitsofmeasure.org"
            }
          },
          {
            "high": {
              "value": 10.5,
              "code": "mg/dL",
              "system": "http://unitsofmeasure.org"
            }
          }
        ],
        "text": {
          "status": "generated",
          "div": "<div xmlns=\"http://www.w3.org/1999/xhtml\"><table class=\"hl7__eu__lab__report\"><tr><th>Test</th><th>27-Jan-2025</th><th>Reference&#xA0;Range</th><th>Unit</th></tr><tr><td>Calcium [Mass/volume] in Serum or Plasma</td><td>9.5</td><td>8.5 - 10.5</td><td></td><td>mg/dL</td></tr></table></div>"
        },
        "status": "final",
        "subject": {
          "reference": "urn:uuid:742fa009-b1cb-47b9-8d1c-b7265d0b1e4a",
          "display": "Timothy Smith"
        },
        "effectiveDateTime": "2025-01-27T15:48:21Z",
        "specimen": {
          "reference": "urn:uuid:e68a83af-ae41-4408-848b-ddfd73b7181e"
        }
      }
    },
    {
      "fullUrl": "urn:uuid:990be708-9fa8-43d0-b9ad-7064c9c14d74",
      "resource": {
        "resourceType": "Observation",
        "id": "990be708-9fa8-43d0-b9ad-7064c9c14d74",
        "meta": {
          "profile": [
            "http://hl7.eu/fhir/laboratory/StructureDefinition/Observation-resultslab-eu-lab"
          ]
        },
        "performer": [
          {
            "display": "The Central European Lab"
          }
        ],
        "category": [
          {
            "coding": [
              {
                "system": "http://terminology.hl7.org/CodeSystem/observation-category",
                "code": "laboratory"
              }
            ]
          }
        ],
        "code": {
          "coding": [
            {
              "code": "2951-2",
              "system": "http://loinc.org",
              "display": "Sodium [Moles/volume] in Serum or Plasma"
            }
          ],
          "text": "Sodium [Moles/volume] in Serum or Plasma"
        },
        "valueQuantity": {
          "system": "http://unitsofmeasure.org",
          "value": 142.2,
          "unit": "mmol/L",
          "code": "mmol/L"
        },
        "referenceRange": [
          {
            "low": {
              "value": 135,
              "code": "mmol/L",
              "system": "http://unitsofmeasure.org"
            }
          },
          {
            "high": {
              "value": 145,
              "code": "mmol/L",
              "system": "http://unitsofmeasure.org"
            }
          }
        ],
        "text": {
          "status": "generated",
          "div": "<div xmlns=\"http://www.w3.org/1999/xhtml\"><table class=\"hl7__eu__lab__report\"><tr><th>Test</th><th>27-Jan-2025</th><th>Reference&#xA0;Range</th><th>Unit</th></tr><tr><td>Sodium [Moles/volume] in Serum or Plasma</td><td>142.2</td><td>135 - 145</td><td></td><td>mmol/L</td></tr></table></div>"
        },
        "status": "final",
        "subject": {
          "reference": "urn:uuid:742fa009-b1cb-47b9-8d1c-b7265d0b1e4a",
          "display": "Timothy Smith"
        },
        "effectiveDateTime": "2025-01-27T15:48:21Z",
        "specimen": {
          "reference": "urn:uuid:e68a83af-ae41-4408-848b-ddfd73b7181e"
        }
      }
    },
    {
      "fullUrl": "urn:uuid:04dd5fcf-e920-4a51-bb64-fbfba2cced04",
      "resource": {
        "resourceType": "Observation",
        "id": "04dd5fcf-e920-4a51-bb64-fbfba2cced04",
        "meta": {
          "profile": [
            "http://hl7.eu/fhir/laboratory/StructureDefinition/Observation-resultslab-eu-lab"
          ]
        },
        "performer": [
          {
            "display": "The Central European Lab"
          }
        ],
        "category": [
          {
            "coding": [
              {
                "system": "http://terminology.hl7.org/CodeSystem/observation-category",
                "code": "laboratory"
              }
            ]
          }
        ],
        "code": {
          "coding": [
            {
              "code": "2823-3",
              "system": "http://loinc.org",
              "display": "Potassium [Moles/volume] in Serum or Plasma"
            }
          ],
          "text": "Potassium [Moles/volume] in Serum or Plasma"
        },
        "valueQuantity": {
          "system": "http://unitsofmeasure.org",
          "value": 4.2,
          "unit": "mmol/L",
          "code": "mmol/L"
        },
        "referenceRange": [
          {
            "low": {
              "value": 3.5,
              "code": "mmol/L",
              "system": "http://unitsofmeasure.org"
            }
          },
          {
            "high": {
              "value": 5.1,
              "code": "mmol/L",
              "system": "http://unitsofmeasure.org"
            }
          }
        ],
        "text": {
          "status": "generated",
          "div": "<div xmlns=\"http://www.w3.org/1999/xhtml\"><table class=\"hl7__eu__lab__report\"><tr><th>Test</th><th>27-Jan-2025</th><th>Reference&#xA0;Range</th><th>Unit</th></tr><tr><td>Potassium [Moles/volume] in Serum or Plasma</td><td>4.2</td><td>3.5 - 5.1</td><td></td><td>mmol/L</td></tr></table></div>"
        },
        "status": "final",
        "subject": {
          "reference": "urn:uuid:742fa009-b1cb-47b9-8d1c-b7265d0b1e4a",
          "display": "Timothy Smith"
        },
        "effectiveDateTime": "2025-01-27T15:48:21Z",
        "specimen": {
          "reference": "urn:uuid:e68a83af-ae41-4408-848b-ddfd73b7181e"
        }
      }
    },
    {
      "fullUrl": "urn:uuid:6fe16cfe-1cb3-4114-ac25-1940487c2ea1",
      "resource": {
        "resourceType": "Observation",
        "id": "6fe16cfe-1cb3-4114-ac25-1940487c2ea1",
        "meta": {
          "profile": [
            "http://hl7.eu/fhir/laboratory/StructureDefinition/Observation-resultslab-eu-lab"
          ]
        },
        "performer": [
          {
            "display": "The Central European Lab"
          }
        ],
        "category": [
          {
            "coding": [
              {
                "system": "http://terminology.hl7.org/CodeSystem/observation-category",
                "code": "laboratory"
              }
            ]
          }
        ],
        "code": {
          "coding": [
            {
              "code": "2075-0",
              "system": "http://loinc.org",
              "display": "Chloride [Moles/volume] in Serum or Plasma"
            }
          ],
          "text": "Chloride [Moles/volume] in Serum or Plasma"
        },
        "valueQuantity": {
          "system": "http://unitsofmeasure.org",
          "value": 110.7,
          "unit": "mmol/L",
          "code": "mmol/L"
        },
        "referenceRange": [
          {
            "low": {
              "value": 98,
              "code": "mmol/L",
              "system": "http://unitsofmeasure.org"
            }
          },
          {
            "high": {
              "value": 108,
              "code": "mmol/L",
              "system": "http://unitsofmeasure.org"
            }
          }
        ],
        "interpretation": [
          {
            "coding": [
              {
                "code": "H",
                "system": "http://terminology.hl7.org/CodeSystem/v3-ObservationInterpretation",
                "display": "High"
              }
            ]
          }
        ],
        "text": {
          "status": "generated",
          "div": "<div xmlns=\"http://www.w3.org/1999/xhtml\"><table class=\"hl7__eu__lab__report\"><tr><th>Test</th><th>27-Jan-2025</th><th>Reference&#xA0;Range</th><th>Unit</th></tr><tr><td>Chloride [Moles/volume] in Serum or Plasma</td><td>110.7</td><td>98 - 108</td><td>H</td><td>mmol/L</td></tr></table></div>"
        },
        "status": "final",
        "subject": {
          "reference": "urn:uuid:742fa009-b1cb-47b9-8d1c-b7265d0b1e4a",
          "display": "Timothy Smith"
        },
        "effectiveDateTime": "2025-01-27T15:48:21Z",
        "specimen": {
          "reference": "urn:uuid:e68a83af-ae41-4408-848b-ddfd73b7181e"
        }
      }
    },
    {
      "fullUrl": "urn:uuid:5084ce7d-003d-464a-8375-727eca344074",
      "resource": {
        "resourceType": "Observation",
        "id": "5084ce7d-003d-464a-8375-727eca344074",
        "meta": {
          "profile": [
            "http://hl7.eu/fhir/laboratory/StructureDefinition/Observation-resultslab-eu-lab"
          ]
        },
        "performer": [
          {
            "display": "The Central European Lab"
          }
        ],
        "category": [
          {
            "coding": [
              {
                "system": "http://terminology.hl7.org/CodeSystem/observation-category",
                "code": "laboratory"
              }
            ]
          }
        ],
        "code": {
          "coding": [
            {
              "code": "2028-9",
              "system": "http://loinc.org",
              "display": "Carbon dioxide, total [Moles/volume] in Serum or Plasma"
            }
          ],
          "text": "Carbon dioxide, total [Moles/volume] in Serum or Plasma"
        },
        "valueQuantity": {
          "system": "http://unitsofmeasure.org",
          "value": 25.7,
          "unit": "mmol/L",
          "code": "mmol/L"
        },
        "referenceRange": [
          {
            "low": {
              "value": 22,
              "code": "mmol/L",
              "system": "http://unitsofmeasure.org"
            }
          },
          {
            "high": {
              "value": 32,
              "code": "mmol/L",
              "system": "http://unitsofmeasure.org"
            }
          }
        ],
        "text": {
          "status": "generated",
          "div": "<div xmlns=\"http://www.w3.org/1999/xhtml\"><table class=\"hl7__eu__lab__report\"><tr><th>Test</th><th>27-Jan-2025</th><th>Reference&#xA0;Range</th><th>Unit</th></tr><tr><td>Carbon dioxide, total [Moles/volume] in Serum or Plasma</td><td>25.7</td><td>22 - 32</td><td></td><td>mmol/L</td></tr></table></div>"
        },
        "status": "final",
        "subject": {
          "reference": "urn:uuid:742fa009-b1cb-47b9-8d1c-b7265d0b1e4a",
          "display": "Timothy Smith"
        },
        "effectiveDateTime": "2025-01-27T15:48:21Z",
        "specimen": {
          "reference": "urn:uuid:e68a83af-ae41-4408-848b-ddfd73b7181e"
        }
      }
    },
    {
      "fullUrl": "urn:uuid:37ff3f59-b3ba-4bb9-b6c3-01b3a343f883",
      "resource": {
        "resourceType": "Observation",
        "id": "37ff3f59-b3ba-4bb9-b6c3-01b3a343f883",
        "meta": {
          "profile": [
            "http://hl7.eu/fhir/laboratory/StructureDefinition/Observation-resultslab-eu-lab"
          ]
        },
        "performer": [
          {
            "display": "The Central European Lab"
          }
        ],
        "category": [
          {
            "coding": [
              {
                "system": "http://terminology.hl7.org/CodeSystem/observation-category",
                "code": "laboratory"
              }
            ]
          }
        ],
        "code": {
          "coding": [
            {
              "code": "2885-2",
              "system": "http://loinc.org",
              "display": "Protein [Mass/volume] in Serum or Plasma"
            }
          ],
          "text": "Protein [Mass/volume] in Serum or Plasma"
        },
        "valueQuantity": {
          "system": "http://unitsofmeasure.org",
          "value": 6.1,
          "unit": "g/dL",
          "code": "g/dL"
        },
        "referenceRange": [
          {
            "low": {
              "value": 6,
              "code": "g/dL",
              "system": "http://unitsofmeasure.org"
            }
          },
          {
            "high": {
              "value": 8.3,
              "code": "g/dL",
              "system": "http://unitsofmeasure.org"
            }
          }
        ],
        "text": {
          "status": "generated",
          "div": "<div xmlns=\"http://www.w3.org/1999/xhtml\"><table class=\"hl7__eu__lab__report\"><tr><th>Test</th><th>27-Jan-2025</th><th>Reference&#xA0;Range</th><th>Unit</th></tr><tr><td>Protein [Mass/volume] in Serum or Plasma</td><td>6.1</td><td>6 - 8.3</td><td></td><td>g/dL</td></tr></table></div>"
        },
        "status": "final",
        "subject": {
          "reference": "urn:uuid:742fa009-b1cb-47b9-8d1c-b7265d0b1e4a",
          "display": "Timothy Smith"
        },
        "effectiveDateTime": "2025-01-27T15:48:21Z",
        "specimen": {
          "reference": "urn:uuid:e68a83af-ae41-4408-848b-ddfd73b7181e"
        }
      }
    },
    {
      "fullUrl": "urn:uuid:b8f3f0df-d26a-4194-8a33-5e5dd52f81fb",
      "resource": {
        "resourceType": "Observation",
        "id": "b8f3f0df-d26a-4194-8a33-5e5dd52f81fb",
        "meta": {
          "profile": [
            "http://hl7.eu/fhir/laboratory/StructureDefinition/Observation-resultslab-eu-lab"
          ]
        },
        "performer": [
          {
            "display": "The Central European Lab"
          }
        ],
        "category": [
          {
            "coding": [
              {
                "system": "http://terminology.hl7.org/CodeSystem/observation-category",
                "code": "laboratory"
              }
            ]
          }
        ],
        "code": {
          "coding": [
            {
              "code": "1751-7",
              "system": "http://loinc.org",
              "display": "Albumin [Mass/volume] in Serum or Plasma"
            }
          ],
          "text": "Albumin [Mass/volume] in Serum or Plasma"
        },
        "valueQuantity": {
          "system": "http://unitsofmeasure.org",
          "value": 4.3,
          "unit": "g/dL",
          "code": "g/dL"
        },
        "referenceRange": [
          {
            "low": {
              "value": 3.5,
              "code": "g/dL",
              "system": "http://unitsofmeasure.org"
            }
          },
          {
            "high": {
              "value": 5.5,
              "code": "g/dL",
              "system": "http://unitsofmeasure.org"
            }
          }
        ],
        "text": {
          "status": "generated",
          "div": "<div xmlns=\"http://www.w3.org/1999/xhtml\"><table class=\"hl7__eu__lab__report\"><tr><th>Test</th><th>27-Jan-2025</th><th>Reference&#xA0;Range</th><th>Unit</th></tr><tr><td>Albumin [Mass/volume] in Serum or Plasma</td><td>4.3</td><td>3.5 - 5.5</td><td></td><td>g/dL</td></tr></table></div>"
        },
        "status": "final",
        "subject": {
          "reference": "urn:uuid:742fa009-b1cb-47b9-8d1c-b7265d0b1e4a",
          "display": "Timothy Smith"
        },
        "effectiveDateTime": "2025-01-27T15:48:21Z",
        "specimen": {
          "reference": "urn:uuid:e68a83af-ae41-4408-848b-ddfd73b7181e"
        }
      }
    },
    {
      "fullUrl": "urn:uuid:956e1213-cef2-45e4-b8d2-cbb993464572",
      "resource": {
        "resourceType": "Observation",
        "id": "956e1213-cef2-45e4-b8d2-cbb993464572",
        "meta": {
          "profile": [
            "http://hl7.eu/fhir/laboratory/StructureDefinition/Observation-resultslab-eu-lab"
          ]
        },
        "performer": [
          {
            "display": "The Central European Lab"
          }
        ],
        "category": [
          {
            "coding": [
              {
                "system": "http://terminology.hl7.org/CodeSystem/observation-category",
                "code": "laboratory"
              }
            ]
          }
        ],
        "code": {
          "coding": [
            {
              "code": "1975-2",
              "system": "http://loinc.org",
              "display": "Bilirubin.total [Mass/volume] in Serum or Plasma"
            }
          ],
          "text": "Bilirubin.total [Mass/volume] in Serum or Plasma"
        },
        "valueQuantity": {
          "system": "http://unitsofmeasure.org",
          "value": 0.5,
          "unit": "mg/dL",
          "code": "mg/dL"
        },
        "referenceRange": [
          {
            "low": {
              "value": 0.3,
              "code": "mg/dL",
              "system": "http://unitsofmeasure.org"
            }
          },
          {
            "high": {
              "value": 1.2,
              "code": "mg/dL",
              "system": "http://unitsofmeasure.org"
            }
          }
        ],
        "text": {
          "status": "generated",
          "div": "<div xmlns=\"http://www.w3.org/1999/xhtml\"><table class=\"hl7__eu__lab__report\"><tr><th>Test</th><th>27-Jan-2025</th><th>Reference&#xA0;Range</th><th>Unit</th></tr><tr><td>Bilirubin.total [Mass/volume] in Serum or Plasma</td><td>0.5</td><td>0.3 - 1.2</td><td></td><td>mg/dL</td></tr></table></div>"
        },
        "status": "final",
        "subject": {
          "reference": "urn:uuid:742fa009-b1cb-47b9-8d1c-b7265d0b1e4a",
          "display": "Timothy Smith"
        },
        "effectiveDateTime": "2025-01-27T15:48:21Z",
        "specimen": {
          "reference": "urn:uuid:e68a83af-ae41-4408-848b-ddfd73b7181e"
        }
      }
    },
    {
      "fullUrl": "urn:uuid:e1fb4720-4fab-4556-9f01-d7b86c2d7812",
      "resource": {
        "resourceType": "Observation",
        "id": "e1fb4720-4fab-4556-9f01-d7b86c2d7812",
        "meta": {
          "profile": [
            "http://hl7.eu/fhir/laboratory/StructureDefinition/Observation-resultslab-eu-lab"
          ]
        },
        "performer": [
          {
            "display": "The Central European Lab"
          }
        ],
        "category": [
          {
            "coding": [
              {
                "system": "http://terminology.hl7.org/CodeSystem/observation-category",
                "code": "laboratory"
              }
            ]
          }
        ],
        "code": {
          "coding": [
            {
              "code": "6768-6",
              "system": "http://loinc.org",
              "display": "Alkaline phosphatase [Enzymatic activity/volume] in Serum or Plasma"
            }
          ],
          "text": "Alkaline phosphatase [Enzymatic activity/volume] in Serum or Plasma"
        },
        "valueQuantity": {
          "system": "http://unitsofmeasure.org",
          "value": 109.8,
          "unit": "U/L",
          "code": "U/L"
        },
        "referenceRange": [
          {
            "low": {
              "value": 40,
              "code": "U/L",
              "system": "http://unitsofmeasure.org"
            }
          },
          {
            "high": {
              "value": 117,
              "code": "U/L",
              "system": "http://unitsofmeasure.org"
            }
          }
        ],
        "text": {
          "status": "generated",
          "div": "<div xmlns=\"http://www.w3.org/1999/xhtml\"><table class=\"hl7__eu__lab__report\"><tr><th>Test</th><th>27-Jan-2025</th><th>Reference&#xA0;Range</th><th>Unit</th></tr><tr><td>Alkaline phosphatase [Enzymatic activity/volume] in Serum or Plasma</td><td>109.8</td><td>40 - 117</td><td></td><td>U/L</td></tr></table></div>"
        },
        "status": "final",
        "subject": {
          "reference": "urn:uuid:742fa009-b1cb-47b9-8d1c-b7265d0b1e4a",
          "display": "Timothy Smith"
        },
        "effectiveDateTime": "2025-01-27T15:48:21Z",
        "specimen": {
          "reference": "urn:uuid:e68a83af-ae41-4408-848b-ddfd73b7181e"
        }
      }
    },
    {
      "fullUrl": "urn:uuid:a9379701-1708-43ba-9e74-173fb33cbcc1",
      "resource": {
        "resourceType": "Observation",
        "id": "a9379701-1708-43ba-9e74-173fb33cbcc1",
        "meta": {
          "profile": [
            "http://hl7.eu/fhir/laboratory/StructureDefinition/Observation-resultslab-eu-lab"
          ]
        },
        "performer": [
          {
            "display": "The Central European Lab"
          }
        ],
        "category": [
          {
            "coding": [
              {
                "system": "http://terminology.hl7.org/CodeSystem/observation-category",
                "code": "laboratory"
              }
            ]
          }
        ],
        "code": {
          "coding": [
            {
              "code": "1742-6",
              "system": "http://loinc.org",
              "display": "Alanine aminotransferase [Enzymatic activity/volume] in Serum or Plasma"
            }
          ],
          "text": "Alanine aminotransferase [Enzymatic activity/volume] in Serum or Plasma"
        },
        "valueQuantity": {
          "system": "http://unitsofmeasure.org",
          "value": 25.3,
          "unit": "U/L",
          "code": "U/L"
        },
        "referenceRange": [
          {
            "low": {
              "value": 10,
              "code": "U/L",
              "system": "http://unitsofmeasure.org"
            }
          },
          {
            "high": {
              "value": 66,
              "code": "U/L",
              "system": "http://unitsofmeasure.org"
            }
          }
        ],
        "text": {
          "status": "generated",
          "div": "<div xmlns=\"http://www.w3.org/1999/xhtml\"><table class=\"hl7__eu__lab__report\"><tr><th>Test</th><th>27-Jan-2025</th><th>Reference&#xA0;Range</th><th>Unit</th></tr><tr><td>Alanine aminotransferase [Enzymatic activity/volume] in Serum or Plasma</td><td>25.3</td><td>10 - 66</td><td></td><td>U/L</td></tr></table></div>"
        },
        "status": "final",
        "subject": {
          "reference": "urn:uuid:742fa009-b1cb-47b9-8d1c-b7265d0b1e4a",
          "display": "Timothy Smith"
        },
        "effectiveDateTime": "2025-01-27T15:48:21Z",
        "specimen": {
          "reference": "urn:uuid:e68a83af-ae41-4408-848b-ddfd73b7181e"
        }
      }
    },
    {
      "fullUrl": "urn:uuid:e424ab9a-cc22-4b1d-a833-e128aecc3f1f",
      "resource": {
        "resourceType": "Observation",
        "id": "e424ab9a-cc22-4b1d-a833-e128aecc3f1f",
        "meta": {
          "profile": [
            "http://hl7.eu/fhir/laboratory/StructureDefinition/Observation-resultslab-eu-lab"
          ]
        },
        "performer": [
          {
            "display": "The Central European Lab"
          }
        ],
        "category": [
          {
            "coding": [
              {
                "system": "http://terminology.hl7.org/CodeSystem/observation-category",
                "code": "laboratory"
              }
            ]
          }
        ],
        "code": {
          "coding": [
            {
              "code": "1920-8",
              "system": "http://loinc.org",
              "display": "Aspartate aminotransferase [Enzymatic activity/volume] in Serum or Plasma"
            }
          ],
          "text": "Aspartate aminotransferase [Enzymatic activity/volume] in Serum or Plasma"
        },
        "valueQuantity": {
          "system": "http://unitsofmeasure.org",
          "value": 3.3,
          "unit": "U/L",
          "code": "U/L"
        },
        "referenceRange": [
          {
            "low": {
              "value": 10,
              "code": "U/L",
              "system": "http://unitsofmeasure.org"
            }
          },
          {
            "high": {
              "value": 40,
              "code": "U/L",
              "system": "http://unitsofmeasure.org"
            }
          }
        ],
        "interpretation": [
          {
            "coding": [
              {
                "code": "L",
                "system": "http://terminology.hl7.org/CodeSystem/v3-ObservationInterpretation",
                "display": "Low"
              }
            ]
          }
        ],
        "text": {
          "status": "generated",
          "div": "<div xmlns=\"http://www.w3.org/1999/xhtml\"><table class=\"hl7__eu__lab__report\"><tr><th>Test</th><th>27-Jan-2025</th><th>Reference&#xA0;Range</th><th>Unit</th></tr><tr><td>Aspartate aminotransferase [Enzymatic activity/volume] in Serum or Plasma</td><td>3.3</td><td>10 - 40</td><td>L</td><td>U/L</td></tr></table></div>"
        },
        "status": "final",
        "subject": {
          "reference": "urn:uuid:742fa009-b1cb-47b9-8d1c-b7265d0b1e4a",
          "display": "Timothy Smith"
        },
        "effectiveDateTime": "2025-01-27T15:48:21Z",
        "specimen": {
          "reference": "urn:uuid:e68a83af-ae41-4408-848b-ddfd73b7181e"
        }
      }
    },
    {
      "fullUrl": "urn:uuid:8fa7a697-b373-4ab6-bf7c-b780a59a3d3d",
      "resource": {
        "resourceType": "Observation",
        "id": "8fa7a697-b373-4ab6-bf7c-b780a59a3d3d",
        "meta": {
          "profile": [
            "http://hl7.eu/fhir/laboratory/StructureDefinition/Observation-resultslab-eu-lab"
          ]
        },
        "performer": [
          {
            "display": "The Central European Lab"
          }
        ],
        "category": [
          {
            "coding": [
              {
                "system": "http://terminology.hl7.org/CodeSystem/observation-category",
                "code": "laboratory"
              }
            ]
          }
        ],
        "code": {
          "coding": [
            {
              "code": "19123-9",
              "system": "http://loinc.org",
              "display": "Magnesium [Mass/volume] in Serum or Plasma"
            }
          ],
          "text": "Magnesium [Mass/volume] in Serum or Plasma"
        },
        "valueQuantity": {
          "system": "http://unitsofmeasure.org",
          "value": 2.2,
          "unit": "mg/dL",
          "code": "mg/dL"
        },
        "referenceRange": [
          {
            "low": {
              "value": 1.6,
              "code": "mg/dL",
              "system": "http://unitsofmeasure.org"
            }
          },
          {
            "high": {
              "value": 2.6,
              "code": "mg/dL",
              "system": "http://unitsofmeasure.org"
            }
          }
        ],
        "text": {
          "status": "generated",
          "div": "<div xmlns=\"http://www.w3.org/1999/xhtml\"><table class=\"hl7__eu__lab__report\"><tr><th>Test</th><th>27-Jan-2025</th><th>Reference&#xA0;Range</th><th>Unit</th></tr><tr><td>Magnesium [Mass/volume] in Serum or Plasma</td><td>2.2</td><td>1.6 - 2.6</td><td></td><td>mg/dL</td></tr></table></div>"
        },
        "status": "final",
        "subject": {
          "reference": "urn:uuid:742fa009-b1cb-47b9-8d1c-b7265d0b1e4a",
          "display": "Timothy Smith"
        },
        "effectiveDateTime": "2025-01-27T15:48:21Z",
        "specimen": {
          "reference": "urn:uuid:e68a83af-ae41-4408-848b-ddfd73b7181e"
        }
      }
    },
    {
      "fullUrl": "urn:uuid:fad0dc1a-16f9-44ec-a17b-123c22fd771f",
      "resource": {
        "resourceType": "Observation",
        "id": "fad0dc1a-16f9-44ec-a17b-123c22fd771f",
        "meta": {
          "profile": [
            "http://hl7.eu/fhir/laboratory/StructureDefinition/Observation-resultslab-eu-lab"
          ]
        },
        "performer": [
          {
            "display": "The Central European Lab"
          }
        ],
        "category": [
          {
            "coding": [
              {
                "system": "http://terminology.hl7.org/CodeSystem/observation-category",
                "code": "laboratory"
              }
            ]
          }
        ],
        "code": {
          "coding": [
            {
              "code": "2093-3",
              "system": "http://loinc.org",
              "display": "Cholesterol [Mass/volume] in Serum or Plasma"
            }
          ],
          "text": "Cholesterol [Mass/volume] in Serum or Plasma"
        },
        "valueQuantity": {
          "system": "http://unitsofmeasure.org",
          "value": 244.5,
          "unit": "mg/dL",
          "code": "mg/dL"
        },
        "referenceRange": [
          {
            "low": {
              "value": 0,
              "code": "mg/dL",
              "system": "http://unitsofmeasure.org"
            }
          },
          {
            "high": {
              "value": 200,
              "code": "mg/dL",
              "system": "http://unitsofmeasure.org"
            }
          }
        ],
        "interpretation": [
          {
            "coding": [
              {
                "code": "H",
                "system": "http://terminology.hl7.org/CodeSystem/v3-ObservationInterpretation",
                "display": "High"
              }
            ]
          }
        ],
        "text": {
          "status": "generated",
          "div": "<div xmlns=\"http://www.w3.org/1999/xhtml\"><table class=\"hl7__eu__lab__report\"><tr><th>Test</th><th>27-Jan-2025</th><th>Reference&#xA0;Range</th><th>Unit</th></tr><tr><td>Cholesterol [Mass/volume] in Serum or Plasma</td><td>244.5</td><td>0 - 200</td><td>H</td><td>mg/dL</td></tr></table></div>"
        },
        "status": "final",
        "subject": {
          "reference": "urn:uuid:742fa009-b1cb-47b9-8d1c-b7265d0b1e4a",
          "display": "Timothy Smith"
        },
        "effectiveDateTime": "2025-01-27T15:48:21Z",
        "specimen": {
          "reference": "urn:uuid:e68a83af-ae41-4408-848b-ddfd73b7181e"
        }
      }
    },
    {
      "fullUrl": "urn:uuid:cf6c87a2-eb0c-464d-bace-7c03a6ccd825",
      "resource": {
        "resourceType": "Observation",
        "id": "cf6c87a2-eb0c-464d-bace-7c03a6ccd825",
        "meta": {
          "profile": [
            "http://hl7.eu/fhir/laboratory/StructureDefinition/Observation-resultslab-eu-lab"
          ]
        },
        "performer": [
          {
            "display": "The Central European Lab"
          }
        ],
        "category": [
          {
            "coding": [
              {
                "system": "http://terminology.hl7.org/CodeSystem/observation-category",
                "code": "laboratory"
              }
            ]
          }
        ],
        "code": {
          "coding": [
            {
              "code": "2571-8",
              "system": "http://loinc.org",
              "display": "Triglyceride [Mass/volume] in Serum or Plasma"
            }
          ],
          "text": "Triglyceride [Mass/volume] in Serum or Plasma"
        },
        "valueQuantity": {
          "system": "http://unitsofmeasure.org",
          "value": 445.8,
          "unit": "mg/dL",
          "code": "mg/dL"
        },
        "referenceRange": [
          {
            "low": {
              "value": 0,
              "code": "mg/dL",
              "system": "http://unitsofmeasure.org"
            }
          },
          {
            "high": {
              "value": 199,
              "code": "mg/dL",
              "system": "http://unitsofmeasure.org"
            }
          }
        ],
        "interpretation": [
          {
            "coding": [
              {
                "code": "H",
                "system": "http://terminology.hl7.org/CodeSystem/v3-ObservationInterpretation",
                "display": "High"
              }
            ]
          }
        ],
        "text": {
          "status": "generated",
          "div": "<div xmlns=\"http://www.w3.org/1999/xhtml\"><table class=\"hl7__eu__lab__report\"><tr><th>Test</th><th>27-Jan-2025</th><th>Reference&#xA0;Range</th><th>Unit</th></tr><tr><td>Triglyceride [Mass/volume] in Serum or Plasma</td><td>445.8</td><td>0 - 199</td><td>H</td><td>mg/dL</td></tr></table></div>"
        },
        "status": "final",
        "subject": {
          "reference": "urn:uuid:742fa009-b1cb-47b9-8d1c-b7265d0b1e4a",
          "display": "Timothy Smith"
        },
        "effectiveDateTime": "2025-01-27T15:48:21Z",
        "specimen": {
          "reference": "urn:uuid:e68a83af-ae41-4408-848b-ddfd73b7181e"
        }
      }
    },
    {
      "fullUrl": "urn:uuid:89fef71c-a5bc-41ed-8dc9-b3ae6e8f0933",
      "resource": {
        "resourceType": "Observation",
        "id": "89fef71c-a5bc-41ed-8dc9-b3ae6e8f0933",
        "meta": {
          "profile": [
            "http://hl7.eu/fhir/laboratory/StructureDefinition/Observation-resultslab-eu-lab"
          ]
        },
        "performer": [
          {
            "display": "The Central European Lab"
          }
        ],
        "category": [
          {
            "coding": [
              {
                "system": "http://terminology.hl7.org/CodeSystem/observation-category",
                "code": "laboratory"
              }
            ]
          }
        ],
        "code": {
          "coding": [
            {
              "code": "18262-6",
              "system": "http://loinc.org",
              "display": "Cholesterol in LDL [Mass/volume] in Serum or Plasma by Direct assay"
            }
          ],
          "text": "Cholesterol in LDL [Mass/volume] in Serum or Plasma by Direct assay"
        },
        "valueQuantity": {
          "system": "http://unitsofmeasure.org",
          "value": 134.5,
          "unit": "mg/dL",
          "code": "mg/dL"
        },
        "referenceRange": [
          {
            "low": {
              "value": 0,
              "code": "mg/dL",
              "system": "http://unitsofmeasure.org"
            }
          },
          {
            "high": {
              "value": 130,
              "code": "mg/dL",
              "system": "http://unitsofmeasure.org"
            }
          }
        ],
        "interpretation": [
          {
            "coding": [
              {
                "code": "H",
                "system": "http://terminology.hl7.org/CodeSystem/v3-ObservationInterpretation",
                "display": "High"
              }
            ]
          }
        ],
        "text": {
          "status": "generated",
          "div": "<div xmlns=\"http://www.w3.org/1999/xhtml\"><table class=\"hl7__eu__lab__report\"><tr><th>Test</th><th>27-Jan-2025</th><th>Reference&#xA0;Range</th><th>Unit</th></tr><tr><td>Cholesterol in LDL [Mass/volume] in Serum or Plasma by Direct assay</td><td>134.5</td><td>0 - 130</td><td>H</td><td>mg/dL</td></tr></table></div>"
        },
        "status": "final",
        "subject": {
          "reference": "urn:uuid:742fa009-b1cb-47b9-8d1c-b7265d0b1e4a",
          "display": "Timothy Smith"
        },
        "effectiveDateTime": "2025-01-27T15:48:21Z",
        "specimen": {
          "reference": "urn:uuid:e68a83af-ae41-4408-848b-ddfd73b7181e"
        }
      }
    },
    {
      "fullUrl": "urn:uuid:dfa1e793-ab78-42a4-94ee-81e5b1d97b67",
      "resource": {
        "resourceType": "Observation",
        "id": "dfa1e793-ab78-42a4-94ee-81e5b1d97b67",
        "meta": {
          "profile": [
            "http://hl7.eu/fhir/laboratory/StructureDefinition/Observation-resultslab-eu-lab"
          ]
        },
        "performer": [
          {
            "display": "The Central European Lab"
          }
        ],
        "category": [
          {
            "coding": [
              {
                "system": "http://terminology.hl7.org/CodeSystem/observation-category",
                "code": "laboratory"
              }
            ]
          }
        ],
        "code": {
          "coding": [
            {
              "code": "2085-9",
              "system": "http://loinc.org",
              "display": "Cholesterol in HDL [Mass/volume] in Serum or Plasma"
            }
          ],
          "text": "Cholesterol in HDL [Mass/volume] in Serum or Plasma"
        },
        "valueQuantity": {
          "system": "http://unitsofmeasure.org",
          "value": 20.8,
          "unit": "mg/dL",
          "code": "mg/dL"
        },
        "referenceRange": [
          {
            "low": {
              "value": 40,
              "code": "mg/dL",
              "system": "http://unitsofmeasure.org"
            }
          },
          {
            "high": {
              "value": 100,
              "code": "mg/dL",
              "system": "http://unitsofmeasure.org"
            }
          }
        ],
        "interpretation": [
          {
            "coding": [
              {
                "code": "L",
                "system": "http://terminology.hl7.org/CodeSystem/v3-ObservationInterpretation",
                "display": "Low"
              }
            ]
          }
        ],
        "text": {
          "status": "generated",
          "div": "<div xmlns=\"http://www.w3.org/1999/xhtml\"><table class=\"hl7__eu__lab__report\"><tr><th>Test</th><th>27-Jan-2025</th><th>Reference&#xA0;Range</th><th>Unit</th></tr><tr><td>Cholesterol in HDL [Mass/volume] in Serum or Plasma</td><td>20.8</td><td>40 - 100</td><td>L</td><td>mg/dL</td></tr></table></div>"
        },
        "status": "final",
        "subject": {
          "reference": "urn:uuid:742fa009-b1cb-47b9-8d1c-b7265d0b1e4a",
          "display": "Timothy Smith"
        },
        "effectiveDateTime": "2025-01-27T15:48:21Z",
        "specimen": {
          "reference": "urn:uuid:e68a83af-ae41-4408-848b-ddfd73b7181e"
        }
      }
    },
    {
      "fullUrl": "urn:uuid:cc00d101-3ade-43b7-bc3f-c9b9619f8c71",
      "resource": {
        "resourceType": "Observation",
        "id": "cc00d101-3ade-43b7-bc3f-c9b9619f8c71",
        "meta": {
          "profile": [
            "http://hl7.eu/fhir/laboratory/StructureDefinition/Observation-resultslab-eu-lab"
          ]
        },
        "performer": [
          {
            "display": "The Central European Lab"
          }
        ],
        "category": [
          {
            "coding": [
              {
                "system": "http://terminology.hl7.org/CodeSystem/observation-category",
                "code": "laboratory"
              }
            ]
          }
        ],
        "code": {
          "coding": [
            {
              "code": "4548-4",
              "system": "http://loinc.org",
              "display": "Hemoglobin A1c/Hemoglobin.total in Blood"
            }
          ],
          "text": "Hemoglobin A1c/Hemoglobin.total in Blood"
        },
        "valueQuantity": {
          "system": "http://unitsofmeasure.org",
          "value": 5.5,
          "unit": "%",
          "code": "%"
        },
        "referenceRange": [
          {
            "low": {
              "value": 4.5,
              "code": "%",
              "system": "http://unitsofmeasure.org"
            }
          },
          {
            "high": {
              "value": 6.4,
              "code": "%",
              "system": "http://unitsofmeasure.org"
            }
          }
        ],
        "text": {
          "status": "generated",
          "div": "<div xmlns=\"http://www.w3.org/1999/xhtml\"><table class=\"hl7__eu__lab__report\"><tr><th>Test</th><th>27-Jan-2025</th><th>Reference&#xA0;Range</th><th>Unit</th></tr><tr><td>Hemoglobin A1c/Hemoglobin.total in Blood</td><td>5.5</td><td>4.5 - 6.4</td><td></td><td>%</td></tr></table></div>"
        },
        "status": "final",
        "subject": {
          "reference": "urn:uuid:742fa009-b1cb-47b9-8d1c-b7265d0b1e4a",
          "display": "Timothy Smith"
        },
        "effectiveDateTime": "2025-01-27T15:48:21Z",
        "specimen": {
          "reference": "urn:uuid:01bed8e9-5859-4112-b4c6-3d00dc6aa008"
        }
      }
    },
    {
      "fullUrl": "urn:uuid:42e0af9c-4a86-42a5-8a90-b5bb0561dc4b",
      "resource": {
        "resourceType": "Observation",
        "id": "42e0af9c-4a86-42a5-8a90-b5bb0561dc4b",
        "meta": {
          "profile": [
            "http://hl7.eu/fhir/laboratory/StructureDefinition/Observation-resultslab-eu-lab"
          ]
        },
        "performer": [
          {
            "display": "The Central European Lab"
          }
        ],
        "category": [
          {
            "coding": [
              {
                "system": "http://terminology.hl7.org/CodeSystem/observation-category",
                "code": "laboratory"
              }
            ]
          }
        ],
        "code": {
          "coding": [
            {
              "code": "89579-7",
              "system": "http://loinc.org",
              "display": "Troponin I.cardiac [Mass/volume] in Serum or Plasma by High sensitivity method"
            }
          ],
          "text": "Troponin I.cardiac [Mass/volume] in Serum or Plasma by High sensitivity method"
        },
        "valueQuantity": {
          "system": "http://unitsofmeasure.org",
          "value": 0,
          "unit": "pg/mL",
          "code": "pg/mL"
        },
        "referenceRange": [
          {
            "low": {
              "value": 0,
              "code": "pg/mL",
              "system": "http://unitsofmeasure.org"
            }
          },
          {
            "high": {
              "value": 19.9,
              "code": "pg/mL",
              "system": "http://unitsofmeasure.org"
            }
          }
        ],
        "text": {
          "status": "generated",
          "div": "<div xmlns=\"http://www.w3.org/1999/xhtml\"><table class=\"hl7__eu__lab__report\"><tr><th>Test</th><th>27-Jan-2025</th><th>Reference&#xA0;Range</th><th>Unit</th></tr><tr><td>Troponin I.cardiac [Mass/volume] in Serum or Plasma by High sensitivity method</td><td>0.0</td><td>0 - 19.9</td><td></td><td>pg/mL</td></tr></table></div>"
        },
        "status": "final",
        "subject": {
          "reference": "urn:uuid:742fa009-b1cb-47b9-8d1c-b7265d0b1e4a",
          "display": "Timothy Smith"
        },
        "effectiveDateTime": "2025-01-27T15:48:21Z",
        "specimen": {
          "reference": "urn:uuid:e68a83af-ae41-4408-848b-ddfd73b7181e"
        }
      }
    },
    {
      "fullUrl": "urn:uuid:c9b641f4-e752-47ff-b663-ccbd94d963c4",
      "resource": {
        "resourceType": "Observation",
        "id": "c9b641f4-e752-47ff-b663-ccbd94d963c4",
        "meta": {
          "profile": [
            "http://hl7.eu/fhir/laboratory/StructureDefinition/Observation-resultslab-eu-lab"
          ]
        },
        "performer": [
          {
            "display": "The Central European Lab"
          }
        ],
        "category": [
          {
            "coding": [
              {
                "system": "http://terminology.hl7.org/CodeSystem/observation-category",
                "code": "laboratory"
              }
            ]
          }
        ],
        "code": {
          "coding": [
            {
              "code": "2276-4",
              "system": "http://loinc.org",
              "display": "Ferritin [Mass/volume] in Serum or Plasma"
            }
          ],
          "text": "Ferritin [Mass/volume] in Serum or Plasma"
        },
        "valueQuantity": {
          "system": "http://unitsofmeasure.org",
          "value": 84.3,
          "unit": "ug/L",
          "code": "ug/L"
        },
        "referenceRange": [
          {
            "low": {
              "value": 30,
              "code": "ug/L",
              "system": "http://unitsofmeasure.org"
            }
          },
          {
            "high": {
              "value": 300,
              "code": "ug/L",
              "system": "http://unitsofmeasure.org"
            }
          }
        ],
        "text": {
          "status": "generated",
          "div": "<div xmlns=\"http://www.w3.org/1999/xhtml\"><table class=\"hl7__eu__lab__report\"><tr><th>Test</th><th>27-Jan-2025</th><th>Reference&#xA0;Range</th><th>Unit</th></tr><tr><td>Ferritin [Mass/volume] in Serum or Plasma</td><td>84.3</td><td>30 - 300</td><td></td><td>ug/L</td></tr></table></div>"
        },
        "status": "final",
        "subject": {
          "reference": "urn:uuid:742fa009-b1cb-47b9-8d1c-b7265d0b1e4a",
          "display": "Timothy Smith"
        },
        "effectiveDateTime": "2025-01-27T15:48:21Z",
        "specimen": {
          "reference": "urn:uuid:e68a83af-ae41-4408-848b-ddfd73b7181e"
        }
      }
    },
    {
      "fullUrl": "urn:uuid:de91645f-e8b6-4dab-bad7-7cb1480341f2",
      "resource": {
        "resourceType": "Observation",
        "id": "de91645f-e8b6-4dab-bad7-7cb1480341f2",
        "meta": {
          "profile": [
            "http://hl7.eu/fhir/laboratory/StructureDefinition/Observation-resultslab-eu-lab"
          ]
        },
        "performer": [
          {
            "display": "The Central European Lab"
          }
        ],
        "category": [
          {
            "coding": [
              {
                "system": "http://terminology.hl7.org/CodeSystem/observation-category",
                "code": "laboratory"
              }
            ]
          }
        ],
        "code": {
          "coding": [
            {
              "code": "2498-4",
              "system": "http://loinc.org",
              "display": "Iron [Mass/volume] in Serum or Plasma"
            }
          ],
          "text": "Iron [Mass/volume] in Serum or Plasma"
        },
        "valueQuantity": {
          "system": "http://unitsofmeasure.org",
          "value": 51.4,
          "unit": "ug/dL",
          "code": "ug/dL"
        },
        "referenceRange": [
          {
            "low": {
              "value": 65,
              "code": "ug/dL",
              "system": "http://unitsofmeasure.org"
            }
          },
          {
            "high": {
              "value": 300,
              "code": "ug/dL",
              "system": "http://unitsofmeasure.org"
            }
          }
        ],
        "interpretation": [
          {
            "coding": [
              {
                "code": "L",
                "system": "http://terminology.hl7.org/CodeSystem/v3-ObservationInterpretation",
                "display": "Low"
              }
            ]
          }
        ],
        "text": {
          "status": "generated",
          "div": "<div xmlns=\"http://www.w3.org/1999/xhtml\"><table class=\"hl7__eu__lab__report\"><tr><th>Test</th><th>27-Jan-2025</th><th>Reference&#xA0;Range</th><th>Unit</th></tr><tr><td>Iron [Mass/volume] in Serum or Plasma</td><td>51.4</td><td>65 - 300</td><td>L</td><td>ug/dL</td></tr></table></div>"
        },
        "status": "final",
        "subject": {
          "reference": "urn:uuid:742fa009-b1cb-47b9-8d1c-b7265d0b1e4a",
          "display": "Timothy Smith"
        },
        "effectiveDateTime": "2025-01-27T15:48:21Z",
        "specimen": {
          "reference": "urn:uuid:e68a83af-ae41-4408-848b-ddfd73b7181e"
        }
      }
    },
    {
      "fullUrl": "urn:uuid:fc0116ca-bcbc-43bf-bb2a-5703ed7ace63",
      "resource": {
        "resourceType": "Observation",
        "id": "fc0116ca-bcbc-43bf-bb2a-5703ed7ace63",
        "meta": {
          "profile": [
            "http://hl7.eu/fhir/laboratory/StructureDefinition/Observation-resultslab-eu-lab"
          ]
        },
        "performer": [
          {
            "display": "The Central European Lab"
          }
        ],
        "category": [
          {
            "coding": [
              {
                "system": "http://terminology.hl7.org/CodeSystem/observation-category",
                "code": "laboratory"
              }
            ]
          }
        ],
        "code": {
          "coding": [
            {
              "code": "2500-7",
              "system": "http://loinc.org",
              "display": "Iron binding capacity [Mass/volume] in Serum or Plasma"
            }
          ],
          "text": "Iron binding capacity [Mass/volume] in Serum or Plasma"
        },
        "valueQuantity": {
          "system": "http://unitsofmeasure.org",
          "value": 393,
          "unit": "ug/dL",
          "code": "ug/dL"
        },
        "referenceRange": [
          {
            "low": {
              "value": 250,
              "code": "ug/dL",
              "system": "http://unitsofmeasure.org"
            }
          },
          {
            "high": {
              "value": 450,
              "code": "ug/dL",
              "system": "http://unitsofmeasure.org"
            }
          }
        ],
        "text": {
          "status": "generated",
          "div": "<div xmlns=\"http://www.w3.org/1999/xhtml\"><table class=\"hl7__eu__lab__report\"><tr><th>Test</th><th>27-Jan-2025</th><th>Reference&#xA0;Range</th><th>Unit</th></tr><tr><td>Iron binding capacity [Mass/volume] in Serum or Plasma</td><td>393.0</td><td>250 - 450</td><td></td><td>ug/dL</td></tr></table></div>"
        },
        "status": "final",
        "subject": {
          "reference": "urn:uuid:742fa009-b1cb-47b9-8d1c-b7265d0b1e4a",
          "display": "Timothy Smith"
        },
        "effectiveDateTime": "2025-01-27T15:48:21Z",
        "specimen": {
          "reference": "urn:uuid:e68a83af-ae41-4408-848b-ddfd73b7181e"
        }
      }
    },
    {
      "fullUrl": "urn:uuid:a08d8310-87d4-4534-9c8b-bafab5773c75",
      "resource": {
        "resourceType": "Observation",
        "id": "a08d8310-87d4-4534-9c8b-bafab5773c75",
        "meta": {
          "profile": [
            "http://hl7.eu/fhir/laboratory/StructureDefinition/Observation-resultslab-eu-lab"
          ]
        },
        "performer": [
          {
            "display": "The Central European Lab"
          }
        ],
        "category": [
          {
            "coding": [
              {
                "system": "http://terminology.hl7.org/CodeSystem/observation-category",
                "code": "laboratory"
              }
            ]
          }
        ],
        "code": {
          "coding": [
            {
              "code": "2502-3",
              "system": "http://loinc.org",
              "display": "Iron saturation [Mass Fraction] in Serum or Plasma"
            }
          ],
          "text": "Iron saturation [Mass Fraction] in Serum or Plasma"
        },
        "valueQuantity": {
          "system": "http://unitsofmeasure.org",
          "value": 33.4,
          "unit": "%",
          "code": "%"
        },
        "referenceRange": [
          {
            "low": {
              "value": 15,
              "code": "%",
              "system": "http://unitsofmeasure.org"
            }
          },
          {
            "high": {
              "value": 45,
              "code": "%",
              "system": "http://unitsofmeasure.org"
            }
          }
        ],
        "text": {
          "status": "generated",
          "div": "<div xmlns=\"http://www.w3.org/1999/xhtml\"><table class=\"hl7__eu__lab__report\"><tr><th>Test</th><th>27-Jan-2025</th><th>Reference&#xA0;Range</th><th>Unit</th></tr><tr><td>Iron saturation [Mass Fraction] in Serum or Plasma</td><td>33.4</td><td>15 - 45</td><td></td><td>%</td></tr></table></div>"
        },
        "status": "final",
        "subject": {
          "reference": "urn:uuid:742fa009-b1cb-47b9-8d1c-b7265d0b1e4a",
          "display": "Timothy Smith"
        },
        "effectiveDateTime": "2025-01-27T15:48:21Z",
        "specimen": {
          "reference": "urn:uuid:e68a83af-ae41-4408-848b-ddfd73b7181e"
        }
      }
    },
    {
      "fullUrl": "urn:uuid:e36e53b5-5c78-4275-9bce-a3c56813f6bd",
      "resource": {
        "resourceType": "Device",
        "id": "e36e53b5-5c78-4275-9bce-a3c56813f6bd",
        "deviceName": [
          {
            "name": "SYNDERAI Synthetic Generator",
            "type": "manufacturer-name"
          }
        ],
        "version": [
          {
            "value": "5.0"
          }
        ],
        "text": {
          "status": "generated",
          "div": "<div xmlns=\"http://www.w3.org/1999/xhtml\">SYNDERAI Synthetic Generator v5.0</div>"
        },
        "status": "active\"",
        "distinctIdentifier": "synderai-generator-50",
        "manufacturer": "SYNDERAI Project"
      }
    },
    {
      "fullUrl": "urn:uuid:efb45e4f-15c8-4902-9c3f-e64421b11560",
      "resource": {
        "resourceType": "Provenance",
        "id": "efb45e4f-15c8-4902-9c3f-e64421b11560",
        "target": [
          {
            "reference": "Patient/742fa009-b1cb-47b9-8d1c-b7265d0b1e4a"
          },
          {
            "reference": "Bundle/a30fc5e0-4da5-4aee-a01b-dd1b8e9d273c"
          },
          {
            "reference": "Composition/251c6f61-4209-4bd4-bd4a-6e05ddf5e2f9"
          },
          {
            "reference": "PractitionerRole/9dee1379-aeaa-4a5a-9180-faaebcc26289"
          },
          {
            "reference": "Practitioner/1825ed57-fd4f-49e3-8efb-f98d5c80529a"
          },
          {
            "reference": "PractitionerRole/67a3e138-60b2-4ce2-95d1-b617b1d0bbfe"
          },
          {
            "reference": "Organization/6c557d65-b532-433a-9f66-7ca77472db3e"
          }
        ],
        "activity": {
          "text": "Synthetic Example Data Generation"
        },
        "policy": [
          "https://synderai.net/synderai-synthetic-data-policy"
        ],
        "agent": [
          {
            "type": {
              "text": "author"
            },
            "who": {
              "reference": "Device/e36e53b5-5c78-4275-9bce-a3c56813f6bd"
            }
          }
        ],
        "reason": [
          {
            "text": "Interoperability Testing and Training (non-clinical use)"
          }
        ],
        "text": {
          "status": "generated",
          "div": "<div xmlns=\"http://www.w3.org/1999/xhtml\">Provenance for SYNDERAI Synthetic Example Data Resource</div>"
        },
        "recorded": "2025-01-27T16:48:21Z"
      }
    },
    {
      "fullUrl": "urn:uuid:9dee1379-aeaa-4a5a-9180-faaebcc26289",
      "resource": {
        "resourceType": "PractitionerRole",
        "id": "9dee1379-aeaa-4a5a-9180-faaebcc26289",
        "meta": {
          "profile": [
            "http://hl7.eu/fhir/base/StructureDefinition/practitionerRole-eu"
          ]
        },
        "text": {
          "status": "generated",
          "div": "<div xmlns=\"http://www.w3.org/1999/xhtml\">Laboratory Role Id: 9dee1379-aeaa-4a5a-9180-faaebcc26289</div>"
        },
        "practitioner": {
          "reference": "urn:uuid:1825ed57-fd4f-49e3-8efb-f98d5c80529a"
        }
      }
    },
    {
      "fullUrl": "urn:uuid:1825ed57-fd4f-49e3-8efb-f98d5c80529a",
      "resource": {
        "resourceType": "Practitioner",
        "id": "1825ed57-fd4f-49e3-8efb-f98d5c80529a",
        "meta": {
          "profile": [
            "http://hl7.eu/fhir/base/StructureDefinition/practitioner-eu"
          ]
        },
        "identifier": [
          {
            "assigner": {
              "display": "HL7 Europe"
            },
            "system": "urn:oid:2.16.840.1.113883.2.51.999",
            "value": "c711a2b6-a1fe-42e8-85c5-c15141184959"
          }
        ],
        "name": [
          {
            "prefix": [
              "dr"
            ],
            "given": [
              "Ex"
            ],
            "family": "Ample"
          }
        ],
        "address": [
          {
            "line": [
              "Laboratoire Central Européenne",
              "Boulevard du Jardin Botanique 32"
            ],
            "postalCode": "1000",
            "city": "Brussels",
            "country": "Belgium"
          }
        ],
        "text": {
          "status": "generated",
          "div": "<div xmlns=\"http://www.w3.org/1999/xhtml\">Laboratory: Laboratoire Central Européenne, 1000 Brussels, Belgium</div>"
        }
      }
    }
  ],
  "type": "document",
  "timestamp": "2025-01-27T16:48:21Z"
}
