{
  "resourceType": "Bundle",
  "id": "5c9d1d61-20cd-4dd2-b90e-87bc880186f1",
  "meta": {
    "profile": [
      "http://hl7.eu/fhir/laboratory/StructureDefinition/Bundle-eu-lab"
    ]
  },
  "identifier": {
    "assigner": {
      "display": "HL7 Europe"
    },
    "system": "urn:oid:2.16.840.1.113883.2.51.999",
    "value": "df4ab19f-de73-4a7d-b162-0fc9fe44baf6"
  },
  "entry": [
    {
      "fullUrl": "urn:uuid:1eb26b6d-4e0c-447b-9334-1a89c0011625",
      "resource": {
        "resourceType": "Composition",
        "id": "1eb26b6d-4e0c-447b-9334-1a89c0011625",
        "meta": {
          "profile": [
            "http://hl7.eu/fhir/laboratory/StructureDefinition/Composition-eu-lab"
          ]
        },
        "identifier": {
          "assigner": {
            "display": "HL7 Europe"
          },
          "system": "urn:oid:2.16.840.1.113883.2.51.999",
          "value": "6b2eb250-e52e-4819-9f02-1806691867d2"
        },
        "author": [
          {
            "reference": "urn:uuid:77ec23e0-c4f9-4c69-b474-e2889507c8d1"
          }
        ],
        "category": [
          {
            "coding": [
              {
                "code": "26436-6",
                "system": "http://loinc.org",
                "display": "Laboratory studies (set)"
              }
            ]
          }
        ],
        "type": {
          "coding": [
            {
              "code": "11502-2",
              "system": "http://loinc.org",
              "display": "Laboratory report"
            }
          ],
          "text": "Laboratory Report"
        },
        "section": [
          {
            "code": {
              "coding": [
                {
                  "code": "26436-6",
                  "system": "http://loinc.org",
                  "display": "Laboratory studies (set)"
                }
              ],
              "text": "Laboratory studies"
            },
            "section": [
              {
                "code": {
                  "coding": [
                    {
                      "code": "$18719-5",
                      "system": "http://loinc.org",
                      "display": "Chemistry studies (set)"
                    }
                  ],
                  "text": "Chemistry"
                },
                "entry": [
                  {
                    "reference": "urn:uuid:fa99150e-2e7b-44c0-8459-d77505d17884"
                  },
                  {
                    "reference": "urn:uuid:be3cc3bf-b5dc-4c66-a878-38646d71ce7f"
                  },
                  {
                    "reference": "urn:uuid:bccdb813-8c2c-43ba-9b1e-9b93b3b30830"
                  },
                  {
                    "reference": "urn:uuid:33fbee26-3791-4151-95cf-9c79b1b8b5a0"
                  },
                  {
                    "reference": "urn:uuid:67f714da-9ed2-46ea-9020-febc81090d29"
                  },
                  {
                    "reference": "urn:uuid:a765b496-12d6-4629-b4b2-39793316e9da"
                  },
                  {
                    "reference": "urn:uuid:963ea4bd-cf49-43d9-8804-1697ba9d685f"
                  },
                  {
                    "reference": "urn:uuid:4ba2bd02-155c-43d3-9d39-ecf000e4a62d"
                  },
                  {
                    "reference": "urn:uuid:c734557a-a5a7-407b-b5e1-a856cc80cdcb"
                  },
                  {
                    "reference": "urn:uuid:2d6fa2f1-c315-42b6-9a9c-d59551fc76b4"
                  },
                  {
                    "reference": "urn:uuid:e3b7682f-7ad9-46d5-bac9-9fb188f0cc9e"
                  },
                  {
                    "reference": "urn:uuid:75d4bb5f-d751-4d11-b19c-83135f1900ae"
                  },
                  {
                    "reference": "urn:uuid:22860f38-0cbd-4efa-9c3e-eaf46723b07a"
                  },
                  {
                    "reference": "urn:uuid:ad4e7418-bab4-4d37-a64d-1d15c58f6899"
                  },
                  {
                    "reference": "urn:uuid:a26f9c50-7c51-465b-affb-7b99e7b37c69"
                  },
                  {
                    "reference": "urn:uuid:cfcbc293-0570-46ff-a1fb-367e376ec167"
                  },
                  {
                    "reference": "urn:uuid:4906a3ad-a79a-4264-a040-235d193f6f01"
                  },
                  {
                    "reference": "urn:uuid:070c5c59-ed83-43f0-929a-11ee9d431b7c"
                  }
                ],
                "text": {
                  "status": "generated",
                  "div": "<div xmlns=\"http://www.w3.org/1999/xhtml\"><h3>Chemistry</h3><table class=\"hl7__eu__lab__report\"><thead><tr><th>Test</th><th>22-JAN-2024</th><th>Reference&#xA0;Range</th><th>Unit</th></tr></thead><tbody><tr><td>Glucose [Mass/volume] in Serum or Plasma</td><td>95.5</td><td>70 - 99</td><td>mg/dL</td></tr><tr><td>Urea nitrogen [Mass/volume] in Serum or Plasma</td><td>9.8</td><td>7 - 50</td><td>mg/dL</td></tr><tr><td>Creatinine [Mass/volume] in Serum or Plasma</td><td><strong>2.0 H</strong></td><td>0.6 - 1.1</td><td>mg/dL</td></tr><tr><td>Calcium [Mass/volume] in Serum or Plasma</td><td>9.9</td><td>8.6 - 10.4</td><td>mg/dL</td></tr><tr><td>Sodium [Moles/volume] in Serum or Plasma</td><td>143.1</td><td>135 - 145</td><td>mmol/L</td></tr><tr><td>Potassium [Moles/volume] in Serum or Plasma</td><td>4.2</td><td>3.5 - 5.1</td><td>mmol/L</td></tr><tr><td>Chloride [Moles/volume] in Serum or Plasma</td><td>104.5</td><td>98 - 108</td><td>mmol/L</td></tr><tr><td>Carbon dioxide, total [Moles/volume] in Serum or Plasma</td><td>27.4</td><td>22 - 32</td><td>mmol/L</td></tr><tr><td>Ketones [Presence] in Urine by Test strip</td><td>Urine ketone test = ++</td><td></td><td></td></tr><tr><td>Hemoglobin A1c/Hemoglobin.total in Blood</td><td>4.0</td><td>4 - 6.4</td><td>%</td></tr><tr><td>Glucose [Mass/volume] in Blood</td><td>95.5</td><td>70 - 100</td><td>mg/dL</td></tr><tr><td>Urea nitrogen [Mass/volume] in Blood</td><td>9.8</td><td>7 - 43</td><td>mg/dL</td></tr><tr><td>Creatinine [Mass/volume] in Blood</td><td><strong>3.4 H</strong></td><td>0.6 - 1.1</td><td>mg/dL</td></tr><tr><td>Calcium [Mass/volume] in Blood</td><td>9.9</td><td>8.5 - 10.5</td><td>mg/dL</td></tr><tr><td>Sodium [Moles/volume] in Blood</td><td>143.1</td><td>135 - 145</td><td>mmol/L</td></tr><tr><td>Potassium [Moles/volume] in Blood</td><td>4.2</td><td>3.5 - 5.1</td><td>mmol/L</td></tr><tr><td>Chloride [Moles/volume] in Blood</td><td>104.5</td><td>98 - 108</td><td>mmol/L</td></tr><tr><td>Carbon dioxide, total [Moles/volume] in Blood</td><td>27.4</td><td>22 - 29</td><td>mmol/L</td></tr></tbody></table></div>"
                },
                "title": "Chemistry"
              },
              {
                "code": {
                  "coding": [
                    {
                      "code": "$18729-4",
                      "system": "http://loinc.org",
                      "display": "Urinalysis studies (set)"
                    }
                  ],
                  "text": "Urinalysis"
                },
                "entry": [
                  {
                    "reference": "urn:uuid:49561677-966e-4552-8a95-b8177c501391"
                  },
                  {
                    "reference": "urn:uuid:4ce688d1-5d92-4423-9534-f513e32186fa"
                  },
                  {
                    "reference": "urn:uuid:aa6dea8f-adf5-45f2-8a61-bd9cef288dc8"
                  },
                  {
                    "reference": "urn:uuid:60ed4e24-9799-44db-a735-43d77ffe7641"
                  },
                  {
                    "reference": "urn:uuid:e8ed8d74-a5b0-4aa6-b3c1-df2ae04d18db"
                  },
                  {
                    "reference": "urn:uuid:4d695406-3167-4555-9664-e76242451e28"
                  },
                  {
                    "reference": "urn:uuid:eece462c-30cc-4472-828a-42b0eb8c0f83"
                  },
                  {
                    "reference": "urn:uuid:d526de20-ad91-4fca-a6b8-96573b885a0f"
                  },
                  {
                    "reference": "urn:uuid:cb887880-7999-4e13-bc23-621794395e7f"
                  },
                  {
                    "reference": "urn:uuid:2ff571fb-991d-4f2c-be30-f05720f7db8f"
                  },
                  {
                    "reference": "urn:uuid:80708acf-c59f-40a2-8c51-3e03fc4fbde7"
                  },
                  {
                    "reference": "urn:uuid:d1e91517-f2b4-47ef-a3e4-baa45b51a0d3"
                  }
                ],
                "text": {
                  "status": "generated",
                  "div": "<div xmlns=\"http://www.w3.org/1999/xhtml\"><h3>Urinalysis</h3><table class=\"hl7__eu__lab__report\"><thead><tr><th>Test</th><th>22-JAN-2024</th><th>Reference&#xA0;Range</th><th>Unit</th></tr></thead><tbody><tr><td>Glucose [Mass/volume] in Urine by Test strip</td><td><strong>2.4 H</strong></td><td>0.8 - 0</td><td>mg/dL</td></tr><tr><td>Glucose [Presence] in Urine by Test strip</td><td>++</td><td></td><td></td></tr><tr><td>Bilirubin.total [Mass/volume] in Urine by Test strip</td><td><strong>1.2 H</strong></td><td>0 - 1</td><td>mg/dL</td></tr><tr><td>Bilirubin.total [Presence] in Urine by Test strip</td><td>Finding of bilirubin in urine</td><td></td><td></td></tr><tr><td>Ketones [Mass/volume] in Urine by Test strip</td><td><strong>6.7 H</strong></td><td>0 - 4</td><td>mg/dL</td></tr><tr><td>Specific gravity of Urine by Test strip</td><td><strong>1.0 L</strong></td><td>1.005 - 1.03</td><td>{nominal}</td></tr><tr><td>pH of Urine by Test strip</td><td>5.9</td><td>4.6 - 7</td><td>pH</td></tr><tr><td>Protein [Mass/volume] in Urine by Test strip</td><td><strong>353.3 H</strong></td><td>0 - 14</td><td>mg/dL</td></tr><tr><td>Protein [Presence] in Urine by Test strip</td><td>Urine protein test = ++</td><td></td><td></td></tr><tr><td>Nitrite [Presence] in Urine by Test strip</td><td>Urine nitrite negative</td><td></td><td></td></tr><tr><td>Hemoglobin [Presence] in Urine by Test strip</td><td>Urine blood test = negative</td><td></td><td></td></tr><tr><td>Leukocyte esterase [Presence] in Urine by Test strip</td><td>Urine leukocyte test negative</td><td></td><td></td></tr></tbody></table></div>"
                },
                "title": "Urinalysis"
              },
              {
                "code": {
                  "coding": [
                    {
                      "code": "$LP7846-1",
                      "system": "http://loinc.org",
                      "display": "Specimen information"
                    }
                  ],
                  "text": "Specimen information"
                },
                "entry": [
                  {
                    "reference": "urn:uuid:69eb7659-79c4-4960-9910-291afdd2f921"
                  },
                  {
                    "reference": "urn:uuid:57bcd0f1-2729-4b20-898c-d6cd4e69c279"
                  },
                  {
                    "reference": "urn:uuid:eafc764c-d238-497d-9ab4-716814e823f1"
                  },
                  {
                    "reference": "urn:uuid:3a5af61b-8272-48d7-9e45-4e4d745b726b"
                  }
                ],
                "text": {
                  "status": "generated",
                  "div": "<div xmlns=\"http://www.w3.org/1999/xhtml\"><h3>Specimen information</h3><table class=\"hl7__eu__lab__report\"><thead><tr><th>Test</th><th>22-JAN-2024</th><th>Specimen</th><th></th></tr></thead><tbody><tr><td>Appearance of Urine</td><td>Cloudy urine</td><td>Urine</td><td></td></tr><tr><td>Odor of Urine</td><td>Urine smell ammoniacal</td><td>Urine</td><td></td></tr><tr><td>Clarity of Urine</td><td>Translucent</td><td>Urine</td><td></td></tr><tr><td>Color of Urine</td><td>Brown color</td><td>Urine</td><td></td></tr></tbody></table></div>"
                },
                "title": "Specimen information"
              }
            ],
            "title": "Laboratory Report"
          },
          {
            "text": {
              "status": "generated",
              "div": "<div xmlns=\"http://www.w3.org/1999/xhtml\"><h3>Annotation</h3><table class=\"hl7__eu__lab__report\"><tr><th>Conclusion and Recommendations based on this report and previous findings known to us</th></tr><tr><td>The patient shows significantly elevated creatinine, marked proteinuria, glucosuria, ketonuria, and bilirubinuria, with low urine specific gravity and abnormal urine appearance (cloudy, brown, ammoniacal). Blood glucose and HbA1c are normal, suggesting non-diabetic glucosuria. These findings indicate impaired renal function, likely acute or chronic kidney disease with possible tubular dysfunction. Urinary findings may also suggest possible hepatic involvement or hemolysis. Prompt nephrology evaluation and further workup are recommended.</td></tr></table></div>"
            },
            "code": {
              "coding": [
                {
                  "system": "http://loinc.org",
                  "code": "48767-8",
                  "display": "Annotation comment"
                }
              ]
            },
            "title": "Annotation comment"
          }
        ],
        "status": "final",
        "subject": {
          "reference": "urn:uuid:ddbce121-eaa0-4445-a36a-87afbe22e3eb",
          "display": "Meaghan Neary"
        },
        "date": "2024-01-22T23:11:04Z",
        "title": "Laboratory Report",
        "confidentiality": "N"
      }
    },
    {
      "fullUrl": "urn:uuid:0e24d1b8-9179-4017-ae2c-582d34b0df0f",
      "resource": {
        "resourceType": "DiagnosticReport",
        "id": "0e24d1b8-9179-4017-ae2c-582d34b0df0f",
        "meta": {
          "profile": [
            "http://hl7.eu/fhir/laboratory/StructureDefinition/DiagnosticReport-eu-lab"
          ]
        },
        "identifier": [
          {
            "assigner": {
              "display": "HL7 Europe"
            },
            "system": "urn:oid:2.16.840.1.113883.2.51.999",
            "value": "a1e1018f-be83-4649-82f3-81e68474cc11"
          }
        ],
        "extension": [
          {
            "url": "http://hl7.org/fhir/5.0/StructureDefinition/extension-DiagnosticReport.composition",
            "valueReference": {
              "reference": "urn:uuid:6b2eb250-e52e-4819-9f02-1806691867d2"
            }
          }
        ],
        "category": [
          {
            "coding": [
              {
                "code": "26436-6",
                "system": "http://loinc.org",
                "display": "Laboratory studies (set)"
              }
            ]
          }
        ],
        "specimen": [
          {
            "reference": "urn:uuid:35704908-1a9a-499f-8f3c-beaf93c1ae9e"
          },
          {
            "reference": "urn:uuid:f8d5711c-431b-4c1a-ad0d-de4ac20f4a1e"
          },
          {
            "reference": "urn:uuid:aba209df-723f-44ab-a292-6aaf0d8f154e"
          }
        ],
        "result": [
          {
            "reference": "urn:uuid:fa99150e-2e7b-44c0-8459-d77505d17884"
          },
          {
            "reference": "urn:uuid:be3cc3bf-b5dc-4c66-a878-38646d71ce7f"
          },
          {
            "reference": "urn:uuid:bccdb813-8c2c-43ba-9b1e-9b93b3b30830"
          },
          {
            "reference": "urn:uuid:33fbee26-3791-4151-95cf-9c79b1b8b5a0"
          },
          {
            "reference": "urn:uuid:67f714da-9ed2-46ea-9020-febc81090d29"
          },
          {
            "reference": "urn:uuid:a765b496-12d6-4629-b4b2-39793316e9da"
          },
          {
            "reference": "urn:uuid:963ea4bd-cf49-43d9-8804-1697ba9d685f"
          },
          {
            "reference": "urn:uuid:4ba2bd02-155c-43d3-9d39-ecf000e4a62d"
          },
          {
            "reference": "urn:uuid:69eb7659-79c4-4960-9910-291afdd2f921"
          },
          {
            "reference": "urn:uuid:57bcd0f1-2729-4b20-898c-d6cd4e69c279"
          },
          {
            "reference": "urn:uuid:eafc764c-d238-497d-9ab4-716814e823f1"
          },
          {
            "reference": "urn:uuid:3a5af61b-8272-48d7-9e45-4e4d745b726b"
          },
          {
            "reference": "urn:uuid:49561677-966e-4552-8a95-b8177c501391"
          },
          {
            "reference": "urn:uuid:4ce688d1-5d92-4423-9534-f513e32186fa"
          },
          {
            "reference": "urn:uuid:aa6dea8f-adf5-45f2-8a61-bd9cef288dc8"
          },
          {
            "reference": "urn:uuid:60ed4e24-9799-44db-a735-43d77ffe7641"
          },
          {
            "reference": "urn:uuid:e8ed8d74-a5b0-4aa6-b3c1-df2ae04d18db"
          },
          {
            "reference": "urn:uuid:c734557a-a5a7-407b-b5e1-a856cc80cdcb"
          },
          {
            "reference": "urn:uuid:4d695406-3167-4555-9664-e76242451e28"
          },
          {
            "reference": "urn:uuid:eece462c-30cc-4472-828a-42b0eb8c0f83"
          },
          {
            "reference": "urn:uuid:d526de20-ad91-4fca-a6b8-96573b885a0f"
          },
          {
            "reference": "urn:uuid:cb887880-7999-4e13-bc23-621794395e7f"
          },
          {
            "reference": "urn:uuid:2ff571fb-991d-4f2c-be30-f05720f7db8f"
          },
          {
            "reference": "urn:uuid:80708acf-c59f-40a2-8c51-3e03fc4fbde7"
          },
          {
            "reference": "urn:uuid:d1e91517-f2b4-47ef-a3e4-baa45b51a0d3"
          },
          {
            "reference": "urn:uuid:2d6fa2f1-c315-42b6-9a9c-d59551fc76b4"
          },
          {
            "reference": "urn:uuid:e3b7682f-7ad9-46d5-bac9-9fb188f0cc9e"
          },
          {
            "reference": "urn:uuid:75d4bb5f-d751-4d11-b19c-83135f1900ae"
          },
          {
            "reference": "urn:uuid:22860f38-0cbd-4efa-9c3e-eaf46723b07a"
          },
          {
            "reference": "urn:uuid:ad4e7418-bab4-4d37-a64d-1d15c58f6899"
          },
          {
            "reference": "urn:uuid:a26f9c50-7c51-465b-affb-7b99e7b37c69"
          },
          {
            "reference": "urn:uuid:cfcbc293-0570-46ff-a1fb-367e376ec167"
          },
          {
            "reference": "urn:uuid:4906a3ad-a79a-4264-a040-235d193f6f01"
          },
          {
            "reference": "urn:uuid:070c5c59-ed83-43f0-929a-11ee9d431b7c"
          }
        ],
        "status": "registered",
        "code": {
          "coding": [
            {
              "code": "11502-2",
              "system": "http://loinc.org",
              "display": "Laboratory report"
            }
          ]
        },
        "subject": {
          "reference": "urn:uuid:ddbce121-eaa0-4445-a36a-87afbe22e3eb",
          "display": "Meaghan Neary"
        }
      }
    },
    {
      "fullUrl": "urn:uuid:ddbce121-eaa0-4445-a36a-87afbe22e3eb",
      "resource": {
        "resourceType": "Patient",
        "id": "ddbce121-eaa0-4445-a36a-87afbe22e3eb",
        "meta": {
          "security": [
            {
              "system": "http://terminology.hl7.org/CodeSystem/v3-ActReason",
              "code": "HTEST"
            },
            {
              "system": "http://terminology.hl7.org/CodeSystem/v3-ActReason",
              "code": "TRAIN"
            }
          ],
          "tag": [
            {
              "system": "https://synderai.net/fhir/CodeSystem/tags",
              "code": "synthetic",
              "display": "SYNDERAI Synthetic data"
            }
          ],
          "profile": [
            "http://hl7.eu/fhir/base/StructureDefinition/patient-eu-core"
          ]
        },
        "identifier": [
          {
            "type": {
              "coding": [
                {
                  "code": "PT",
                  "system": "http://terminology.hl7.org/CodeSystem/v2-0203"
                }
              ]
            },
            "system": "http://ec.europa.eu/identifier/eci",
            "value": "1586-567257-8"
          },
          {
            "type": {
              "coding": [
                {
                  "code": "MR",
                  "system": "http://terminology.hl7.org/CodeSystem/v2-0203"
                }
              ]
            },
            "system": "http://local.setting.eu/identifier",
            "value": "443e6379-f231-b364-3ccb-644740a1aa2a"
          }
        ],
        "name": [
          {
            "family": "Neary"
          },
          {
            "given": [
              "Meaghan"
            ]
          },
          {
            "text": "Meaghan Neary"
          }
        ],
        "address": [
          {
            "line": [
              "64 Linskey Street"
            ],
            "use": "home",
            "type": "physical",
            "postalCode": "D02",
            "city": "Dublin",
            "country": "Ireland"
          }
        ],
        "telecom": [
          {
            "system": "phone",
            "value": "001-967-573-0911x465"
          }
        ],
        "extension": [
          {
            "url": "http://hl7.org/fhir/StructureDefinition/patient-nationality",
            "valueCodeableConcept": {
              "coding": [
                {
                  "code": "IE",
                  "system": "http://hl7.org/fhir/ValueSet/country"
                }
              ]
            }
          }
        ],
        "text": {
          "status": "generated",
          "div": "<div xmlns=\"http://www.w3.org/1999/xhtml\"><table class=\"hl7__ips\"><tr><td>Meaghan Neary</td><td>female</td><td>19-Dec-1960</td></tr></table></div>"
        },
        "gender": "female",
        "birthDate": "1960-12-19"
      }
    },
    {
      "fullUrl": "urn:uuid:7750e0f1-4280-4af3-b3b1-ea56f473c8a9",
      "resource": {
        "resourceType": "ServiceRequest",
        "id": "7750e0f1-4280-4af3-b3b1-ea56f473c8a9",
        "meta": {
          "profile": [
            "http://hl7.eu/fhir/laboratory/StructureDefinition/ServiceRequest-eu-lab"
          ]
        },
        "identifier": [
          {
            "system": "http://example.org",
            "value": "399cb8fb-3218-45ba-a0c1-bea595292ac0"
          }
        ],
        "specimen": [
          {
            "reference": "urn:uuid:35704908-1a9a-499f-8f3c-beaf93c1ae9e"
          },
          {
            "reference": "urn:uuid:f8d5711c-431b-4c1a-ad0d-de4ac20f4a1e"
          },
          {
            "reference": "urn:uuid:aba209df-723f-44ab-a292-6aaf0d8f154e"
          }
        ],
        "reasonCode": [
          {
            "coding": [
              {
                "code": "55822004",
                "system": "http://snomed.info/sct",
                "display": "Hyperlipidemia"
              }
            ]
          },
          {
            "coding": [
              {
                "code": "433144002",
                "system": "http://snomed.info/sct",
                "display": "Chronic kidney disease stage 3"
              }
            ]
          },
          {
            "coding": [
              {
                "code": "157141000119108",
                "system": "http://snomed.info/sct",
                "display": "Proteinuria due to type 2 diabetes mellitus"
              }
            ]
          },
          {
            "coding": [
              {
                "code": "431856006",
                "system": "http://snomed.info/sct",
                "display": "Chronic kidney disease stage 2"
              }
            ]
          },
          {
            "coding": [
              {
                "code": "90781000119102",
                "system": "http://snomed.info/sct",
                "display": "Microalbuminuria due to type 2 diabetes mellitus"
              }
            ]
          },
          {
            "coding": [
              {
                "code": "127013003",
                "system": "http://snomed.info/sct",
                "display": "Disorder of kidney due to diabetes mellitus"
              }
            ]
          },
          {
            "coding": [
              {
                "code": "431855005",
                "system": "http://snomed.info/sct",
                "display": "Chronic kidney disease stage 1"
              }
            ]
          },
          {
            "coding": [
              {
                "code": "237602007",
                "system": "http://snomed.info/sct",
                "display": "Metabolic syndrome X"
              }
            ]
          },
          {
            "coding": [
              {
                "code": "271737000",
                "system": "http://snomed.info/sct",
                "display": "Anemia"
              }
            ]
          },
          {
            "coding": [
              {
                "code": "15777000",
                "system": "http://snomed.info/sct",
                "display": "Prediabetes"
              }
            ]
          },
          {
            "coding": [
              {
                "code": "59621000",
                "system": "http://snomed.info/sct",
                "display": "Essential hypertension"
              }
            ]
          }
        ],
        "status": "active",
        "intent": "order",
        "code": {
          "coding": [
            {
              "code": "108252007",
              "system": "http://snomed.info/sct",
              "display": "Laboratory procedure"
            }
          ]
        },
        "subject": {
          "reference": "urn:uuid:ddbce121-eaa0-4445-a36a-87afbe22e3eb",
          "display": "Meaghan Neary"
        },
        "requester": {
          "reference": "urn:uuid:9eb6c27d-1afb-4259-a417-44e6d6817a57"
        }
      }
    },
    {
      "fullUrl": "urn:uuid:9eb6c27d-1afb-4259-a417-44e6d6817a57",
      "resource": {
        "resourceType": "PractitionerRole",
        "id": "9eb6c27d-1afb-4259-a417-44e6d6817a57",
        "meta": {
          "profile": [
            "http://hl7.eu/fhir/base/StructureDefinition/practitionerRole-eu"
          ]
        },
        "text": {
          "status": "generated",
          "div": "<div xmlns=\"http://www.w3.org/1999/xhtml\">Provider Role Id: 9eb6c27d-1afb-4259-a417-44e6d6817a57</div>"
        },
        "organization": {
          "reference": "urn:uuid:66212e6c-5d90-4bf0-8d4e-67175335edbe"
        }
      }
    },
    {
      "fullUrl": "urn:uuid:66212e6c-5d90-4bf0-8d4e-67175335edbe",
      "resource": {
        "resourceType": "Organization",
        "id": "66212e6c-5d90-4bf0-8d4e-67175335edbe",
        "meta": {
          "profile": [
            "http://hl7.eu/fhir/base/StructureDefinition/organization-eu"
          ]
        },
        "identifier": [
          {
            "assigner": {
              "display": "HL7 Europe"
            },
            "system": "urn:oid:2.16.840.1.113883.2.51.999",
            "value": "98ed7674-f87d-4a2f-a25a-18d92dd7650b"
          }
        ],
        "address": [
          {
            "line": [
              "Parnell Square West nan"
            ],
            "city": "Dublin",
            "postalCode": "D01",
            "country": "Ireland"
          }
        ],
        "text": {
          "status": "generated",
          "div": "<div xmlns=\"http://www.w3.org/1999/xhtml\">Provider Organization: Rotunda Hospital</div>"
        },
        "name": "Rotunda Hospital"
      }
    },
    {
      "fullUrl": "urn:uuid:35704908-1a9a-499f-8f3c-beaf93c1ae9e",
      "resource": {
        "resourceType": "Specimen",
        "id": "35704908-1a9a-499f-8f3c-beaf93c1ae9e",
        "meta": {
          "profile": [
            "http://hl7.eu/fhir/laboratory/StructureDefinition/Specimen-eu-lab"
          ]
        },
        "collection": {
          "collectedDateTime": "2024-01-22"
        },
        "text": {
          "status": "generated",
          "div": "<div xmlns=\"http://www.w3.org/1999/xhtml\"><table class=\"hl7__eu__lab__report\"><tr><th>Specimen</th><th>Collection Date</th></tr><tr><td>Acellular blood (serum or plasma) specimen</td><td><span class=\"nb\">22-Jan-2024</span></td></tr></table></div>"
        },
        "type": {
          "coding": [
            {
              "code": "122592007",
              "system": "http://snomed.info/sct",
              "display": "Acellular blood (serum or plasma) specimen"
            }
          ]
        }
      }
    },
    {
      "fullUrl": "urn:uuid:f8d5711c-431b-4c1a-ad0d-de4ac20f4a1e",
      "resource": {
        "resourceType": "Specimen",
        "id": "f8d5711c-431b-4c1a-ad0d-de4ac20f4a1e",
        "meta": {
          "profile": [
            "http://hl7.eu/fhir/laboratory/StructureDefinition/Specimen-eu-lab"
          ]
        },
        "collection": {
          "collectedDateTime": "2024-01-22"
        },
        "text": {
          "status": "generated",
          "div": "<div xmlns=\"http://www.w3.org/1999/xhtml\"><table class=\"hl7__eu__lab__report\"><tr><th>Specimen</th><th>Collection Date</th></tr><tr><td>Urine specimen</td><td><span class=\"nb\">22-Jan-2024</span></td></tr></table></div>"
        },
        "type": {
          "coding": [
            {
              "code": "122575003",
              "system": "http://snomed.info/sct",
              "display": "Urine specimen"
            }
          ]
        }
      }
    },
    {
      "fullUrl": "urn:uuid:aba209df-723f-44ab-a292-6aaf0d8f154e",
      "resource": {
        "resourceType": "Specimen",
        "id": "aba209df-723f-44ab-a292-6aaf0d8f154e",
        "meta": {
          "profile": [
            "http://hl7.eu/fhir/laboratory/StructureDefinition/Specimen-eu-lab"
          ]
        },
        "collection": {
          "collectedDateTime": "2024-01-22"
        },
        "text": {
          "status": "generated",
          "div": "<div xmlns=\"http://www.w3.org/1999/xhtml\"><table class=\"hl7__eu__lab__report\"><tr><th>Specimen</th><th>Collection Date</th></tr><tr><td>Whole blood specimen (specimen)</td><td><span class=\"nb\">22-Jan-2024</span></td></tr></table></div>"
        },
        "type": {
          "coding": [
            {
              "code": "258580003",
              "system": "http://snomed.info/sct",
              "display": "Whole blood specimen (specimen)"
            }
          ]
        }
      }
    },
    {
      "fullUrl": "urn:uuid:fa99150e-2e7b-44c0-8459-d77505d17884",
      "resource": {
        "resourceType": "Observation",
        "id": "fa99150e-2e7b-44c0-8459-d77505d17884",
        "meta": {
          "profile": [
            "http://hl7.eu/fhir/laboratory/StructureDefinition/Observation-resultslab-eu-lab"
          ]
        },
        "performer": [
          {
            "display": "The Central European Lab"
          }
        ],
        "category": [
          {
            "coding": [
              {
                "system": "http://terminology.hl7.org/CodeSystem/observation-category",
                "code": "laboratory"
              }
            ]
          }
        ],
        "code": {
          "coding": [
            {
              "code": "2345-7",
              "system": "http://loinc.org",
              "display": "Glucose [Mass/volume] in Serum or Plasma"
            }
          ],
          "text": "Glucose [Mass/volume] in Serum or Plasma"
        },
        "valueQuantity": {
          "system": "http://unitsofmeasure.org",
          "value": 95.5,
          "unit": "mg/dL",
          "code": "mg/dL"
        },
        "referenceRange": [
          {
            "low": {
              "value": 70,
              "code": "mg/dL",
              "system": "http://unitsofmeasure.org"
            }
          },
          {
            "high": {
              "value": 99,
              "code": "mg/dL",
              "system": "http://unitsofmeasure.org"
            }
          }
        ],
        "text": {
          "status": "generated",
          "div": "<div xmlns=\"http://www.w3.org/1999/xhtml\"><table class=\"hl7__eu__lab__report\"><tr><th>Test</th><th>22-Jan-2024</th><th>Reference&#xA0;Range</th><th>Unit</th></tr><tr><td>Glucose [Mass/volume] in Serum or Plasma</td><td>95.5</td><td>70 - 99</td><td></td><td>mg/dL</td></tr></table></div>"
        },
        "status": "final",
        "subject": {
          "reference": "urn:uuid:ddbce121-eaa0-4445-a36a-87afbe22e3eb",
          "display": "Meaghan Neary"
        },
        "effectiveDateTime": "2024-01-22T22:11:04Z",
        "specimen": {
          "reference": "urn:uuid:35704908-1a9a-499f-8f3c-beaf93c1ae9e"
        }
      }
    },
    {
      "fullUrl": "urn:uuid:be3cc3bf-b5dc-4c66-a878-38646d71ce7f",
      "resource": {
        "resourceType": "Observation",
        "id": "be3cc3bf-b5dc-4c66-a878-38646d71ce7f",
        "meta": {
          "profile": [
            "http://hl7.eu/fhir/laboratory/StructureDefinition/Observation-resultslab-eu-lab"
          ]
        },
        "performer": [
          {
            "display": "The Central European Lab"
          }
        ],
        "category": [
          {
            "coding": [
              {
                "system": "http://terminology.hl7.org/CodeSystem/observation-category",
                "code": "laboratory"
              }
            ]
          }
        ],
        "code": {
          "coding": [
            {
              "code": "3094-0",
              "system": "http://loinc.org",
              "display": "Urea nitrogen [Mass/volume] in Serum or Plasma"
            }
          ],
          "text": "Urea nitrogen [Mass/volume] in Serum or Plasma"
        },
        "valueQuantity": {
          "system": "http://unitsofmeasure.org",
          "value": 9.8,
          "unit": "mg/dL",
          "code": "mg/dL"
        },
        "referenceRange": [
          {
            "low": {
              "value": 7,
              "code": "mg/dL",
              "system": "http://unitsofmeasure.org"
            }
          },
          {
            "high": {
              "value": 50,
              "code": "mg/dL",
              "system": "http://unitsofmeasure.org"
            }
          }
        ],
        "text": {
          "status": "generated",
          "div": "<div xmlns=\"http://www.w3.org/1999/xhtml\"><table class=\"hl7__eu__lab__report\"><tr><th>Test</th><th>22-Jan-2024</th><th>Reference&#xA0;Range</th><th>Unit</th></tr><tr><td>Urea nitrogen [Mass/volume] in Serum or Plasma</td><td>9.8</td><td>7 - 50</td><td></td><td>mg/dL</td></tr></table></div>"
        },
        "status": "final",
        "subject": {
          "reference": "urn:uuid:ddbce121-eaa0-4445-a36a-87afbe22e3eb",
          "display": "Meaghan Neary"
        },
        "effectiveDateTime": "2024-01-22T22:11:04Z",
        "specimen": {
          "reference": "urn:uuid:35704908-1a9a-499f-8f3c-beaf93c1ae9e"
        }
      }
    },
    {
      "fullUrl": "urn:uuid:bccdb813-8c2c-43ba-9b1e-9b93b3b30830",
      "resource": {
        "resourceType": "Observation",
        "id": "bccdb813-8c2c-43ba-9b1e-9b93b3b30830",
        "meta": {
          "profile": [
            "http://hl7.eu/fhir/laboratory/StructureDefinition/Observation-resultslab-eu-lab"
          ]
        },
        "performer": [
          {
            "display": "The Central European Lab"
          }
        ],
        "category": [
          {
            "coding": [
              {
                "system": "http://terminology.hl7.org/CodeSystem/observation-category",
                "code": "laboratory"
              }
            ]
          }
        ],
        "code": {
          "coding": [
            {
              "code": "2160-0",
              "system": "http://loinc.org",
              "display": "Creatinine [Mass/volume] in Serum or Plasma"
            }
          ],
          "text": "Creatinine [Mass/volume] in Serum or Plasma"
        },
        "valueQuantity": {
          "system": "http://unitsofmeasure.org",
          "value": 2,
          "unit": "mg/dL",
          "code": "mg/dL"
        },
        "referenceRange": [
          {
            "low": {
              "value": 0.6,
              "code": "mg/dL",
              "system": "http://unitsofmeasure.org"
            }
          },
          {
            "high": {
              "value": 1.1,
              "code": "mg/dL",
              "system": "http://unitsofmeasure.org"
            }
          }
        ],
        "interpretation": [
          {
            "coding": [
              {
                "code": "H",
                "system": "http://terminology.hl7.org/CodeSystem/v3-ObservationInterpretation",
                "display": "High"
              }
            ]
          }
        ],
        "text": {
          "status": "generated",
          "div": "<div xmlns=\"http://www.w3.org/1999/xhtml\"><table class=\"hl7__eu__lab__report\"><tr><th>Test</th><th>22-Jan-2024</th><th>Reference&#xA0;Range</th><th>Unit</th></tr><tr><td>Creatinine [Mass/volume] in Serum or Plasma</td><td>2.0</td><td>0.6 - 1.1</td><td>H</td><td>mg/dL</td></tr></table></div>"
        },
        "status": "final",
        "subject": {
          "reference": "urn:uuid:ddbce121-eaa0-4445-a36a-87afbe22e3eb",
          "display": "Meaghan Neary"
        },
        "effectiveDateTime": "2024-01-22T22:11:04Z",
        "specimen": {
          "reference": "urn:uuid:35704908-1a9a-499f-8f3c-beaf93c1ae9e"
        }
      }
    },
    {
      "fullUrl": "urn:uuid:33fbee26-3791-4151-95cf-9c79b1b8b5a0",
      "resource": {
        "resourceType": "Observation",
        "id": "33fbee26-3791-4151-95cf-9c79b1b8b5a0",
        "meta": {
          "profile": [
            "http://hl7.eu/fhir/laboratory/StructureDefinition/Observation-resultslab-eu-lab"
          ]
        },
        "performer": [
          {
            "display": "The Central European Lab"
          }
        ],
        "category": [
          {
            "coding": [
              {
                "system": "http://terminology.hl7.org/CodeSystem/observation-category",
                "code": "laboratory"
              }
            ]
          }
        ],
        "code": {
          "coding": [
            {
              "code": "17861-6",
              "system": "http://loinc.org",
              "display": "Calcium [Mass/volume] in Serum or Plasma"
            }
          ],
          "text": "Calcium [Mass/volume] in Serum or Plasma"
        },
        "valueQuantity": {
          "system": "http://unitsofmeasure.org",
          "value": 9.9,
          "unit": "mg/dL",
          "code": "mg/dL"
        },
        "referenceRange": [
          {
            "low": {
              "value": 8.6,
              "code": "mg/dL",
              "system": "http://unitsofmeasure.org"
            }
          },
          {
            "high": {
              "value": 10.4,
              "code": "mg/dL",
              "system": "http://unitsofmeasure.org"
            }
          }
        ],
        "text": {
          "status": "generated",
          "div": "<div xmlns=\"http://www.w3.org/1999/xhtml\"><table class=\"hl7__eu__lab__report\"><tr><th>Test</th><th>22-Jan-2024</th><th>Reference&#xA0;Range</th><th>Unit</th></tr><tr><td>Calcium [Mass/volume] in Serum or Plasma</td><td>9.9</td><td>8.6 - 10.4</td><td></td><td>mg/dL</td></tr></table></div>"
        },
        "status": "final",
        "subject": {
          "reference": "urn:uuid:ddbce121-eaa0-4445-a36a-87afbe22e3eb",
          "display": "Meaghan Neary"
        },
        "effectiveDateTime": "2024-01-22T22:11:04Z",
        "specimen": {
          "reference": "urn:uuid:35704908-1a9a-499f-8f3c-beaf93c1ae9e"
        }
      }
    },
    {
      "fullUrl": "urn:uuid:67f714da-9ed2-46ea-9020-febc81090d29",
      "resource": {
        "resourceType": "Observation",
        "id": "67f714da-9ed2-46ea-9020-febc81090d29",
        "meta": {
          "profile": [
            "http://hl7.eu/fhir/laboratory/StructureDefinition/Observation-resultslab-eu-lab"
          ]
        },
        "performer": [
          {
            "display": "The Central European Lab"
          }
        ],
        "category": [
          {
            "coding": [
              {
                "system": "http://terminology.hl7.org/CodeSystem/observation-category",
                "code": "laboratory"
              }
            ]
          }
        ],
        "code": {
          "coding": [
            {
              "code": "2951-2",
              "system": "http://loinc.org",
              "display": "Sodium [Moles/volume] in Serum or Plasma"
            }
          ],
          "text": "Sodium [Moles/volume] in Serum or Plasma"
        },
        "valueQuantity": {
          "system": "http://unitsofmeasure.org",
          "value": 143.1,
          "unit": "mmol/L",
          "code": "mmol/L"
        },
        "referenceRange": [
          {
            "low": {
              "value": 135,
              "code": "mmol/L",
              "system": "http://unitsofmeasure.org"
            }
          },
          {
            "high": {
              "value": 145,
              "code": "mmol/L",
              "system": "http://unitsofmeasure.org"
            }
          }
        ],
        "text": {
          "status": "generated",
          "div": "<div xmlns=\"http://www.w3.org/1999/xhtml\"><table class=\"hl7__eu__lab__report\"><tr><th>Test</th><th>22-Jan-2024</th><th>Reference&#xA0;Range</th><th>Unit</th></tr><tr><td>Sodium [Moles/volume] in Serum or Plasma</td><td>143.1</td><td>135 - 145</td><td></td><td>mmol/L</td></tr></table></div>"
        },
        "status": "final",
        "subject": {
          "reference": "urn:uuid:ddbce121-eaa0-4445-a36a-87afbe22e3eb",
          "display": "Meaghan Neary"
        },
        "effectiveDateTime": "2024-01-22T22:11:04Z",
        "specimen": {
          "reference": "urn:uuid:35704908-1a9a-499f-8f3c-beaf93c1ae9e"
        }
      }
    },
    {
      "fullUrl": "urn:uuid:a765b496-12d6-4629-b4b2-39793316e9da",
      "resource": {
        "resourceType": "Observation",
        "id": "a765b496-12d6-4629-b4b2-39793316e9da",
        "meta": {
          "profile": [
            "http://hl7.eu/fhir/laboratory/StructureDefinition/Observation-resultslab-eu-lab"
          ]
        },
        "performer": [
          {
            "display": "The Central European Lab"
          }
        ],
        "category": [
          {
            "coding": [
              {
                "system": "http://terminology.hl7.org/CodeSystem/observation-category",
                "code": "laboratory"
              }
            ]
          }
        ],
        "code": {
          "coding": [
            {
              "code": "2823-3",
              "system": "http://loinc.org",
              "display": "Potassium [Moles/volume] in Serum or Plasma"
            }
          ],
          "text": "Potassium [Moles/volume] in Serum or Plasma"
        },
        "valueQuantity": {
          "system": "http://unitsofmeasure.org",
          "value": 4.2,
          "unit": "mmol/L",
          "code": "mmol/L"
        },
        "referenceRange": [
          {
            "low": {
              "value": 3.5,
              "code": "mmol/L",
              "system": "http://unitsofmeasure.org"
            }
          },
          {
            "high": {
              "value": 5.1,
              "code": "mmol/L",
              "system": "http://unitsofmeasure.org"
            }
          }
        ],
        "text": {
          "status": "generated",
          "div": "<div xmlns=\"http://www.w3.org/1999/xhtml\"><table class=\"hl7__eu__lab__report\"><tr><th>Test</th><th>22-Jan-2024</th><th>Reference&#xA0;Range</th><th>Unit</th></tr><tr><td>Potassium [Moles/volume] in Serum or Plasma</td><td>4.2</td><td>3.5 - 5.1</td><td></td><td>mmol/L</td></tr></table></div>"
        },
        "status": "final",
        "subject": {
          "reference": "urn:uuid:ddbce121-eaa0-4445-a36a-87afbe22e3eb",
          "display": "Meaghan Neary"
        },
        "effectiveDateTime": "2024-01-22T22:11:04Z",
        "specimen": {
          "reference": "urn:uuid:35704908-1a9a-499f-8f3c-beaf93c1ae9e"
        }
      }
    },
    {
      "fullUrl": "urn:uuid:963ea4bd-cf49-43d9-8804-1697ba9d685f",
      "resource": {
        "resourceType": "Observation",
        "id": "963ea4bd-cf49-43d9-8804-1697ba9d685f",
        "meta": {
          "profile": [
            "http://hl7.eu/fhir/laboratory/StructureDefinition/Observation-resultslab-eu-lab"
          ]
        },
        "performer": [
          {
            "display": "The Central European Lab"
          }
        ],
        "category": [
          {
            "coding": [
              {
                "system": "http://terminology.hl7.org/CodeSystem/observation-category",
                "code": "laboratory"
              }
            ]
          }
        ],
        "code": {
          "coding": [
            {
              "code": "2075-0",
              "system": "http://loinc.org",
              "display": "Chloride [Moles/volume] in Serum or Plasma"
            }
          ],
          "text": "Chloride [Moles/volume] in Serum or Plasma"
        },
        "valueQuantity": {
          "system": "http://unitsofmeasure.org",
          "value": 104.5,
          "unit": "mmol/L",
          "code": "mmol/L"
        },
        "referenceRange": [
          {
            "low": {
              "value": 98,
              "code": "mmol/L",
              "system": "http://unitsofmeasure.org"
            }
          },
          {
            "high": {
              "value": 108,
              "code": "mmol/L",
              "system": "http://unitsofmeasure.org"
            }
          }
        ],
        "text": {
          "status": "generated",
          "div": "<div xmlns=\"http://www.w3.org/1999/xhtml\"><table class=\"hl7__eu__lab__report\"><tr><th>Test</th><th>22-Jan-2024</th><th>Reference&#xA0;Range</th><th>Unit</th></tr><tr><td>Chloride [Moles/volume] in Serum or Plasma</td><td>104.5</td><td>98 - 108</td><td></td><td>mmol/L</td></tr></table></div>"
        },
        "status": "final",
        "subject": {
          "reference": "urn:uuid:ddbce121-eaa0-4445-a36a-87afbe22e3eb",
          "display": "Meaghan Neary"
        },
        "effectiveDateTime": "2024-01-22T22:11:04Z",
        "specimen": {
          "reference": "urn:uuid:35704908-1a9a-499f-8f3c-beaf93c1ae9e"
        }
      }
    },
    {
      "fullUrl": "urn:uuid:4ba2bd02-155c-43d3-9d39-ecf000e4a62d",
      "resource": {
        "resourceType": "Observation",
        "id": "4ba2bd02-155c-43d3-9d39-ecf000e4a62d",
        "meta": {
          "profile": [
            "http://hl7.eu/fhir/laboratory/StructureDefinition/Observation-resultslab-eu-lab"
          ]
        },
        "performer": [
          {
            "display": "The Central European Lab"
          }
        ],
        "category": [
          {
            "coding": [
              {
                "system": "http://terminology.hl7.org/CodeSystem/observation-category",
                "code": "laboratory"
              }
            ]
          }
        ],
        "code": {
          "coding": [
            {
              "code": "2028-9",
              "system": "http://loinc.org",
              "display": "Carbon dioxide, total [Moles/volume] in Serum or Plasma"
            }
          ],
          "text": "Carbon dioxide, total [Moles/volume] in Serum or Plasma"
        },
        "valueQuantity": {
          "system": "http://unitsofmeasure.org",
          "value": 27.4,
          "unit": "mmol/L",
          "code": "mmol/L"
        },
        "referenceRange": [
          {
            "low": {
              "value": 22,
              "code": "mmol/L",
              "system": "http://unitsofmeasure.org"
            }
          },
          {
            "high": {
              "value": 32,
              "code": "mmol/L",
              "system": "http://unitsofmeasure.org"
            }
          }
        ],
        "text": {
          "status": "generated",
          "div": "<div xmlns=\"http://www.w3.org/1999/xhtml\"><table class=\"hl7__eu__lab__report\"><tr><th>Test</th><th>22-Jan-2024</th><th>Reference&#xA0;Range</th><th>Unit</th></tr><tr><td>Carbon dioxide, total [Moles/volume] in Serum or Plasma</td><td>27.4</td><td>22 - 32</td><td></td><td>mmol/L</td></tr></table></div>"
        },
        "status": "final",
        "subject": {
          "reference": "urn:uuid:ddbce121-eaa0-4445-a36a-87afbe22e3eb",
          "display": "Meaghan Neary"
        },
        "effectiveDateTime": "2024-01-22T22:11:04Z",
        "specimen": {
          "reference": "urn:uuid:35704908-1a9a-499f-8f3c-beaf93c1ae9e"
        }
      }
    },
    {
      "fullUrl": "urn:uuid:69eb7659-79c4-4960-9910-291afdd2f921",
      "resource": {
        "resourceType": "Observation",
        "id": "69eb7659-79c4-4960-9910-291afdd2f921",
        "meta": {
          "profile": [
            "http://hl7.eu/fhir/laboratory/StructureDefinition/Observation-resultslab-eu-lab"
          ]
        },
        "performer": [
          {
            "display": "The Central European Lab"
          }
        ],
        "category": [
          {
            "coding": [
              {
                "system": "http://terminology.hl7.org/CodeSystem/observation-category",
                "code": "laboratory"
              }
            ]
          }
        ],
        "code": {
          "coding": [
            {
              "code": "5767-9",
              "system": "http://loinc.org",
              "display": "Appearance of Urine"
            }
          ],
          "text": "Appearance of Urine"
        },
        "text": {
          "status": "generated",
          "div": "<div xmlns=\"http://www.w3.org/1999/xhtml\"><table class=\"hl7__eu__lab__report\"><tr><th>Test</th><th>22-Jan-2024</th><th>Reference&#xA0;Range</th><th>Unit</th></tr><tr><td>Appearance of Urine</td></tr></table></div>"
        },
        "status": "final",
        "subject": {
          "reference": "urn:uuid:ddbce121-eaa0-4445-a36a-87afbe22e3eb",
          "display": "Meaghan Neary"
        },
        "effectiveDateTime": "2024-01-22T22:11:04Z",
        "specimen": {
          "reference": "urn:uuid:f8d5711c-431b-4c1a-ad0d-de4ac20f4a1e"
        }
      }
    },
    {
      "fullUrl": "urn:uuid:57bcd0f1-2729-4b20-898c-d6cd4e69c279",
      "resource": {
        "resourceType": "Observation",
        "id": "57bcd0f1-2729-4b20-898c-d6cd4e69c279",
        "meta": {
          "profile": [
            "http://hl7.eu/fhir/laboratory/StructureDefinition/Observation-resultslab-eu-lab"
          ]
        },
        "performer": [
          {
            "display": "The Central European Lab"
          }
        ],
        "category": [
          {
            "coding": [
              {
                "system": "http://terminology.hl7.org/CodeSystem/observation-category",
                "code": "laboratory"
              }
            ]
          }
        ],
        "code": {
          "coding": [
            {
              "code": "34533-0",
              "system": "http://loinc.org",
              "display": "Odor of Urine"
            }
          ],
          "text": "Odor of Urine"
        },
        "text": {
          "status": "generated",
          "div": "<div xmlns=\"http://www.w3.org/1999/xhtml\"><table class=\"hl7__eu__lab__report\"><tr><th>Test</th><th>22-Jan-2024</th><th>Reference&#xA0;Range</th><th>Unit</th></tr><tr><td>Odor of Urine</td></tr></table></div>"
        },
        "status": "final",
        "subject": {
          "reference": "urn:uuid:ddbce121-eaa0-4445-a36a-87afbe22e3eb",
          "display": "Meaghan Neary"
        },
        "effectiveDateTime": "2024-01-22T22:11:04Z",
        "specimen": {
          "reference": "urn:uuid:f8d5711c-431b-4c1a-ad0d-de4ac20f4a1e"
        }
      }
    },
    {
      "fullUrl": "urn:uuid:eafc764c-d238-497d-9ab4-716814e823f1",
      "resource": {
        "resourceType": "Observation",
        "id": "eafc764c-d238-497d-9ab4-716814e823f1",
        "meta": {
          "profile": [
            "http://hl7.eu/fhir/laboratory/StructureDefinition/Observation-resultslab-eu-lab"
          ]
        },
        "performer": [
          {
            "display": "The Central European Lab"
          }
        ],
        "category": [
          {
            "coding": [
              {
                "system": "http://terminology.hl7.org/CodeSystem/observation-category",
                "code": "laboratory"
              }
            ]
          }
        ],
        "code": {
          "coding": [
            {
              "code": "32167-9",
              "system": "http://loinc.org",
              "display": "Clarity of Urine"
            }
          ],
          "text": "Clarity of Urine"
        },
        "text": {
          "status": "generated",
          "div": "<div xmlns=\"http://www.w3.org/1999/xhtml\"><table class=\"hl7__eu__lab__report\"><tr><th>Test</th><th>22-Jan-2024</th><th>Reference&#xA0;Range</th><th>Unit</th></tr><tr><td>Clarity of Urine</td></tr></table></div>"
        },
        "status": "final",
        "subject": {
          "reference": "urn:uuid:ddbce121-eaa0-4445-a36a-87afbe22e3eb",
          "display": "Meaghan Neary"
        },
        "effectiveDateTime": "2024-01-22T22:11:04Z",
        "specimen": {
          "reference": "urn:uuid:f8d5711c-431b-4c1a-ad0d-de4ac20f4a1e"
        }
      }
    },
    {
      "fullUrl": "urn:uuid:3a5af61b-8272-48d7-9e45-4e4d745b726b",
      "resource": {
        "resourceType": "Observation",
        "id": "3a5af61b-8272-48d7-9e45-4e4d745b726b",
        "meta": {
          "profile": [
            "http://hl7.eu/fhir/laboratory/StructureDefinition/Observation-resultslab-eu-lab"
          ]
        },
        "performer": [
          {
            "display": "The Central European Lab"
          }
        ],
        "category": [
          {
            "coding": [
              {
                "system": "http://terminology.hl7.org/CodeSystem/observation-category",
                "code": "laboratory"
              }
            ]
          }
        ],
        "code": {
          "coding": [
            {
              "code": "5778-6",
              "system": "http://loinc.org",
              "display": "Color of Urine"
            }
          ],
          "text": "Color of Urine"
        },
        "text": {
          "status": "generated",
          "div": "<div xmlns=\"http://www.w3.org/1999/xhtml\"><table class=\"hl7__eu__lab__report\"><tr><th>Test</th><th>22-Jan-2024</th><th>Reference&#xA0;Range</th><th>Unit</th></tr><tr><td>Color of Urine</td></tr></table></div>"
        },
        "status": "final",
        "subject": {
          "reference": "urn:uuid:ddbce121-eaa0-4445-a36a-87afbe22e3eb",
          "display": "Meaghan Neary"
        },
        "effectiveDateTime": "2024-01-22T22:11:04Z",
        "specimen": {
          "reference": "urn:uuid:f8d5711c-431b-4c1a-ad0d-de4ac20f4a1e"
        }
      }
    },
    {
      "fullUrl": "urn:uuid:49561677-966e-4552-8a95-b8177c501391",
      "resource": {
        "resourceType": "Observation",
        "id": "49561677-966e-4552-8a95-b8177c501391",
        "meta": {
          "profile": [
            "http://hl7.eu/fhir/laboratory/StructureDefinition/Observation-resultslab-eu-lab"
          ]
        },
        "performer": [
          {
            "display": "The Central European Lab"
          }
        ],
        "category": [
          {
            "coding": [
              {
                "system": "http://terminology.hl7.org/CodeSystem/observation-category",
                "code": "laboratory"
              }
            ]
          }
        ],
        "code": {
          "coding": [
            {
              "code": "5792-7",
              "system": "http://loinc.org",
              "display": "Glucose [Mass/volume] in Urine by Test strip"
            }
          ],
          "text": "Glucose [Mass/volume] in Urine by Test strip"
        },
        "valueQuantity": {
          "system": "http://unitsofmeasure.org",
          "value": 2.4,
          "unit": "mg/dL",
          "code": "mg/dL"
        },
        "referenceRange": [
          {
            "low": {
              "value": 0.8,
              "code": "mg/dL",
              "system": "http://unitsofmeasure.org"
            }
          },
          {
            "high": {
              "value": 0,
              "code": "mg/dL",
              "system": "http://unitsofmeasure.org"
            }
          }
        ],
        "interpretation": [
          {
            "coding": [
              {
                "code": "H",
                "system": "http://terminology.hl7.org/CodeSystem/v3-ObservationInterpretation",
                "display": "High"
              }
            ]
          }
        ],
        "text": {
          "status": "generated",
          "div": "<div xmlns=\"http://www.w3.org/1999/xhtml\"><table class=\"hl7__eu__lab__report\"><tr><th>Test</th><th>22-Jan-2024</th><th>Reference&#xA0;Range</th><th>Unit</th></tr><tr><td>Glucose [Mass/volume] in Urine by Test strip</td><td>2.4</td><td>0.8 - 0</td><td>H</td><td>mg/dL</td></tr></table></div>"
        },
        "status": "final",
        "subject": {
          "reference": "urn:uuid:ddbce121-eaa0-4445-a36a-87afbe22e3eb",
          "display": "Meaghan Neary"
        },
        "effectiveDateTime": "2024-01-22T22:11:04Z",
        "specimen": {
          "reference": "urn:uuid:f8d5711c-431b-4c1a-ad0d-de4ac20f4a1e"
        }
      }
    },
    {
      "fullUrl": "urn:uuid:4ce688d1-5d92-4423-9534-f513e32186fa",
      "resource": {
        "resourceType": "Observation",
        "id": "4ce688d1-5d92-4423-9534-f513e32186fa",
        "meta": {
          "profile": [
            "http://hl7.eu/fhir/laboratory/StructureDefinition/Observation-resultslab-eu-lab"
          ]
        },
        "performer": [
          {
            "display": "The Central European Lab"
          }
        ],
        "category": [
          {
            "coding": [
              {
                "system": "http://terminology.hl7.org/CodeSystem/observation-category",
                "code": "laboratory"
              }
            ]
          }
        ],
        "code": {
          "coding": [
            {
              "code": "25428-4",
              "system": "http://loinc.org",
              "display": "Glucose [Presence] in Urine by Test strip"
            }
          ],
          "text": "Glucose [Presence] in Urine by Test strip"
        },
        "text": {
          "status": "generated",
          "div": "<div xmlns=\"http://www.w3.org/1999/xhtml\"><table class=\"hl7__eu__lab__report\"><tr><th>Test</th><th>22-Jan-2024</th><th>Reference&#xA0;Range</th><th>Unit</th></tr><tr><td>Glucose [Presence] in Urine by Test strip</td></tr></table></div>"
        },
        "status": "final",
        "subject": {
          "reference": "urn:uuid:ddbce121-eaa0-4445-a36a-87afbe22e3eb",
          "display": "Meaghan Neary"
        },
        "effectiveDateTime": "2024-01-22T22:11:04Z",
        "specimen": {
          "reference": "urn:uuid:f8d5711c-431b-4c1a-ad0d-de4ac20f4a1e"
        }
      }
    },
    {
      "fullUrl": "urn:uuid:aa6dea8f-adf5-45f2-8a61-bd9cef288dc8",
      "resource": {
        "resourceType": "Observation",
        "id": "aa6dea8f-adf5-45f2-8a61-bd9cef288dc8",
        "meta": {
          "profile": [
            "http://hl7.eu/fhir/laboratory/StructureDefinition/Observation-resultslab-eu-lab"
          ]
        },
        "performer": [
          {
            "display": "The Central European Lab"
          }
        ],
        "category": [
          {
            "coding": [
              {
                "system": "http://terminology.hl7.org/CodeSystem/observation-category",
                "code": "laboratory"
              }
            ]
          }
        ],
        "code": {
          "coding": [
            {
              "code": "20505-4",
              "system": "http://loinc.org",
              "display": "Bilirubin.total [Mass/volume] in Urine by Test strip"
            }
          ],
          "text": "Bilirubin.total [Mass/volume] in Urine by Test strip"
        },
        "valueQuantity": {
          "system": "http://unitsofmeasure.org",
          "value": 1.2,
          "unit": "mg/dL",
          "code": "mg/dL"
        },
        "referenceRange": [
          {
            "low": {
              "value": 0,
              "code": "mg/dL",
              "system": "http://unitsofmeasure.org"
            }
          },
          {
            "high": {
              "value": 1,
              "code": "mg/dL",
              "system": "http://unitsofmeasure.org"
            }
          }
        ],
        "interpretation": [
          {
            "coding": [
              {
                "code": "H",
                "system": "http://terminology.hl7.org/CodeSystem/v3-ObservationInterpretation",
                "display": "High"
              }
            ]
          }
        ],
        "text": {
          "status": "generated",
          "div": "<div xmlns=\"http://www.w3.org/1999/xhtml\"><table class=\"hl7__eu__lab__report\"><tr><th>Test</th><th>22-Jan-2024</th><th>Reference&#xA0;Range</th><th>Unit</th></tr><tr><td>Bilirubin.total [Mass/volume] in Urine by Test strip</td><td>1.2</td><td>0 - 1</td><td>H</td><td>mg/dL</td></tr></table></div>"
        },
        "status": "final",
        "subject": {
          "reference": "urn:uuid:ddbce121-eaa0-4445-a36a-87afbe22e3eb",
          "display": "Meaghan Neary"
        },
        "effectiveDateTime": "2024-01-22T22:11:04Z",
        "specimen": {
          "reference": "urn:uuid:f8d5711c-431b-4c1a-ad0d-de4ac20f4a1e"
        }
      }
    },
    {
      "fullUrl": "urn:uuid:60ed4e24-9799-44db-a735-43d77ffe7641",
      "resource": {
        "resourceType": "Observation",
        "id": "60ed4e24-9799-44db-a735-43d77ffe7641",
        "meta": {
          "profile": [
            "http://hl7.eu/fhir/laboratory/StructureDefinition/Observation-resultslab-eu-lab"
          ]
        },
        "performer": [
          {
            "display": "The Central European Lab"
          }
        ],
        "category": [
          {
            "coding": [
              {
                "system": "http://terminology.hl7.org/CodeSystem/observation-category",
                "code": "laboratory"
              }
            ]
          }
        ],
        "code": {
          "coding": [
            {
              "code": "5770-3",
              "system": "http://loinc.org",
              "display": "Bilirubin.total [Presence] in Urine by Test strip"
            }
          ],
          "text": "Bilirubin.total [Presence] in Urine by Test strip"
        },
        "text": {
          "status": "generated",
          "div": "<div xmlns=\"http://www.w3.org/1999/xhtml\"><table class=\"hl7__eu__lab__report\"><tr><th>Test</th><th>22-Jan-2024</th><th>Reference&#xA0;Range</th><th>Unit</th></tr><tr><td>Bilirubin.total [Presence] in Urine by Test strip</td></tr></table></div>"
        },
        "status": "final",
        "subject": {
          "reference": "urn:uuid:ddbce121-eaa0-4445-a36a-87afbe22e3eb",
          "display": "Meaghan Neary"
        },
        "effectiveDateTime": "2024-01-22T22:11:04Z",
        "specimen": {
          "reference": "urn:uuid:f8d5711c-431b-4c1a-ad0d-de4ac20f4a1e"
        }
      }
    },
    {
      "fullUrl": "urn:uuid:e8ed8d74-a5b0-4aa6-b3c1-df2ae04d18db",
      "resource": {
        "resourceType": "Observation",
        "id": "e8ed8d74-a5b0-4aa6-b3c1-df2ae04d18db",
        "meta": {
          "profile": [
            "http://hl7.eu/fhir/laboratory/StructureDefinition/Observation-resultslab-eu-lab"
          ]
        },
        "performer": [
          {
            "display": "The Central European Lab"
          }
        ],
        "category": [
          {
            "coding": [
              {
                "system": "http://terminology.hl7.org/CodeSystem/observation-category",
                "code": "laboratory"
              }
            ]
          }
        ],
        "code": {
          "coding": [
            {
              "code": "5797-6",
              "system": "http://loinc.org",
              "display": "Ketones [Mass/volume] in Urine by Test strip"
            }
          ],
          "text": "Ketones [Mass/volume] in Urine by Test strip"
        },
        "valueQuantity": {
          "system": "http://unitsofmeasure.org",
          "value": 6.7,
          "unit": "mg/dL",
          "code": "mg/dL"
        },
        "referenceRange": [
          {
            "low": {
              "value": 0,
              "code": "mg/dL",
              "system": "http://unitsofmeasure.org"
            }
          },
          {
            "high": {
              "value": 4,
              "code": "mg/dL",
              "system": "http://unitsofmeasure.org"
            }
          }
        ],
        "interpretation": [
          {
            "coding": [
              {
                "code": "H",
                "system": "http://terminology.hl7.org/CodeSystem/v3-ObservationInterpretation",
                "display": "High"
              }
            ]
          }
        ],
        "text": {
          "status": "generated",
          "div": "<div xmlns=\"http://www.w3.org/1999/xhtml\"><table class=\"hl7__eu__lab__report\"><tr><th>Test</th><th>22-Jan-2024</th><th>Reference&#xA0;Range</th><th>Unit</th></tr><tr><td>Ketones [Mass/volume] in Urine by Test strip</td><td>6.7</td><td>0 - 4</td><td>H</td><td>mg/dL</td></tr></table></div>"
        },
        "status": "final",
        "subject": {
          "reference": "urn:uuid:ddbce121-eaa0-4445-a36a-87afbe22e3eb",
          "display": "Meaghan Neary"
        },
        "effectiveDateTime": "2024-01-22T22:11:04Z",
        "specimen": {
          "reference": "urn:uuid:f8d5711c-431b-4c1a-ad0d-de4ac20f4a1e"
        }
      }
    },
    {
      "fullUrl": "urn:uuid:c734557a-a5a7-407b-b5e1-a856cc80cdcb",
      "resource": {
        "resourceType": "Observation",
        "id": "c734557a-a5a7-407b-b5e1-a856cc80cdcb",
        "meta": {
          "profile": [
            "http://hl7.eu/fhir/laboratory/StructureDefinition/Observation-resultslab-eu-lab"
          ]
        },
        "performer": [
          {
            "display": "The Central European Lab"
          }
        ],
        "category": [
          {
            "coding": [
              {
                "system": "http://terminology.hl7.org/CodeSystem/observation-category",
                "code": "laboratory"
              }
            ]
          }
        ],
        "code": {
          "coding": [
            {
              "code": "2514-8",
              "system": "http://loinc.org",
              "display": "Ketones [Presence] in Urine by Test strip"
            }
          ],
          "text": "Ketones [Presence] in Urine by Test strip"
        },
        "text": {
          "status": "generated",
          "div": "<div xmlns=\"http://www.w3.org/1999/xhtml\"><table class=\"hl7__eu__lab__report\"><tr><th>Test</th><th>22-Jan-2024</th><th>Reference&#xA0;Range</th><th>Unit</th></tr><tr><td>Ketones [Presence] in Urine by Test strip</td></tr></table></div>"
        },
        "status": "final",
        "subject": {
          "reference": "urn:uuid:ddbce121-eaa0-4445-a36a-87afbe22e3eb",
          "display": "Meaghan Neary"
        },
        "effectiveDateTime": "2024-01-22T22:11:04Z",
        "specimen": {
          "reference": "urn:uuid:f8d5711c-431b-4c1a-ad0d-de4ac20f4a1e"
        }
      }
    },
    {
      "fullUrl": "urn:uuid:4d695406-3167-4555-9664-e76242451e28",
      "resource": {
        "resourceType": "Observation",
        "id": "4d695406-3167-4555-9664-e76242451e28",
        "meta": {
          "profile": [
            "http://hl7.eu/fhir/laboratory/StructureDefinition/Observation-resultslab-eu-lab"
          ]
        },
        "performer": [
          {
            "display": "The Central European Lab"
          }
        ],
        "category": [
          {
            "coding": [
              {
                "system": "http://terminology.hl7.org/CodeSystem/observation-category",
                "code": "laboratory"
              }
            ]
          }
        ],
        "code": {
          "coding": [
            {
              "code": "5811-5",
              "system": "http://loinc.org",
              "display": "Specific gravity of Urine by Test strip"
            }
          ],
          "text": "Specific gravity of Urine by Test strip"
        },
        "valueQuantity": {
          "system": "http://unitsofmeasure.org",
          "value": 1,
          "unit": "{nominal}",
          "code": "{nominal}"
        },
        "referenceRange": [
          {
            "low": {
              "value": 1.005,
              "code": "g/mL",
              "system": "http://unitsofmeasure.org"
            }
          },
          {
            "high": {
              "value": 1.03,
              "code": "g/mL",
              "system": "http://unitsofmeasure.org"
            }
          }
        ],
        "interpretation": [
          {
            "coding": [
              {
                "code": "L",
                "system": "http://terminology.hl7.org/CodeSystem/v3-ObservationInterpretation",
                "display": "Low"
              }
            ]
          }
        ],
        "text": {
          "status": "generated",
          "div": "<div xmlns=\"http://www.w3.org/1999/xhtml\"><table class=\"hl7__eu__lab__report\"><tr><th>Test</th><th>22-Jan-2024</th><th>Reference&#xA0;Range</th><th>Unit</th></tr><tr><td>Specific gravity of Urine by Test strip</td><td>1.0</td><td>1.005 - 1.03</td><td>L</td><td>{nominal}</td></tr></table></div>"
        },
        "status": "final",
        "subject": {
          "reference": "urn:uuid:ddbce121-eaa0-4445-a36a-87afbe22e3eb",
          "display": "Meaghan Neary"
        },
        "effectiveDateTime": "2024-01-22T22:11:04Z",
        "specimen": {
          "reference": "urn:uuid:f8d5711c-431b-4c1a-ad0d-de4ac20f4a1e"
        }
      }
    },
    {
      "fullUrl": "urn:uuid:eece462c-30cc-4472-828a-42b0eb8c0f83",
      "resource": {
        "resourceType": "Observation",
        "id": "eece462c-30cc-4472-828a-42b0eb8c0f83",
        "meta": {
          "profile": [
            "http://hl7.eu/fhir/laboratory/StructureDefinition/Observation-resultslab-eu-lab"
          ]
        },
        "performer": [
          {
            "display": "The Central European Lab"
          }
        ],
        "category": [
          {
            "coding": [
              {
                "system": "http://terminology.hl7.org/CodeSystem/observation-category",
                "code": "laboratory"
              }
            ]
          }
        ],
        "code": {
          "coding": [
            {
              "code": "5803-2",
              "system": "http://loinc.org",
              "display": "pH of Urine by Test strip"
            }
          ],
          "text": "pH of Urine by Test strip"
        },
        "valueQuantity": {
          "system": "http://unitsofmeasure.org",
          "value": 5.9,
          "unit": "pH",
          "code": "pH"
        },
        "referenceRange": [
          {
            "low": {
              "value": 4.6,
              "code": "pH",
              "system": "http://unitsofmeasure.org"
            }
          },
          {
            "high": {
              "value": 7,
              "code": "pH",
              "system": "http://unitsofmeasure.org"
            }
          }
        ],
        "text": {
          "status": "generated",
          "div": "<div xmlns=\"http://www.w3.org/1999/xhtml\"><table class=\"hl7__eu__lab__report\"><tr><th>Test</th><th>22-Jan-2024</th><th>Reference&#xA0;Range</th><th>Unit</th></tr><tr><td>pH of Urine by Test strip</td><td>5.9</td><td>4.6 - 7</td><td></td><td>pH</td></tr></table></div>"
        },
        "status": "final",
        "subject": {
          "reference": "urn:uuid:ddbce121-eaa0-4445-a36a-87afbe22e3eb",
          "display": "Meaghan Neary"
        },
        "effectiveDateTime": "2024-01-22T22:11:04Z",
        "specimen": {
          "reference": "urn:uuid:f8d5711c-431b-4c1a-ad0d-de4ac20f4a1e"
        }
      }
    },
    {
      "fullUrl": "urn:uuid:d526de20-ad91-4fca-a6b8-96573b885a0f",
      "resource": {
        "resourceType": "Observation",
        "id": "d526de20-ad91-4fca-a6b8-96573b885a0f",
        "meta": {
          "profile": [
            "http://hl7.eu/fhir/laboratory/StructureDefinition/Observation-resultslab-eu-lab"
          ]
        },
        "performer": [
          {
            "display": "The Central European Lab"
          }
        ],
        "category": [
          {
            "coding": [
              {
                "system": "http://terminology.hl7.org/CodeSystem/observation-category",
                "code": "laboratory"
              }
            ]
          }
        ],
        "code": {
          "coding": [
            {
              "code": "5804-0",
              "system": "http://loinc.org",
              "display": "Protein [Mass/volume] in Urine by Test strip"
            }
          ],
          "text": "Protein [Mass/volume] in Urine by Test strip"
        },
        "valueQuantity": {
          "system": "http://unitsofmeasure.org",
          "value": 353.3,
          "unit": "mg/dL",
          "code": "mg/dL"
        },
        "referenceRange": [
          {
            "low": {
              "value": 0,
              "code": "mg/dL",
              "system": "http://unitsofmeasure.org"
            }
          },
          {
            "high": {
              "value": 14,
              "code": "mg/dL",
              "system": "http://unitsofmeasure.org"
            }
          }
        ],
        "interpretation": [
          {
            "coding": [
              {
                "code": "H",
                "system": "http://terminology.hl7.org/CodeSystem/v3-ObservationInterpretation",
                "display": "High"
              }
            ]
          }
        ],
        "text": {
          "status": "generated",
          "div": "<div xmlns=\"http://www.w3.org/1999/xhtml\"><table class=\"hl7__eu__lab__report\"><tr><th>Test</th><th>22-Jan-2024</th><th>Reference&#xA0;Range</th><th>Unit</th></tr><tr><td>Protein [Mass/volume] in Urine by Test strip</td><td>353.3</td><td>0 - 14</td><td>H</td><td>mg/dL</td></tr></table></div>"
        },
        "status": "final",
        "subject": {
          "reference": "urn:uuid:ddbce121-eaa0-4445-a36a-87afbe22e3eb",
          "display": "Meaghan Neary"
        },
        "effectiveDateTime": "2024-01-22T22:11:04Z",
        "specimen": {
          "reference": "urn:uuid:f8d5711c-431b-4c1a-ad0d-de4ac20f4a1e"
        }
      }
    },
    {
      "fullUrl": "urn:uuid:cb887880-7999-4e13-bc23-621794395e7f",
      "resource": {
        "resourceType": "Observation",
        "id": "cb887880-7999-4e13-bc23-621794395e7f",
        "meta": {
          "profile": [
            "http://hl7.eu/fhir/laboratory/StructureDefinition/Observation-resultslab-eu-lab"
          ]
        },
        "performer": [
          {
            "display": "The Central European Lab"
          }
        ],
        "category": [
          {
            "coding": [
              {
                "system": "http://terminology.hl7.org/CodeSystem/observation-category",
                "code": "laboratory"
              }
            ]
          }
        ],
        "code": {
          "coding": [
            {
              "code": "20454-5",
              "system": "http://loinc.org",
              "display": "Protein [Presence] in Urine by Test strip"
            }
          ],
          "text": "Protein [Presence] in Urine by Test strip"
        },
        "text": {
          "status": "generated",
          "div": "<div xmlns=\"http://www.w3.org/1999/xhtml\"><table class=\"hl7__eu__lab__report\"><tr><th>Test</th><th>22-Jan-2024</th><th>Reference&#xA0;Range</th><th>Unit</th></tr><tr><td>Protein [Presence] in Urine by Test strip</td></tr></table></div>"
        },
        "status": "final",
        "subject": {
          "reference": "urn:uuid:ddbce121-eaa0-4445-a36a-87afbe22e3eb",
          "display": "Meaghan Neary"
        },
        "effectiveDateTime": "2024-01-22T22:11:04Z",
        "specimen": {
          "reference": "urn:uuid:f8d5711c-431b-4c1a-ad0d-de4ac20f4a1e"
        }
      }
    },
    {
      "fullUrl": "urn:uuid:2ff571fb-991d-4f2c-be30-f05720f7db8f",
      "resource": {
        "resourceType": "Observation",
        "id": "2ff571fb-991d-4f2c-be30-f05720f7db8f",
        "meta": {
          "profile": [
            "http://hl7.eu/fhir/laboratory/StructureDefinition/Observation-resultslab-eu-lab"
          ]
        },
        "performer": [
          {
            "display": "The Central European Lab"
          }
        ],
        "category": [
          {
            "coding": [
              {
                "system": "http://terminology.hl7.org/CodeSystem/observation-category",
                "code": "laboratory"
              }
            ]
          }
        ],
        "code": {
          "coding": [
            {
              "code": "5802-4",
              "system": "http://loinc.org",
              "display": "Nitrite [Presence] in Urine by Test strip"
            }
          ],
          "text": "Nitrite [Presence] in Urine by Test strip"
        },
        "text": {
          "status": "generated",
          "div": "<div xmlns=\"http://www.w3.org/1999/xhtml\"><table class=\"hl7__eu__lab__report\"><tr><th>Test</th><th>22-Jan-2024</th><th>Reference&#xA0;Range</th><th>Unit</th></tr><tr><td>Nitrite [Presence] in Urine by Test strip</td></tr></table></div>"
        },
        "status": "final",
        "subject": {
          "reference": "urn:uuid:ddbce121-eaa0-4445-a36a-87afbe22e3eb",
          "display": "Meaghan Neary"
        },
        "effectiveDateTime": "2024-01-22T22:11:04Z",
        "specimen": {
          "reference": "urn:uuid:f8d5711c-431b-4c1a-ad0d-de4ac20f4a1e"
        }
      }
    },
    {
      "fullUrl": "urn:uuid:80708acf-c59f-40a2-8c51-3e03fc4fbde7",
      "resource": {
        "resourceType": "Observation",
        "id": "80708acf-c59f-40a2-8c51-3e03fc4fbde7",
        "meta": {
          "profile": [
            "http://hl7.eu/fhir/laboratory/StructureDefinition/Observation-resultslab-eu-lab"
          ]
        },
        "performer": [
          {
            "display": "The Central European Lab"
          }
        ],
        "category": [
          {
            "coding": [
              {
                "system": "http://terminology.hl7.org/CodeSystem/observation-category",
                "code": "laboratory"
              }
            ]
          }
        ],
        "code": {
          "coding": [
            {
              "code": "5794-3",
              "system": "http://loinc.org",
              "display": "Hemoglobin [Presence] in Urine by Test strip"
            }
          ],
          "text": "Hemoglobin [Presence] in Urine by Test strip"
        },
        "text": {
          "status": "generated",
          "div": "<div xmlns=\"http://www.w3.org/1999/xhtml\"><table class=\"hl7__eu__lab__report\"><tr><th>Test</th><th>22-Jan-2024</th><th>Reference&#xA0;Range</th><th>Unit</th></tr><tr><td>Hemoglobin [Presence] in Urine by Test strip</td></tr></table></div>"
        },
        "status": "final",
        "subject": {
          "reference": "urn:uuid:ddbce121-eaa0-4445-a36a-87afbe22e3eb",
          "display": "Meaghan Neary"
        },
        "effectiveDateTime": "2024-01-22T22:11:04Z",
        "specimen": {
          "reference": "urn:uuid:f8d5711c-431b-4c1a-ad0d-de4ac20f4a1e"
        }
      }
    },
    {
      "fullUrl": "urn:uuid:d1e91517-f2b4-47ef-a3e4-baa45b51a0d3",
      "resource": {
        "resourceType": "Observation",
        "id": "d1e91517-f2b4-47ef-a3e4-baa45b51a0d3",
        "meta": {
          "profile": [
            "http://hl7.eu/fhir/laboratory/StructureDefinition/Observation-resultslab-eu-lab"
          ]
        },
        "performer": [
          {
            "display": "The Central European Lab"
          }
        ],
        "category": [
          {
            "coding": [
              {
                "system": "http://terminology.hl7.org/CodeSystem/observation-category",
                "code": "laboratory"
              }
            ]
          }
        ],
        "code": {
          "coding": [
            {
              "code": "5799-2",
              "system": "http://loinc.org",
              "display": "Leukocyte esterase [Presence] in Urine by Test strip"
            }
          ],
          "text": "Leukocyte esterase [Presence] in Urine by Test strip"
        },
        "text": {
          "status": "generated",
          "div": "<div xmlns=\"http://www.w3.org/1999/xhtml\"><table class=\"hl7__eu__lab__report\"><tr><th>Test</th><th>22-Jan-2024</th><th>Reference&#xA0;Range</th><th>Unit</th></tr><tr><td>Leukocyte esterase [Presence] in Urine by Test strip</td></tr></table></div>"
        },
        "status": "final",
        "subject": {
          "reference": "urn:uuid:ddbce121-eaa0-4445-a36a-87afbe22e3eb",
          "display": "Meaghan Neary"
        },
        "effectiveDateTime": "2024-01-22T22:11:04Z",
        "specimen": {
          "reference": "urn:uuid:f8d5711c-431b-4c1a-ad0d-de4ac20f4a1e"
        }
      }
    },
    {
      "fullUrl": "urn:uuid:2d6fa2f1-c315-42b6-9a9c-d59551fc76b4",
      "resource": {
        "resourceType": "Observation",
        "id": "2d6fa2f1-c315-42b6-9a9c-d59551fc76b4",
        "meta": {
          "profile": [
            "http://hl7.eu/fhir/laboratory/StructureDefinition/Observation-resultslab-eu-lab"
          ]
        },
        "performer": [
          {
            "display": "The Central European Lab"
          }
        ],
        "category": [
          {
            "coding": [
              {
                "system": "http://terminology.hl7.org/CodeSystem/observation-category",
                "code": "laboratory"
              }
            ]
          }
        ],
        "code": {
          "coding": [
            {
              "code": "4548-4",
              "system": "http://loinc.org",
              "display": "Hemoglobin A1c/Hemoglobin.total in Blood"
            }
          ],
          "text": "Hemoglobin A1c/Hemoglobin.total in Blood"
        },
        "valueQuantity": {
          "system": "http://unitsofmeasure.org",
          "value": 4,
          "unit": "%",
          "code": "%"
        },
        "referenceRange": [
          {
            "low": {
              "value": 4,
              "code": "%",
              "system": "http://unitsofmeasure.org"
            }
          },
          {
            "high": {
              "value": 6.4,
              "code": "%",
              "system": "http://unitsofmeasure.org"
            }
          }
        ],
        "text": {
          "status": "generated",
          "div": "<div xmlns=\"http://www.w3.org/1999/xhtml\"><table class=\"hl7__eu__lab__report\"><tr><th>Test</th><th>22-Jan-2024</th><th>Reference&#xA0;Range</th><th>Unit</th></tr><tr><td>Hemoglobin A1c/Hemoglobin.total in Blood</td><td>4.0</td><td>4 - 6.4</td><td></td><td>%</td></tr></table></div>"
        },
        "status": "final",
        "subject": {
          "reference": "urn:uuid:ddbce121-eaa0-4445-a36a-87afbe22e3eb",
          "display": "Meaghan Neary"
        },
        "effectiveDateTime": "2024-01-22T22:11:04Z",
        "specimen": {
          "reference": "urn:uuid:aba209df-723f-44ab-a292-6aaf0d8f154e"
        }
      }
    },
    {
      "fullUrl": "urn:uuid:e3b7682f-7ad9-46d5-bac9-9fb188f0cc9e",
      "resource": {
        "resourceType": "Observation",
        "id": "e3b7682f-7ad9-46d5-bac9-9fb188f0cc9e",
        "meta": {
          "profile": [
            "http://hl7.eu/fhir/laboratory/StructureDefinition/Observation-resultslab-eu-lab"
          ]
        },
        "performer": [
          {
            "display": "The Central European Lab"
          }
        ],
        "category": [
          {
            "coding": [
              {
                "system": "http://terminology.hl7.org/CodeSystem/observation-category",
                "code": "laboratory"
              }
            ]
          }
        ],
        "code": {
          "coding": [
            {
              "code": "2339-0",
              "system": "http://loinc.org",
              "display": "Glucose [Mass/volume] in Blood"
            }
          ],
          "text": "Glucose [Mass/volume] in Blood"
        },
        "valueQuantity": {
          "system": "http://unitsofmeasure.org",
          "value": 95.5,
          "unit": "mg/dL",
          "code": "mg/dL"
        },
        "referenceRange": [
          {
            "low": {
              "value": 70,
              "code": "mg/dL",
              "system": "http://unitsofmeasure.org"
            }
          },
          {
            "high": {
              "value": 100,
              "code": "mg/dL",
              "system": "http://unitsofmeasure.org"
            }
          }
        ],
        "text": {
          "status": "generated",
          "div": "<div xmlns=\"http://www.w3.org/1999/xhtml\"><table class=\"hl7__eu__lab__report\"><tr><th>Test</th><th>22-Jan-2024</th><th>Reference&#xA0;Range</th><th>Unit</th></tr><tr><td>Glucose [Mass/volume] in Blood</td><td>95.5</td><td>70 - 100</td><td></td><td>mg/dL</td></tr></table></div>"
        },
        "status": "final",
        "subject": {
          "reference": "urn:uuid:ddbce121-eaa0-4445-a36a-87afbe22e3eb",
          "display": "Meaghan Neary"
        },
        "effectiveDateTime": "2024-01-22T22:11:04Z",
        "specimen": {
          "reference": "urn:uuid:aba209df-723f-44ab-a292-6aaf0d8f154e"
        }
      }
    },
    {
      "fullUrl": "urn:uuid:75d4bb5f-d751-4d11-b19c-83135f1900ae",
      "resource": {
        "resourceType": "Observation",
        "id": "75d4bb5f-d751-4d11-b19c-83135f1900ae",
        "meta": {
          "profile": [
            "http://hl7.eu/fhir/laboratory/StructureDefinition/Observation-resultslab-eu-lab"
          ]
        },
        "performer": [
          {
            "display": "The Central European Lab"
          }
        ],
        "category": [
          {
            "coding": [
              {
                "system": "http://terminology.hl7.org/CodeSystem/observation-category",
                "code": "laboratory"
              }
            ]
          }
        ],
        "code": {
          "coding": [
            {
              "code": "6299-2",
              "system": "http://loinc.org",
              "display": "Urea nitrogen [Mass/volume] in Blood"
            }
          ],
          "text": "Urea nitrogen [Mass/volume] in Blood"
        },
        "valueQuantity": {
          "system": "http://unitsofmeasure.org",
          "value": 9.8,
          "unit": "mg/dL",
          "code": "mg/dL"
        },
        "referenceRange": [
          {
            "low": {
              "value": 7,
              "code": "mg/dL",
              "system": "http://unitsofmeasure.org"
            }
          },
          {
            "high": {
              "value": 43,
              "code": "mg/dL",
              "system": "http://unitsofmeasure.org"
            }
          }
        ],
        "text": {
          "status": "generated",
          "div": "<div xmlns=\"http://www.w3.org/1999/xhtml\"><table class=\"hl7__eu__lab__report\"><tr><th>Test</th><th>22-Jan-2024</th><th>Reference&#xA0;Range</th><th>Unit</th></tr><tr><td>Urea nitrogen [Mass/volume] in Blood</td><td>9.8</td><td>7 - 43</td><td></td><td>mg/dL</td></tr></table></div>"
        },
        "status": "final",
        "subject": {
          "reference": "urn:uuid:ddbce121-eaa0-4445-a36a-87afbe22e3eb",
          "display": "Meaghan Neary"
        },
        "effectiveDateTime": "2024-01-22T22:11:04Z",
        "specimen": {
          "reference": "urn:uuid:aba209df-723f-44ab-a292-6aaf0d8f154e"
        }
      }
    },
    {
      "fullUrl": "urn:uuid:22860f38-0cbd-4efa-9c3e-eaf46723b07a",
      "resource": {
        "resourceType": "Observation",
        "id": "22860f38-0cbd-4efa-9c3e-eaf46723b07a",
        "meta": {
          "profile": [
            "http://hl7.eu/fhir/laboratory/StructureDefinition/Observation-resultslab-eu-lab"
          ]
        },
        "performer": [
          {
            "display": "The Central European Lab"
          }
        ],
        "category": [
          {
            "coding": [
              {
                "system": "http://terminology.hl7.org/CodeSystem/observation-category",
                "code": "laboratory"
              }
            ]
          }
        ],
        "code": {
          "coding": [
            {
              "code": "38483-4",
              "system": "http://loinc.org",
              "display": "Creatinine [Mass/volume] in Blood"
            }
          ],
          "text": "Creatinine [Mass/volume] in Blood"
        },
        "valueQuantity": {
          "system": "http://unitsofmeasure.org",
          "value": 3.4,
          "unit": "mg/dL",
          "code": "mg/dL"
        },
        "referenceRange": [
          {
            "low": {
              "value": 0.6,
              "code": "mg/dL",
              "system": "http://unitsofmeasure.org"
            }
          },
          {
            "high": {
              "value": 1.1,
              "code": "mg/dL",
              "system": "http://unitsofmeasure.org"
            }
          }
        ],
        "interpretation": [
          {
            "coding": [
              {
                "code": "H",
                "system": "http://terminology.hl7.org/CodeSystem/v3-ObservationInterpretation",
                "display": "High"
              }
            ]
          }
        ],
        "text": {
          "status": "generated",
          "div": "<div xmlns=\"http://www.w3.org/1999/xhtml\"><table class=\"hl7__eu__lab__report\"><tr><th>Test</th><th>22-Jan-2024</th><th>Reference&#xA0;Range</th><th>Unit</th></tr><tr><td>Creatinine [Mass/volume] in Blood</td><td>3.4</td><td>0.6 - 1.1</td><td>H</td><td>mg/dL</td></tr></table></div>"
        },
        "status": "final",
        "subject": {
          "reference": "urn:uuid:ddbce121-eaa0-4445-a36a-87afbe22e3eb",
          "display": "Meaghan Neary"
        },
        "effectiveDateTime": "2024-01-22T22:11:04Z",
        "specimen": {
          "reference": "urn:uuid:aba209df-723f-44ab-a292-6aaf0d8f154e"
        }
      }
    },
    {
      "fullUrl": "urn:uuid:ad4e7418-bab4-4d37-a64d-1d15c58f6899",
      "resource": {
        "resourceType": "Observation",
        "id": "ad4e7418-bab4-4d37-a64d-1d15c58f6899",
        "meta": {
          "profile": [
            "http://hl7.eu/fhir/laboratory/StructureDefinition/Observation-resultslab-eu-lab"
          ]
        },
        "performer": [
          {
            "display": "The Central European Lab"
          }
        ],
        "category": [
          {
            "coding": [
              {
                "system": "http://terminology.hl7.org/CodeSystem/observation-category",
                "code": "laboratory"
              }
            ]
          }
        ],
        "code": {
          "coding": [
            {
              "code": "49765-1",
              "system": "http://loinc.org",
              "display": "Calcium [Mass/volume] in Blood"
            }
          ],
          "text": "Calcium [Mass/volume] in Blood"
        },
        "valueQuantity": {
          "system": "http://unitsofmeasure.org",
          "value": 9.9,
          "unit": "mg/dL",
          "code": "mg/dL"
        },
        "referenceRange": [
          {
            "low": {
              "value": 8.5,
              "code": "mg/dL",
              "system": "http://unitsofmeasure.org"
            }
          },
          {
            "high": {
              "value": 10.5,
              "code": "mg/dL",
              "system": "http://unitsofmeasure.org"
            }
          }
        ],
        "text": {
          "status": "generated",
          "div": "<div xmlns=\"http://www.w3.org/1999/xhtml\"><table class=\"hl7__eu__lab__report\"><tr><th>Test</th><th>22-Jan-2024</th><th>Reference&#xA0;Range</th><th>Unit</th></tr><tr><td>Calcium [Mass/volume] in Blood</td><td>9.9</td><td>8.5 - 10.5</td><td></td><td>mg/dL</td></tr></table></div>"
        },
        "status": "final",
        "subject": {
          "reference": "urn:uuid:ddbce121-eaa0-4445-a36a-87afbe22e3eb",
          "display": "Meaghan Neary"
        },
        "effectiveDateTime": "2024-01-22T22:11:04Z",
        "specimen": {
          "reference": "urn:uuid:aba209df-723f-44ab-a292-6aaf0d8f154e"
        }
      }
    },
    {
      "fullUrl": "urn:uuid:a26f9c50-7c51-465b-affb-7b99e7b37c69",
      "resource": {
        "resourceType": "Observation",
        "id": "a26f9c50-7c51-465b-affb-7b99e7b37c69",
        "meta": {
          "profile": [
            "http://hl7.eu/fhir/laboratory/StructureDefinition/Observation-resultslab-eu-lab"
          ]
        },
        "performer": [
          {
            "display": "The Central European Lab"
          }
        ],
        "category": [
          {
            "coding": [
              {
                "system": "http://terminology.hl7.org/CodeSystem/observation-category",
                "code": "laboratory"
              }
            ]
          }
        ],
        "code": {
          "coding": [
            {
              "code": "2947-0",
              "system": "http://loinc.org",
              "display": "Sodium [Moles/volume] in Blood"
            }
          ],
          "text": "Sodium [Moles/volume] in Blood"
        },
        "valueQuantity": {
          "system": "http://unitsofmeasure.org",
          "value": 143.1,
          "unit": "mmol/L",
          "code": "mmol/L"
        },
        "referenceRange": [
          {
            "low": {
              "value": 135,
              "code": "mmol/L",
              "system": "http://unitsofmeasure.org"
            }
          },
          {
            "high": {
              "value": 145,
              "code": "mmol/L",
              "system": "http://unitsofmeasure.org"
            }
          }
        ],
        "text": {
          "status": "generated",
          "div": "<div xmlns=\"http://www.w3.org/1999/xhtml\"><table class=\"hl7__eu__lab__report\"><tr><th>Test</th><th>22-Jan-2024</th><th>Reference&#xA0;Range</th><th>Unit</th></tr><tr><td>Sodium [Moles/volume] in Blood</td><td>143.1</td><td>135 - 145</td><td></td><td>mmol/L</td></tr></table></div>"
        },
        "status": "final",
        "subject": {
          "reference": "urn:uuid:ddbce121-eaa0-4445-a36a-87afbe22e3eb",
          "display": "Meaghan Neary"
        },
        "effectiveDateTime": "2024-01-22T22:11:04Z",
        "specimen": {
          "reference": "urn:uuid:aba209df-723f-44ab-a292-6aaf0d8f154e"
        }
      }
    },
    {
      "fullUrl": "urn:uuid:cfcbc293-0570-46ff-a1fb-367e376ec167",
      "resource": {
        "resourceType": "Observation",
        "id": "cfcbc293-0570-46ff-a1fb-367e376ec167",
        "meta": {
          "profile": [
            "http://hl7.eu/fhir/laboratory/StructureDefinition/Observation-resultslab-eu-lab"
          ]
        },
        "performer": [
          {
            "display": "The Central European Lab"
          }
        ],
        "category": [
          {
            "coding": [
              {
                "system": "http://terminology.hl7.org/CodeSystem/observation-category",
                "code": "laboratory"
              }
            ]
          }
        ],
        "code": {
          "coding": [
            {
              "code": "6298-4",
              "system": "http://loinc.org",
              "display": "Potassium [Moles/volume] in Blood"
            }
          ],
          "text": "Potassium [Moles/volume] in Blood"
        },
        "valueQuantity": {
          "system": "http://unitsofmeasure.org",
          "value": 4.2,
          "unit": "mmol/L",
          "code": "mmol/L"
        },
        "referenceRange": [
          {
            "low": {
              "value": 3.5,
              "code": "mmol/L",
              "system": "http://unitsofmeasure.org"
            }
          },
          {
            "high": {
              "value": 5.1,
              "code": "mmol/L",
              "system": "http://unitsofmeasure.org"
            }
          }
        ],
        "text": {
          "status": "generated",
          "div": "<div xmlns=\"http://www.w3.org/1999/xhtml\"><table class=\"hl7__eu__lab__report\"><tr><th>Test</th><th>22-Jan-2024</th><th>Reference&#xA0;Range</th><th>Unit</th></tr><tr><td>Potassium [Moles/volume] in Blood</td><td>4.2</td><td>3.5 - 5.1</td><td></td><td>mmol/L</td></tr></table></div>"
        },
        "status": "final",
        "subject": {
          "reference": "urn:uuid:ddbce121-eaa0-4445-a36a-87afbe22e3eb",
          "display": "Meaghan Neary"
        },
        "effectiveDateTime": "2024-01-22T22:11:04Z",
        "specimen": {
          "reference": "urn:uuid:aba209df-723f-44ab-a292-6aaf0d8f154e"
        }
      }
    },
    {
      "fullUrl": "urn:uuid:4906a3ad-a79a-4264-a040-235d193f6f01",
      "resource": {
        "resourceType": "Observation",
        "id": "4906a3ad-a79a-4264-a040-235d193f6f01",
        "meta": {
          "profile": [
            "http://hl7.eu/fhir/laboratory/StructureDefinition/Observation-resultslab-eu-lab"
          ]
        },
        "performer": [
          {
            "display": "The Central European Lab"
          }
        ],
        "category": [
          {
            "coding": [
              {
                "system": "http://terminology.hl7.org/CodeSystem/observation-category",
                "code": "laboratory"
              }
            ]
          }
        ],
        "code": {
          "coding": [
            {
              "code": "2069-3",
              "system": "http://loinc.org",
              "display": "Chloride [Moles/volume] in Blood"
            }
          ],
          "text": "Chloride [Moles/volume] in Blood"
        },
        "valueQuantity": {
          "system": "http://unitsofmeasure.org",
          "value": 104.5,
          "unit": "mmol/L",
          "code": "mmol/L"
        },
        "referenceRange": [
          {
            "low": {
              "value": 98,
              "code": "mmol/L",
              "system": "http://unitsofmeasure.org"
            }
          },
          {
            "high": {
              "value": 108,
              "code": "mmol/L",
              "system": "http://unitsofmeasure.org"
            }
          }
        ],
        "text": {
          "status": "generated",
          "div": "<div xmlns=\"http://www.w3.org/1999/xhtml\"><table class=\"hl7__eu__lab__report\"><tr><th>Test</th><th>22-Jan-2024</th><th>Reference&#xA0;Range</th><th>Unit</th></tr><tr><td>Chloride [Moles/volume] in Blood</td><td>104.5</td><td>98 - 108</td><td></td><td>mmol/L</td></tr></table></div>"
        },
        "status": "final",
        "subject": {
          "reference": "urn:uuid:ddbce121-eaa0-4445-a36a-87afbe22e3eb",
          "display": "Meaghan Neary"
        },
        "effectiveDateTime": "2024-01-22T22:11:04Z",
        "specimen": {
          "reference": "urn:uuid:aba209df-723f-44ab-a292-6aaf0d8f154e"
        }
      }
    },
    {
      "fullUrl": "urn:uuid:070c5c59-ed83-43f0-929a-11ee9d431b7c",
      "resource": {
        "resourceType": "Observation",
        "id": "070c5c59-ed83-43f0-929a-11ee9d431b7c",
        "meta": {
          "profile": [
            "http://hl7.eu/fhir/laboratory/StructureDefinition/Observation-resultslab-eu-lab"
          ]
        },
        "performer": [
          {
            "display": "The Central European Lab"
          }
        ],
        "category": [
          {
            "coding": [
              {
                "system": "http://terminology.hl7.org/CodeSystem/observation-category",
                "code": "laboratory"
              }
            ]
          }
        ],
        "code": {
          "coding": [
            {
              "code": "20565-8",
              "system": "http://loinc.org",
              "display": "Carbon dioxide, total [Moles/volume] in Blood"
            }
          ],
          "text": "Carbon dioxide, total [Moles/volume] in Blood"
        },
        "valueQuantity": {
          "system": "http://unitsofmeasure.org",
          "value": 27.4,
          "unit": "mmol/L",
          "code": "mmol/L"
        },
        "referenceRange": [
          {
            "low": {
              "value": 22,
              "code": "mmol/L",
              "system": "http://unitsofmeasure.org"
            }
          },
          {
            "high": {
              "value": 29,
              "code": "mmol/L",
              "system": "http://unitsofmeasure.org"
            }
          }
        ],
        "text": {
          "status": "generated",
          "div": "<div xmlns=\"http://www.w3.org/1999/xhtml\"><table class=\"hl7__eu__lab__report\"><tr><th>Test</th><th>22-Jan-2024</th><th>Reference&#xA0;Range</th><th>Unit</th></tr><tr><td>Carbon dioxide, total [Moles/volume] in Blood</td><td>27.4</td><td>22 - 29</td><td></td><td>mmol/L</td></tr></table></div>"
        },
        "status": "final",
        "subject": {
          "reference": "urn:uuid:ddbce121-eaa0-4445-a36a-87afbe22e3eb",
          "display": "Meaghan Neary"
        },
        "effectiveDateTime": "2024-01-22T22:11:04Z",
        "specimen": {
          "reference": "urn:uuid:aba209df-723f-44ab-a292-6aaf0d8f154e"
        }
      }
    },
    {
      "fullUrl": "urn:uuid:3d5f9f57-c454-4756-b754-7d9be8f20c0e",
      "resource": {
        "resourceType": "Device",
        "id": "3d5f9f57-c454-4756-b754-7d9be8f20c0e",
        "deviceName": [
          {
            "name": "SYNDERAI Synthetic Generator",
            "type": "manufacturer-name"
          }
        ],
        "version": [
          {
            "value": "5.0"
          }
        ],
        "text": {
          "status": "generated",
          "div": "<div xmlns=\"http://www.w3.org/1999/xhtml\">SYNDERAI Synthetic Generator v5.0</div>"
        },
        "status": "active\"",
        "distinctIdentifier": "synderai-generator-50",
        "manufacturer": "SYNDERAI Project"
      }
    },
    {
      "fullUrl": "urn:uuid:7a3226b1-f556-4d00-90a0-5f8d6de5dbe5",
      "resource": {
        "resourceType": "Provenance",
        "id": "7a3226b1-f556-4d00-90a0-5f8d6de5dbe5",
        "target": [
          {
            "reference": "Patient/ddbce121-eaa0-4445-a36a-87afbe22e3eb"
          },
          {
            "reference": "Bundle/5c9d1d61-20cd-4dd2-b90e-87bc880186f1"
          },
          {
            "reference": "Composition/1eb26b6d-4e0c-447b-9334-1a89c0011625"
          },
          {
            "reference": "PractitionerRole/77ec23e0-c4f9-4c69-b474-e2889507c8d1"
          },
          {
            "reference": "Practitioner/62c9afc6-dc34-4394-8f64-453ccdbbea72"
          },
          {
            "reference": "PractitionerRole/9eb6c27d-1afb-4259-a417-44e6d6817a57"
          },
          {
            "reference": "Organization/66212e6c-5d90-4bf0-8d4e-67175335edbe"
          }
        ],
        "activity": {
          "text": "Synthetic Example Data Generation"
        },
        "policy": [
          "https://synderai.net/synderai-synthetic-data-policy"
        ],
        "agent": [
          {
            "type": {
              "text": "author"
            },
            "who": {
              "reference": "Device/3d5f9f57-c454-4756-b754-7d9be8f20c0e"
            }
          }
        ],
        "reason": [
          {
            "text": "Interoperability Testing and Training (non-clinical use)"
          }
        ],
        "text": {
          "status": "generated",
          "div": "<div xmlns=\"http://www.w3.org/1999/xhtml\">Provenance for SYNDERAI Synthetic Example Data Resource</div>"
        },
        "recorded": "2024-01-22T23:11:04Z"
      }
    },
    {
      "fullUrl": "urn:uuid:77ec23e0-c4f9-4c69-b474-e2889507c8d1",
      "resource": {
        "resourceType": "PractitionerRole",
        "id": "77ec23e0-c4f9-4c69-b474-e2889507c8d1",
        "meta": {
          "profile": [
            "http://hl7.eu/fhir/base/StructureDefinition/practitionerRole-eu"
          ]
        },
        "text": {
          "status": "generated",
          "div": "<div xmlns=\"http://www.w3.org/1999/xhtml\">Laboratory Role Id: 77ec23e0-c4f9-4c69-b474-e2889507c8d1</div>"
        },
        "practitioner": {
          "reference": "urn:uuid:62c9afc6-dc34-4394-8f64-453ccdbbea72"
        }
      }
    },
    {
      "fullUrl": "urn:uuid:62c9afc6-dc34-4394-8f64-453ccdbbea72",
      "resource": {
        "resourceType": "Practitioner",
        "id": "62c9afc6-dc34-4394-8f64-453ccdbbea72",
        "meta": {
          "profile": [
            "http://hl7.eu/fhir/base/StructureDefinition/practitioner-eu"
          ]
        },
        "identifier": [
          {
            "assigner": {
              "display": "HL7 Europe"
            },
            "system": "urn:oid:2.16.840.1.113883.2.51.999",
            "value": "560f03cc-2a70-45fd-a7af-791782c91aad"
          }
        ],
        "name": [
          {
            "prefix": [
              "dr"
            ],
            "given": [
              "Ex"
            ],
            "family": "Ample"
          }
        ],
        "address": [
          {
            "line": [
              "Laboratoire Central Europenne",
              "Boulevard du Jardin Botanique 32"
            ],
            "postalCode": "1000",
            "city": "Brussels",
            "country": "Belgium"
          }
        ],
        "text": {
          "status": "generated",
          "div": "<div xmlns=\"http://www.w3.org/1999/xhtml\">Laboratory: Laboratoire Central Europenne, 1000 Brussels, Belgium</div>"
        }
      }
    }
  ],
  "type": "document",
  "timestamp": "2024-01-22T23:11:04Z"
}
