{
  "resourceType": "Bundle",
  "id": "1862ea26-bb49-4891-9600-291932aa4262",
  "meta": {
    "profile": [
      "http://hl7.eu/fhir/laboratory/StructureDefinition/Bundle-eu-lab"
    ]
  },
  "identifier": {
    "assigner": {
      "display": "HL7 Europe"
    },
    "system": "urn:oid:2.16.840.1.113883.2.51.999",
    "value": "f74f0ac0-086d-435b-bed8-b4cb1f09527c"
  },
  "entry": [
    {
      "fullUrl": "urn:uuid:053e6d1b-2b13-40bf-9d00-992f4a677ece",
      "resource": {
        "resourceType": "Composition",
        "id": "053e6d1b-2b13-40bf-9d00-992f4a677ece",
        "meta": {
          "profile": [
            "http://hl7.eu/fhir/laboratory/StructureDefinition/Composition-eu-lab"
          ]
        },
        "identifier": {
          "assigner": {
            "display": "HL7 Europe"
          },
          "system": "urn:oid:2.16.840.1.113883.2.51.999",
          "value": "a3011734-f03c-4111-846a-29048c82b203"
        },
        "author": [
          {
            "reference": "urn:uuid:1978475b-e666-47d1-8ad1-97f158f9ca83"
          }
        ],
        "category": [
          {
            "coding": [
              {
                "code": "26436-6",
                "system": "http://loinc.org",
                "display": "Laboratory studies (set)"
              }
            ]
          }
        ],
        "type": {
          "coding": [
            {
              "code": "11502-2",
              "system": "http://loinc.org",
              "display": "Laboratory report"
            }
          ],
          "text": "Laboratory Report"
        },
        "section": [
          {
            "code": {
              "coding": [
                {
                  "code": "26436-6",
                  "system": "http://loinc.org",
                  "display": "Laboratory studies (set)"
                }
              ],
              "text": "Laboratory studies"
            },
            "section": [
              {
                "code": {
                  "coding": [
                    {
                      "code": "$18719-5",
                      "system": "http://loinc.org",
                      "display": "Chemistry studies (set)"
                    }
                  ],
                  "text": "Chemistry"
                },
                "entry": [
                  {
                    "reference": "urn:uuid:9731bae8-7c0a-4441-a464-8d02c25a0afd"
                  },
                  {
                    "reference": "urn:uuid:73e3cd5d-4b60-4a27-baba-5e2165be024e"
                  },
                  {
                    "reference": "urn:uuid:ba96a16f-4c28-4799-b638-4767d1629edf"
                  },
                  {
                    "reference": "urn:uuid:4818c613-7315-4c0b-8c28-f02b0204778a"
                  },
                  {
                    "reference": "urn:uuid:073cff76-93c8-4370-9eda-2e16cad33795"
                  },
                  {
                    "reference": "urn:uuid:17f0c174-2fa6-4e99-baab-e934055f37e2"
                  },
                  {
                    "reference": "urn:uuid:d41a6d9a-0072-420a-9a04-e9977e66fda4"
                  },
                  {
                    "reference": "urn:uuid:932e75f8-7101-4da4-8191-8e587e31a619"
                  },
                  {
                    "reference": "urn:uuid:4c172b5f-1da0-4f7d-aa6f-ba67c6597d33"
                  }
                ],
                "text": {
                  "status": "generated",
                  "div": "<div xmlns=\"http://www.w3.org/1999/xhtml\"><h3>Chemistry</h3><table class=\"hl7__eu__lab__report\"><thead><tr><th>Test</th><th>07-MAR-2024</th><th>Reference&#xA0;Range</th><th>Unit</th></tr></thead><tbody><tr><td>Hemoglobin A1c/Hemoglobin.total in Blood</td><td><strong>6.2 H</strong></td><td>4 - 6</td><td>%</td></tr><tr><td>Glucose [Mass/volume] in Blood</td><td>92.2</td><td>70 - 140</td><td>mg/dL</td></tr><tr><td>Urea nitrogen [Mass/volume] in Blood</td><td>18.0</td><td>7 - 25</td><td>mg/dL</td></tr><tr><td>Creatinine [Mass/volume] in Blood</td><td>0.7</td><td>0.6 - 1.1</td><td>mg/dL</td></tr><tr><td>Calcium [Mass/volume] in Blood</td><td>9.8</td><td>8.5 - 10.4</td><td>mg/dL</td></tr><tr><td>Sodium [Moles/volume] in Blood</td><td>140.7</td><td>135 - 145</td><td>mmol/L</td></tr><tr><td>Potassium [Moles/volume] in Blood</td><td>4.2</td><td>3.5 - 5.1</td><td>mmol/L</td></tr><tr><td>Chloride [Moles/volume] in Blood</td><td><strong>109.4 H</strong></td><td>98 - 108</td><td>mmol/L</td></tr><tr><td>Carbon dioxide, total [Moles/volume] in Blood</td><td>22.1</td><td>22 - 29</td><td>mmol/L</td></tr></tbody></table></div>"
                },
                "title": "Chemistry"
              }
            ],
            "title": "Laboratory Report"
          },
          {
            "text": {
              "status": "generated",
              "div": "<div xmlns=\"http://www.w3.org/1999/xhtml\"><h3>Annotation</h3><table class=\"hl7__eu__lab__report\"><tr><th>Conclusion and Recommendations based on this report and previous findings known to us</th></tr><tr><td>The results show a mildly elevated HbA1c (6.2%), suggesting impaired glucose metabolism or possible early diabetes, while current glucose is within normal limits. Chloride is slightly elevated, which may reflect mild electrolyte imbalance but is of unclear clinical significance in isolation. Renal function, other electrolytes, and calcium are within normal limits. Recommend clinical correlation and consideration of further evaluation for glycemic control.</td></tr></table></div>"
            },
            "code": {
              "coding": [
                {
                  "system": "http://loinc.org",
                  "code": "48767-8",
                  "display": "Annotation comment"
                }
              ]
            },
            "title": "Annotation comment"
          }
        ],
        "status": "final",
        "subject": {
          "reference": "urn:uuid:c0de6c4f-dd9e-45a7-be69-1cb087a64ee4",
          "display": "Vincenza Porzio"
        },
        "date": "2024-03-07T19:51:27Z",
        "title": "Laboratory Report",
        "confidentiality": "N"
      }
    },
    {
      "fullUrl": "urn:uuid:e5cc7b5e-a4ca-4350-b413-8c6b464da7ac",
      "resource": {
        "resourceType": "DiagnosticReport",
        "id": "e5cc7b5e-a4ca-4350-b413-8c6b464da7ac",
        "meta": {
          "profile": [
            "http://hl7.eu/fhir/laboratory/StructureDefinition/DiagnosticReport-eu-lab"
          ]
        },
        "identifier": [
          {
            "assigner": {
              "display": "HL7 Europe"
            },
            "system": "urn:oid:2.16.840.1.113883.2.51.999",
            "value": "65754812-4a84-49e0-a59a-1be306bb5655"
          }
        ],
        "extension": [
          {
            "url": "http://hl7.org/fhir/5.0/StructureDefinition/extension-DiagnosticReport.composition",
            "valueReference": {
              "reference": "urn:uuid:a3011734-f03c-4111-846a-29048c82b203"
            }
          }
        ],
        "category": [
          {
            "coding": [
              {
                "code": "26436-6",
                "system": "http://loinc.org",
                "display": "Laboratory studies (set)"
              }
            ]
          }
        ],
        "specimen": [
          {
            "reference": "urn:uuid:3e6a38ec-80f8-4598-b60f-d44f0caa2c53"
          }
        ],
        "result": [
          {
            "reference": "urn:uuid:9731bae8-7c0a-4441-a464-8d02c25a0afd"
          },
          {
            "reference": "urn:uuid:73e3cd5d-4b60-4a27-baba-5e2165be024e"
          },
          {
            "reference": "urn:uuid:ba96a16f-4c28-4799-b638-4767d1629edf"
          },
          {
            "reference": "urn:uuid:4818c613-7315-4c0b-8c28-f02b0204778a"
          },
          {
            "reference": "urn:uuid:073cff76-93c8-4370-9eda-2e16cad33795"
          },
          {
            "reference": "urn:uuid:17f0c174-2fa6-4e99-baab-e934055f37e2"
          },
          {
            "reference": "urn:uuid:d41a6d9a-0072-420a-9a04-e9977e66fda4"
          },
          {
            "reference": "urn:uuid:932e75f8-7101-4da4-8191-8e587e31a619"
          },
          {
            "reference": "urn:uuid:4c172b5f-1da0-4f7d-aa6f-ba67c6597d33"
          }
        ],
        "status": "registered",
        "code": {
          "coding": [
            {
              "code": "11502-2",
              "system": "http://loinc.org",
              "display": "Laboratory report"
            }
          ]
        },
        "subject": {
          "reference": "urn:uuid:c0de6c4f-dd9e-45a7-be69-1cb087a64ee4",
          "display": "Vincenza Porzio"
        }
      }
    },
    {
      "fullUrl": "urn:uuid:c0de6c4f-dd9e-45a7-be69-1cb087a64ee4",
      "resource": {
        "resourceType": "Patient",
        "id": "c0de6c4f-dd9e-45a7-be69-1cb087a64ee4",
        "meta": {
          "security": [
            {
              "system": "http://terminology.hl7.org/CodeSystem/v3-ActReason",
              "code": "HTEST"
            },
            {
              "system": "http://terminology.hl7.org/CodeSystem/v3-ActReason",
              "code": "TRAIN"
            }
          ],
          "tag": [
            {
              "system": "https://synderai.net/fhir/CodeSystem/tags",
              "code": "synthetic",
              "display": "SYNDERAI Synthetic data"
            }
          ],
          "profile": [
            "http://hl7.eu/fhir/base/StructureDefinition/patient-eu-core"
          ]
        },
        "identifier": [
          {
            "type": {
              "coding": [
                {
                  "code": "PT",
                  "system": "http://terminology.hl7.org/CodeSystem/v2-0203"
                }
              ]
            },
            "system": "http://ec.europa.eu/identifier/eci",
            "value": "9988-341158-1"
          },
          {
            "type": {
              "coding": [
                {
                  "code": "MR",
                  "system": "http://terminology.hl7.org/CodeSystem/v2-0203"
                }
              ]
            },
            "system": "http://local.setting.eu/identifier",
            "value": "559a1acd-87c3-5b56-0345-4eaff6c5aa0a"
          }
        ],
        "name": [
          {
            "family": "Porzio"
          },
          {
            "given": [
              "Vincenza"
            ]
          },
          {
            "text": "Vincenza Porzio"
          }
        ],
        "address": [
          {
            "line": [
              "Piazza Allegra, 720"
            ],
            "use": "home",
            "type": "physical",
            "postalCode": "36040",
            "city": "Grumolo Pedemonte",
            "country": "Italy"
          }
        ],
        "telecom": [
          {
            "system": "phone",
            "value": "041007473"
          }
        ],
        "extension": [
          {
            "url": "http://hl7.org/fhir/StructureDefinition/patient-nationality",
            "valueCodeableConcept": {
              "coding": [
                {
                  "code": "IT",
                  "system": "http://hl7.org/fhir/ValueSet/country"
                }
              ]
            }
          }
        ],
        "text": {
          "status": "generated",
          "div": "<div xmlns=\"http://www.w3.org/1999/xhtml\"><table class=\"hl7__ips\"><tr><td>Vincenza Porzio</td><td>female</td><td>13-Sep-1965</td></tr></table></div>"
        },
        "gender": "female",
        "birthDate": "1965-09-13"
      }
    },
    {
      "fullUrl": "urn:uuid:4def290e-4738-46d7-9a0a-a400671ee60f",
      "resource": {
        "resourceType": "ServiceRequest",
        "id": "4def290e-4738-46d7-9a0a-a400671ee60f",
        "meta": {
          "profile": [
            "http://hl7.eu/fhir/laboratory/StructureDefinition/ServiceRequest-eu-lab"
          ]
        },
        "identifier": [
          {
            "system": "http://example.org",
            "value": "3a81a250-ef44-43bb-82a5-3d9e34c19781"
          }
        ],
        "specimen": [
          {
            "reference": "urn:uuid:3e6a38ec-80f8-4598-b60f-d44f0caa2c53"
          }
        ],
        "reasonCode": [
          {
            "coding": [
              {
                "code": "40055000",
                "system": "http://snomed.info/sct",
                "display": "Chronic sinusitis"
              }
            ]
          },
          {
            "coding": [
              {
                "code": "15777000",
                "system": "http://snomed.info/sct",
                "display": "Prediabetes"
              }
            ]
          },
          {
            "coding": [
              {
                "code": "239873007",
                "system": "http://snomed.info/sct",
                "display": "Osteoarthritis of knee"
              }
            ]
          },
          {
            "coding": [
              {
                "code": "6525002",
                "system": "http://snomed.info/sct",
                "display": "Dependent drug abuse"
              }
            ]
          },
          {
            "coding": [
              {
                "code": "196416002",
                "system": "http://snomed.info/sct",
                "display": "Impacted molars"
              }
            ]
          },
          {
            "coding": [
              {
                "code": "124171000119105",
                "system": "http://snomed.info/sct",
                "display": "Chronic intractable migraine without aura"
              }
            ]
          }
        ],
        "status": "active",
        "intent": "order",
        "code": {
          "coding": [
            {
              "code": "108252007",
              "system": "http://snomed.info/sct",
              "display": "Laboratory procedure"
            }
          ]
        },
        "subject": {
          "reference": "urn:uuid:c0de6c4f-dd9e-45a7-be69-1cb087a64ee4",
          "display": "Vincenza Porzio"
        },
        "requester": {
          "reference": "urn:uuid:1164559d-e41d-48dd-99cf-f99cbc7f6dba"
        }
      }
    },
    {
      "fullUrl": "urn:uuid:1164559d-e41d-48dd-99cf-f99cbc7f6dba",
      "resource": {
        "resourceType": "PractitionerRole",
        "id": "1164559d-e41d-48dd-99cf-f99cbc7f6dba",
        "meta": {
          "profile": [
            "http://hl7.eu/fhir/base/StructureDefinition/practitionerRole-eu"
          ]
        },
        "text": {
          "status": "generated",
          "div": "<div xmlns=\"http://www.w3.org/1999/xhtml\">Provider Role Id: 1164559d-e41d-48dd-99cf-f99cbc7f6dba</div>"
        },
        "organization": {
          "reference": "urn:uuid:e224fbf5-f848-43b6-b1b3-502b322989d0"
        }
      }
    },
    {
      "fullUrl": "urn:uuid:e224fbf5-f848-43b6-b1b3-502b322989d0",
      "resource": {
        "resourceType": "Organization",
        "id": "e224fbf5-f848-43b6-b1b3-502b322989d0",
        "meta": {
          "profile": [
            "http://hl7.eu/fhir/base/StructureDefinition/organization-eu"
          ]
        },
        "identifier": [
          {
            "assigner": {
              "display": "HL7 Europe"
            },
            "system": "urn:oid:2.16.840.1.113883.2.51.999",
            "value": "183c0db5-a41f-467d-8b49-08de94690f86"
          }
        ],
        "address": [
          {
            "country": "Italy"
          }
        ],
        "text": {
          "status": "generated",
          "div": "<div xmlns=\"http://www.w3.org/1999/xhtml\">Provider Organization: Villa Margherita</div>"
        },
        "name": "Villa Margherita"
      }
    },
    {
      "fullUrl": "urn:uuid:3e6a38ec-80f8-4598-b60f-d44f0caa2c53",
      "resource": {
        "resourceType": "Specimen",
        "id": "3e6a38ec-80f8-4598-b60f-d44f0caa2c53",
        "meta": {
          "profile": [
            "http://hl7.eu/fhir/laboratory/StructureDefinition/Specimen-eu-lab"
          ]
        },
        "collection": {
          "collectedDateTime": "2024-03-07"
        },
        "text": {
          "status": "generated",
          "div": "<div xmlns=\"http://www.w3.org/1999/xhtml\"><table class=\"hl7__eu__lab__report\"><tr><th>Specimen</th><th>Collection Date</th></tr><tr><td>Whole blood specimen (specimen)</td><td><span class=\"nb\">07-Mar-2024</span></td></tr></table></div>"
        },
        "type": {
          "coding": [
            {
              "code": "258580003",
              "system": "http://snomed.info/sct",
              "display": "Whole blood specimen (specimen)"
            }
          ]
        }
      }
    },
    {
      "fullUrl": "urn:uuid:9731bae8-7c0a-4441-a464-8d02c25a0afd",
      "resource": {
        "resourceType": "Observation",
        "id": "9731bae8-7c0a-4441-a464-8d02c25a0afd",
        "meta": {
          "profile": [
            "http://hl7.eu/fhir/laboratory/StructureDefinition/Observation-resultslab-eu-lab"
          ]
        },
        "performer": [
          {
            "display": "The Central European Lab"
          }
        ],
        "category": [
          {
            "coding": [
              {
                "system": "http://terminology.hl7.org/CodeSystem/observation-category",
                "code": "laboratory"
              }
            ]
          }
        ],
        "code": {
          "coding": [
            {
              "code": "4548-4",
              "system": "http://loinc.org",
              "display": "Hemoglobin A1c/Hemoglobin.total in Blood"
            }
          ],
          "text": "Hemoglobin A1c/Hemoglobin.total in Blood"
        },
        "valueQuantity": {
          "system": "http://unitsofmeasure.org",
          "value": 6.2,
          "unit": "%",
          "code": "%"
        },
        "referenceRange": [
          {
            "low": {
              "value": 4,
              "code": "%",
              "system": "http://unitsofmeasure.org"
            }
          },
          {
            "high": {
              "value": 6,
              "code": "%",
              "system": "http://unitsofmeasure.org"
            }
          }
        ],
        "interpretation": [
          {
            "coding": [
              {
                "code": "H",
                "system": "http://terminology.hl7.org/CodeSystem/v3-ObservationInterpretation",
                "display": "High"
              }
            ]
          }
        ],
        "text": {
          "status": "generated",
          "div": "<div xmlns=\"http://www.w3.org/1999/xhtml\"><table class=\"hl7__eu__lab__report\"><tr><th>Test</th><th>07-Mar-2024</th><th>Reference&#xA0;Range</th><th>Unit</th></tr><tr><td>Hemoglobin A1c/Hemoglobin.total in Blood</td><td>6.2</td><td>4 - 6</td><td>H</td><td>%</td></tr></table></div>"
        },
        "status": "final",
        "subject": {
          "reference": "urn:uuid:c0de6c4f-dd9e-45a7-be69-1cb087a64ee4",
          "display": "Vincenza Porzio"
        },
        "effectiveDateTime": "2024-03-07T18:51:27Z",
        "specimen": {
          "reference": "urn:uuid:3e6a38ec-80f8-4598-b60f-d44f0caa2c53"
        }
      }
    },
    {
      "fullUrl": "urn:uuid:73e3cd5d-4b60-4a27-baba-5e2165be024e",
      "resource": {
        "resourceType": "Observation",
        "id": "73e3cd5d-4b60-4a27-baba-5e2165be024e",
        "meta": {
          "profile": [
            "http://hl7.eu/fhir/laboratory/StructureDefinition/Observation-resultslab-eu-lab"
          ]
        },
        "performer": [
          {
            "display": "The Central European Lab"
          }
        ],
        "category": [
          {
            "coding": [
              {
                "system": "http://terminology.hl7.org/CodeSystem/observation-category",
                "code": "laboratory"
              }
            ]
          }
        ],
        "code": {
          "coding": [
            {
              "code": "2339-0",
              "system": "http://loinc.org",
              "display": "Glucose [Mass/volume] in Blood"
            }
          ],
          "text": "Glucose [Mass/volume] in Blood"
        },
        "valueQuantity": {
          "system": "http://unitsofmeasure.org",
          "value": 92.2,
          "unit": "mg/dL",
          "code": "mg/dL"
        },
        "referenceRange": [
          {
            "low": {
              "value": 70,
              "code": "mg/dL",
              "system": "http://unitsofmeasure.org"
            }
          },
          {
            "high": {
              "value": 140,
              "code": "mg/dL",
              "system": "http://unitsofmeasure.org"
            }
          }
        ],
        "text": {
          "status": "generated",
          "div": "<div xmlns=\"http://www.w3.org/1999/xhtml\"><table class=\"hl7__eu__lab__report\"><tr><th>Test</th><th>07-Mar-2024</th><th>Reference&#xA0;Range</th><th>Unit</th></tr><tr><td>Glucose [Mass/volume] in Blood</td><td>92.2</td><td>70 - 140</td><td></td><td>mg/dL</td></tr></table></div>"
        },
        "status": "final",
        "subject": {
          "reference": "urn:uuid:c0de6c4f-dd9e-45a7-be69-1cb087a64ee4",
          "display": "Vincenza Porzio"
        },
        "effectiveDateTime": "2024-03-07T18:51:27Z",
        "specimen": {
          "reference": "urn:uuid:3e6a38ec-80f8-4598-b60f-d44f0caa2c53"
        }
      }
    },
    {
      "fullUrl": "urn:uuid:ba96a16f-4c28-4799-b638-4767d1629edf",
      "resource": {
        "resourceType": "Observation",
        "id": "ba96a16f-4c28-4799-b638-4767d1629edf",
        "meta": {
          "profile": [
            "http://hl7.eu/fhir/laboratory/StructureDefinition/Observation-resultslab-eu-lab"
          ]
        },
        "performer": [
          {
            "display": "The Central European Lab"
          }
        ],
        "category": [
          {
            "coding": [
              {
                "system": "http://terminology.hl7.org/CodeSystem/observation-category",
                "code": "laboratory"
              }
            ]
          }
        ],
        "code": {
          "coding": [
            {
              "code": "6299-2",
              "system": "http://loinc.org",
              "display": "Urea nitrogen [Mass/volume] in Blood"
            }
          ],
          "text": "Urea nitrogen [Mass/volume] in Blood"
        },
        "valueQuantity": {
          "system": "http://unitsofmeasure.org",
          "value": 18,
          "unit": "mg/dL",
          "code": "mg/dL"
        },
        "referenceRange": [
          {
            "low": {
              "value": 7,
              "code": "mg/dL",
              "system": "http://unitsofmeasure.org"
            }
          },
          {
            "high": {
              "value": 25,
              "code": "mg/dL",
              "system": "http://unitsofmeasure.org"
            }
          }
        ],
        "text": {
          "status": "generated",
          "div": "<div xmlns=\"http://www.w3.org/1999/xhtml\"><table class=\"hl7__eu__lab__report\"><tr><th>Test</th><th>07-Mar-2024</th><th>Reference&#xA0;Range</th><th>Unit</th></tr><tr><td>Urea nitrogen [Mass/volume] in Blood</td><td>18.0</td><td>7 - 25</td><td></td><td>mg/dL</td></tr></table></div>"
        },
        "status": "final",
        "subject": {
          "reference": "urn:uuid:c0de6c4f-dd9e-45a7-be69-1cb087a64ee4",
          "display": "Vincenza Porzio"
        },
        "effectiveDateTime": "2024-03-07T18:51:27Z",
        "specimen": {
          "reference": "urn:uuid:3e6a38ec-80f8-4598-b60f-d44f0caa2c53"
        }
      }
    },
    {
      "fullUrl": "urn:uuid:4818c613-7315-4c0b-8c28-f02b0204778a",
      "resource": {
        "resourceType": "Observation",
        "id": "4818c613-7315-4c0b-8c28-f02b0204778a",
        "meta": {
          "profile": [
            "http://hl7.eu/fhir/laboratory/StructureDefinition/Observation-resultslab-eu-lab"
          ]
        },
        "performer": [
          {
            "display": "The Central European Lab"
          }
        ],
        "category": [
          {
            "coding": [
              {
                "system": "http://terminology.hl7.org/CodeSystem/observation-category",
                "code": "laboratory"
              }
            ]
          }
        ],
        "code": {
          "coding": [
            {
              "code": "38483-4",
              "system": "http://loinc.org",
              "display": "Creatinine [Mass/volume] in Blood"
            }
          ],
          "text": "Creatinine [Mass/volume] in Blood"
        },
        "valueQuantity": {
          "system": "http://unitsofmeasure.org",
          "value": 0.7,
          "unit": "mg/dL",
          "code": "mg/dL"
        },
        "referenceRange": [
          {
            "low": {
              "value": 0.6,
              "code": "mg/dL",
              "system": "http://unitsofmeasure.org"
            }
          },
          {
            "high": {
              "value": 1.1,
              "code": "mg/dL",
              "system": "http://unitsofmeasure.org"
            }
          }
        ],
        "text": {
          "status": "generated",
          "div": "<div xmlns=\"http://www.w3.org/1999/xhtml\"><table class=\"hl7__eu__lab__report\"><tr><th>Test</th><th>07-Mar-2024</th><th>Reference&#xA0;Range</th><th>Unit</th></tr><tr><td>Creatinine [Mass/volume] in Blood</td><td>0.7</td><td>0.6 - 1.1</td><td></td><td>mg/dL</td></tr></table></div>"
        },
        "status": "final",
        "subject": {
          "reference": "urn:uuid:c0de6c4f-dd9e-45a7-be69-1cb087a64ee4",
          "display": "Vincenza Porzio"
        },
        "effectiveDateTime": "2024-03-07T18:51:27Z",
        "specimen": {
          "reference": "urn:uuid:3e6a38ec-80f8-4598-b60f-d44f0caa2c53"
        }
      }
    },
    {
      "fullUrl": "urn:uuid:073cff76-93c8-4370-9eda-2e16cad33795",
      "resource": {
        "resourceType": "Observation",
        "id": "073cff76-93c8-4370-9eda-2e16cad33795",
        "meta": {
          "profile": [
            "http://hl7.eu/fhir/laboratory/StructureDefinition/Observation-resultslab-eu-lab"
          ]
        },
        "performer": [
          {
            "display": "The Central European Lab"
          }
        ],
        "category": [
          {
            "coding": [
              {
                "system": "http://terminology.hl7.org/CodeSystem/observation-category",
                "code": "laboratory"
              }
            ]
          }
        ],
        "code": {
          "coding": [
            {
              "code": "49765-1",
              "system": "http://loinc.org",
              "display": "Calcium [Mass/volume] in Blood"
            }
          ],
          "text": "Calcium [Mass/volume] in Blood"
        },
        "valueQuantity": {
          "system": "http://unitsofmeasure.org",
          "value": 9.8,
          "unit": "mg/dL",
          "code": "mg/dL"
        },
        "referenceRange": [
          {
            "low": {
              "value": 8.5,
              "code": "mg/dL",
              "system": "http://unitsofmeasure.org"
            }
          },
          {
            "high": {
              "value": 10.4,
              "code": "mg/dL",
              "system": "http://unitsofmeasure.org"
            }
          }
        ],
        "text": {
          "status": "generated",
          "div": "<div xmlns=\"http://www.w3.org/1999/xhtml\"><table class=\"hl7__eu__lab__report\"><tr><th>Test</th><th>07-Mar-2024</th><th>Reference&#xA0;Range</th><th>Unit</th></tr><tr><td>Calcium [Mass/volume] in Blood</td><td>9.8</td><td>8.5 - 10.4</td><td></td><td>mg/dL</td></tr></table></div>"
        },
        "status": "final",
        "subject": {
          "reference": "urn:uuid:c0de6c4f-dd9e-45a7-be69-1cb087a64ee4",
          "display": "Vincenza Porzio"
        },
        "effectiveDateTime": "2024-03-07T18:51:27Z",
        "specimen": {
          "reference": "urn:uuid:3e6a38ec-80f8-4598-b60f-d44f0caa2c53"
        }
      }
    },
    {
      "fullUrl": "urn:uuid:17f0c174-2fa6-4e99-baab-e934055f37e2",
      "resource": {
        "resourceType": "Observation",
        "id": "17f0c174-2fa6-4e99-baab-e934055f37e2",
        "meta": {
          "profile": [
            "http://hl7.eu/fhir/laboratory/StructureDefinition/Observation-resultslab-eu-lab"
          ]
        },
        "performer": [
          {
            "display": "The Central European Lab"
          }
        ],
        "category": [
          {
            "coding": [
              {
                "system": "http://terminology.hl7.org/CodeSystem/observation-category",
                "code": "laboratory"
              }
            ]
          }
        ],
        "code": {
          "coding": [
            {
              "code": "2947-0",
              "system": "http://loinc.org",
              "display": "Sodium [Moles/volume] in Blood"
            }
          ],
          "text": "Sodium [Moles/volume] in Blood"
        },
        "valueQuantity": {
          "system": "http://unitsofmeasure.org",
          "value": 140.7,
          "unit": "mmol/L",
          "code": "mmol/L"
        },
        "referenceRange": [
          {
            "low": {
              "value": 135,
              "code": "mmol/L",
              "system": "http://unitsofmeasure.org"
            }
          },
          {
            "high": {
              "value": 145,
              "code": "mmol/L",
              "system": "http://unitsofmeasure.org"
            }
          }
        ],
        "text": {
          "status": "generated",
          "div": "<div xmlns=\"http://www.w3.org/1999/xhtml\"><table class=\"hl7__eu__lab__report\"><tr><th>Test</th><th>07-Mar-2024</th><th>Reference&#xA0;Range</th><th>Unit</th></tr><tr><td>Sodium [Moles/volume] in Blood</td><td>140.7</td><td>135 - 145</td><td></td><td>mmol/L</td></tr></table></div>"
        },
        "status": "final",
        "subject": {
          "reference": "urn:uuid:c0de6c4f-dd9e-45a7-be69-1cb087a64ee4",
          "display": "Vincenza Porzio"
        },
        "effectiveDateTime": "2024-03-07T18:51:27Z",
        "specimen": {
          "reference": "urn:uuid:3e6a38ec-80f8-4598-b60f-d44f0caa2c53"
        }
      }
    },
    {
      "fullUrl": "urn:uuid:d41a6d9a-0072-420a-9a04-e9977e66fda4",
      "resource": {
        "resourceType": "Observation",
        "id": "d41a6d9a-0072-420a-9a04-e9977e66fda4",
        "meta": {
          "profile": [
            "http://hl7.eu/fhir/laboratory/StructureDefinition/Observation-resultslab-eu-lab"
          ]
        },
        "performer": [
          {
            "display": "The Central European Lab"
          }
        ],
        "category": [
          {
            "coding": [
              {
                "system": "http://terminology.hl7.org/CodeSystem/observation-category",
                "code": "laboratory"
              }
            ]
          }
        ],
        "code": {
          "coding": [
            {
              "code": "6298-4",
              "system": "http://loinc.org",
              "display": "Potassium [Moles/volume] in Blood"
            }
          ],
          "text": "Potassium [Moles/volume] in Blood"
        },
        "valueQuantity": {
          "system": "http://unitsofmeasure.org",
          "value": 4.2,
          "unit": "mmol/L",
          "code": "mmol/L"
        },
        "referenceRange": [
          {
            "low": {
              "value": 3.5,
              "code": "mmol/L",
              "system": "http://unitsofmeasure.org"
            }
          },
          {
            "high": {
              "value": 5.1,
              "code": "mmol/L",
              "system": "http://unitsofmeasure.org"
            }
          }
        ],
        "text": {
          "status": "generated",
          "div": "<div xmlns=\"http://www.w3.org/1999/xhtml\"><table class=\"hl7__eu__lab__report\"><tr><th>Test</th><th>07-Mar-2024</th><th>Reference&#xA0;Range</th><th>Unit</th></tr><tr><td>Potassium [Moles/volume] in Blood</td><td>4.2</td><td>3.5 - 5.1</td><td></td><td>mmol/L</td></tr></table></div>"
        },
        "status": "final",
        "subject": {
          "reference": "urn:uuid:c0de6c4f-dd9e-45a7-be69-1cb087a64ee4",
          "display": "Vincenza Porzio"
        },
        "effectiveDateTime": "2024-03-07T18:51:27Z",
        "specimen": {
          "reference": "urn:uuid:3e6a38ec-80f8-4598-b60f-d44f0caa2c53"
        }
      }
    },
    {
      "fullUrl": "urn:uuid:932e75f8-7101-4da4-8191-8e587e31a619",
      "resource": {
        "resourceType": "Observation",
        "id": "932e75f8-7101-4da4-8191-8e587e31a619",
        "meta": {
          "profile": [
            "http://hl7.eu/fhir/laboratory/StructureDefinition/Observation-resultslab-eu-lab"
          ]
        },
        "performer": [
          {
            "display": "The Central European Lab"
          }
        ],
        "category": [
          {
            "coding": [
              {
                "system": "http://terminology.hl7.org/CodeSystem/observation-category",
                "code": "laboratory"
              }
            ]
          }
        ],
        "code": {
          "coding": [
            {
              "code": "2069-3",
              "system": "http://loinc.org",
              "display": "Chloride [Moles/volume] in Blood"
            }
          ],
          "text": "Chloride [Moles/volume] in Blood"
        },
        "valueQuantity": {
          "system": "http://unitsofmeasure.org",
          "value": 109.4,
          "unit": "mmol/L",
          "code": "mmol/L"
        },
        "referenceRange": [
          {
            "low": {
              "value": 98,
              "code": "mmol/L",
              "system": "http://unitsofmeasure.org"
            }
          },
          {
            "high": {
              "value": 108,
              "code": "mmol/L",
              "system": "http://unitsofmeasure.org"
            }
          }
        ],
        "interpretation": [
          {
            "coding": [
              {
                "code": "H",
                "system": "http://terminology.hl7.org/CodeSystem/v3-ObservationInterpretation",
                "display": "High"
              }
            ]
          }
        ],
        "text": {
          "status": "generated",
          "div": "<div xmlns=\"http://www.w3.org/1999/xhtml\"><table class=\"hl7__eu__lab__report\"><tr><th>Test</th><th>07-Mar-2024</th><th>Reference&#xA0;Range</th><th>Unit</th></tr><tr><td>Chloride [Moles/volume] in Blood</td><td>109.4</td><td>98 - 108</td><td>H</td><td>mmol/L</td></tr></table></div>"
        },
        "status": "final",
        "subject": {
          "reference": "urn:uuid:c0de6c4f-dd9e-45a7-be69-1cb087a64ee4",
          "display": "Vincenza Porzio"
        },
        "effectiveDateTime": "2024-03-07T18:51:27Z",
        "specimen": {
          "reference": "urn:uuid:3e6a38ec-80f8-4598-b60f-d44f0caa2c53"
        }
      }
    },
    {
      "fullUrl": "urn:uuid:4c172b5f-1da0-4f7d-aa6f-ba67c6597d33",
      "resource": {
        "resourceType": "Observation",
        "id": "4c172b5f-1da0-4f7d-aa6f-ba67c6597d33",
        "meta": {
          "profile": [
            "http://hl7.eu/fhir/laboratory/StructureDefinition/Observation-resultslab-eu-lab"
          ]
        },
        "performer": [
          {
            "display": "The Central European Lab"
          }
        ],
        "category": [
          {
            "coding": [
              {
                "system": "http://terminology.hl7.org/CodeSystem/observation-category",
                "code": "laboratory"
              }
            ]
          }
        ],
        "code": {
          "coding": [
            {
              "code": "20565-8",
              "system": "http://loinc.org",
              "display": "Carbon dioxide, total [Moles/volume] in Blood"
            }
          ],
          "text": "Carbon dioxide, total [Moles/volume] in Blood"
        },
        "valueQuantity": {
          "system": "http://unitsofmeasure.org",
          "value": 22.1,
          "unit": "mmol/L",
          "code": "mmol/L"
        },
        "referenceRange": [
          {
            "low": {
              "value": 22,
              "code": "mmol/L",
              "system": "http://unitsofmeasure.org"
            }
          },
          {
            "high": {
              "value": 29,
              "code": "mmol/L",
              "system": "http://unitsofmeasure.org"
            }
          }
        ],
        "text": {
          "status": "generated",
          "div": "<div xmlns=\"http://www.w3.org/1999/xhtml\"><table class=\"hl7__eu__lab__report\"><tr><th>Test</th><th>07-Mar-2024</th><th>Reference&#xA0;Range</th><th>Unit</th></tr><tr><td>Carbon dioxide, total [Moles/volume] in Blood</td><td>22.1</td><td>22 - 29</td><td></td><td>mmol/L</td></tr></table></div>"
        },
        "status": "final",
        "subject": {
          "reference": "urn:uuid:c0de6c4f-dd9e-45a7-be69-1cb087a64ee4",
          "display": "Vincenza Porzio"
        },
        "effectiveDateTime": "2024-03-07T18:51:27Z",
        "specimen": {
          "reference": "urn:uuid:3e6a38ec-80f8-4598-b60f-d44f0caa2c53"
        }
      }
    },
    {
      "fullUrl": "urn:uuid:9bcff4d5-1ee5-4a41-8d27-5c04e869b885",
      "resource": {
        "resourceType": "Device",
        "id": "9bcff4d5-1ee5-4a41-8d27-5c04e869b885",
        "deviceName": [
          {
            "name": "SYNDERAI Synthetic Generator",
            "type": "manufacturer-name"
          }
        ],
        "version": [
          {
            "value": "5.0"
          }
        ],
        "text": {
          "status": "generated",
          "div": "<div xmlns=\"http://www.w3.org/1999/xhtml\">SYNDERAI Synthetic Generator v5.0</div>"
        },
        "status": "active\"",
        "distinctIdentifier": "synderai-generator-50",
        "manufacturer": "SYNDERAI Project"
      }
    },
    {
      "fullUrl": "urn:uuid:e3d254ab-8f8b-48a4-b013-b7b17035f9be",
      "resource": {
        "resourceType": "Provenance",
        "id": "e3d254ab-8f8b-48a4-b013-b7b17035f9be",
        "target": [
          {
            "reference": "Patient/c0de6c4f-dd9e-45a7-be69-1cb087a64ee4"
          },
          {
            "reference": "Bundle/1862ea26-bb49-4891-9600-291932aa4262"
          },
          {
            "reference": "Composition/053e6d1b-2b13-40bf-9d00-992f4a677ece"
          },
          {
            "reference": "PractitionerRole/1978475b-e666-47d1-8ad1-97f158f9ca83"
          },
          {
            "reference": "Practitioner/0c6c0fb8-aadb-4c64-b60f-37fa3b9c3edf"
          },
          {
            "reference": "PractitionerRole/1164559d-e41d-48dd-99cf-f99cbc7f6dba"
          },
          {
            "reference": "Organization/e224fbf5-f848-43b6-b1b3-502b322989d0"
          }
        ],
        "activity": {
          "text": "Synthetic Example Data Generation"
        },
        "policy": [
          "https://synderai.net/synderai-synthetic-data-policy"
        ],
        "agent": [
          {
            "type": {
              "text": "author"
            },
            "who": {
              "reference": "Device/9bcff4d5-1ee5-4a41-8d27-5c04e869b885"
            }
          }
        ],
        "reason": [
          {
            "text": "Interoperability Testing and Training (non-clinical use)"
          }
        ],
        "text": {
          "status": "generated",
          "div": "<div xmlns=\"http://www.w3.org/1999/xhtml\">Provenance for SYNDERAI Synthetic Example Data Resource</div>"
        },
        "recorded": "2024-03-07T19:51:27Z"
      }
    },
    {
      "fullUrl": "urn:uuid:1978475b-e666-47d1-8ad1-97f158f9ca83",
      "resource": {
        "resourceType": "PractitionerRole",
        "id": "1978475b-e666-47d1-8ad1-97f158f9ca83",
        "meta": {
          "profile": [
            "http://hl7.eu/fhir/base/StructureDefinition/practitionerRole-eu"
          ]
        },
        "text": {
          "status": "generated",
          "div": "<div xmlns=\"http://www.w3.org/1999/xhtml\">Laboratory Role Id: 1978475b-e666-47d1-8ad1-97f158f9ca83</div>"
        },
        "practitioner": {
          "reference": "urn:uuid:0c6c0fb8-aadb-4c64-b60f-37fa3b9c3edf"
        }
      }
    },
    {
      "fullUrl": "urn:uuid:0c6c0fb8-aadb-4c64-b60f-37fa3b9c3edf",
      "resource": {
        "resourceType": "Practitioner",
        "id": "0c6c0fb8-aadb-4c64-b60f-37fa3b9c3edf",
        "meta": {
          "profile": [
            "http://hl7.eu/fhir/base/StructureDefinition/practitioner-eu"
          ]
        },
        "identifier": [
          {
            "assigner": {
              "display": "HL7 Europe"
            },
            "system": "urn:oid:2.16.840.1.113883.2.51.999",
            "value": "be0218df-38fe-496f-848d-27e9a9e95af9"
          }
        ],
        "name": [
          {
            "prefix": [
              "dr"
            ],
            "given": [
              "Ex"
            ],
            "family": "Ample"
          }
        ],
        "address": [
          {
            "line": [
              "Laboratoire Central Européenne",
              "Boulevard du Jardin Botanique 32"
            ],
            "postalCode": "1000",
            "city": "Brussels",
            "country": "Belgium"
          }
        ],
        "text": {
          "status": "generated",
          "div": "<div xmlns=\"http://www.w3.org/1999/xhtml\">Laboratory: Laboratoire Central Européenne, 1000 Brussels, Belgium</div>"
        }
      }
    }
  ],
  "type": "document",
  "timestamp": "2024-03-07T19:51:27Z"
}
