{
  "resourceType": "Bundle",
  "id": "9afa4166-4654-4e5e-9634-03ae297053d3",
  "meta": {
    "profile": [
      "http://hl7.eu/fhir/laboratory/StructureDefinition/Bundle-eu-lab"
    ]
  },
  "identifier": {
    "assigner": {
      "display": "HL7 Europe"
    },
    "system": "urn:oid:2.16.840.1.113883.2.51.999",
    "value": "21265540-c261-47a6-a7d7-4a3c815a682f"
  },
  "entry": [
    {
      "fullUrl": "urn:uuid:83096e7d-32c2-45b2-98ed-9edcf747cdb5",
      "resource": {
        "resourceType": "Composition",
        "id": "83096e7d-32c2-45b2-98ed-9edcf747cdb5",
        "meta": {
          "profile": [
            "http://hl7.eu/fhir/laboratory/StructureDefinition/Composition-eu-lab"
          ]
        },
        "identifier": {
          "assigner": {
            "display": "HL7 Europe"
          },
          "system": "urn:oid:2.16.840.1.113883.2.51.999",
          "value": "3049aa7c-8757-4582-b6bb-fb71b74aa3dc"
        },
        "author": [
          {
            "reference": "urn:uuid:1309417b-8956-4841-8fd3-830bfc83b0bd"
          }
        ],
        "category": [
          {
            "coding": [
              {
                "code": "26436-6",
                "system": "http://loinc.org",
                "display": "Laboratory studies (set)"
              }
            ]
          }
        ],
        "type": {
          "coding": [
            {
              "code": "11502-2",
              "system": "http://loinc.org",
              "display": "Laboratory report"
            }
          ],
          "text": "Laboratory Report"
        },
        "section": [
          {
            "code": {
              "coding": [
                {
                  "code": "26436-6",
                  "system": "http://loinc.org",
                  "display": "Laboratory studies (set)"
                }
              ],
              "text": "Laboratory studies"
            },
            "section": [
              {
                "code": {
                  "coding": [
                    {
                      "code": "$18719-5",
                      "system": "http://loinc.org",
                      "display": "Chemistry studies (set)"
                    }
                  ],
                  "text": "Chemistry"
                },
                "entry": [
                  {
                    "reference": "urn:uuid:c72511ac-a37d-43b1-b6d7-716fe7a731c5"
                  },
                  {
                    "reference": "urn:uuid:1e03b6ec-b898-46d6-9343-1639f79f3b5d"
                  },
                  {
                    "reference": "urn:uuid:47ff9b8f-b2c1-4626-b4cc-7a19d54baf0f"
                  },
                  {
                    "reference": "urn:uuid:b9fd468e-d55b-4aca-9925-b54de856968a"
                  },
                  {
                    "reference": "urn:uuid:7bd52ab9-d6df-4b34-8c3b-a98943c940d8"
                  },
                  {
                    "reference": "urn:uuid:dbe21122-89d8-4f57-aa2c-9e7b22f2e2bb"
                  },
                  {
                    "reference": "urn:uuid:d4e47dc3-8e67-40f7-8ac8-3707c42ef796"
                  },
                  {
                    "reference": "urn:uuid:d62107fb-c5e7-49e2-836f-87795bcd1320"
                  },
                  {
                    "reference": "urn:uuid:15da9cb7-251d-4629-95a3-9fc7128702c3"
                  },
                  {
                    "reference": "urn:uuid:637af14f-9aca-43f2-8e39-3c2ef8db5139"
                  },
                  {
                    "reference": "urn:uuid:b8fa0275-d9ad-4aad-85f1-3d21544ea01e"
                  },
                  {
                    "reference": "urn:uuid:6e51d4c6-879a-4690-8a49-efc37293b7c4"
                  },
                  {
                    "reference": "urn:uuid:67dde368-d743-4cc4-837a-d2d650ed5b8d"
                  },
                  {
                    "reference": "urn:uuid:f35b4db2-7e4e-4737-8106-4111def53c1e"
                  },
                  {
                    "reference": "urn:uuid:56727355-0df8-47a9-af19-aa75122814b4"
                  },
                  {
                    "reference": "urn:uuid:8c64c4e7-a041-4836-ad6f-bb26f6b45854"
                  },
                  {
                    "reference": "urn:uuid:f31de803-59be-4399-b8e5-f235b38a96ac"
                  },
                  {
                    "reference": "urn:uuid:dd14ecc6-20cd-4a69-9355-a558a05c5637"
                  }
                ],
                "text": {
                  "status": "generated",
                  "div": "<div xmlns=\"http://www.w3.org/1999/xhtml\"><h3>Chemistry</h3><table class=\"hl7__eu__lab__report\"><thead><tr><th>Test</th><th>23-JUN-2023</th><th>Reference&#xA0;Range</th><th>Unit</th></tr></thead><tbody><tr><td>Glucose [Mass/volume] in Serum or Plasma</td><td>72.1</td><td>70 - 140</td><td>mg/dL</td></tr><tr><td>Urea nitrogen [Mass/volume] in Serum or Plasma</td><td>19.7</td><td>7 - 20</td><td>mg/dL</td></tr><tr><td>Creatinine [Mass/volume] in Serum or Plasma</td><td><strong>1.9 H</strong></td><td>0.9 - 1.3</td><td>mg/dL</td></tr><tr><td>Calcium [Mass/volume] in Serum or Plasma</td><td>9.2</td><td>8.5 - 10.5</td><td>mg/dL</td></tr><tr><td>Sodium [Moles/volume] in Serum or Plasma</td><td>136.3</td><td>135 - 145</td><td>mmol/L</td></tr><tr><td>Potassium [Moles/volume] in Serum or Plasma</td><td>4.1</td><td>3.5 - 5.3</td><td>mmol/L</td></tr><tr><td>Chloride [Moles/volume] in Serum or Plasma</td><td>105.7</td><td>98 - 107</td><td>mmol/L</td></tr><tr><td>Carbon dioxide, total [Moles/volume] in Serum or Plasma</td><td><strong>21.8 L</strong></td><td>22 - 33</td><td>mmol/L</td></tr><tr><td>Ketones [Presence] in Urine by Test strip</td><td>Urine ketone test = ++</td><td></td><td></td></tr><tr><td>Hemoglobin A1c/Hemoglobin.total in Blood</td><td><strong>3.0 L</strong></td><td>4.3 - 6</td><td>%</td></tr><tr><td>Glucose [Mass/volume] in Blood</td><td>72.1</td><td>70 - 140</td><td>mg/dL</td></tr><tr><td>Urea nitrogen [Mass/volume] in Blood</td><td>19.7</td><td>7 - 20</td><td>mg/dL</td></tr><tr><td>Creatinine [Mass/volume] in Blood</td><td><strong>2.7 H</strong></td><td>0.9 - 1.3</td><td>mg/dL</td></tr><tr><td>Calcium [Mass/volume] in Blood</td><td>9.2</td><td>8.5 - 10.5</td><td>mg/dL</td></tr><tr><td>Sodium [Moles/volume] in Blood</td><td>136.3</td><td>135 - 145</td><td>mmol/L</td></tr><tr><td>Potassium [Moles/volume] in Blood</td><td>4.1</td><td>3.5 - 5.1</td><td>mmol/L</td></tr><tr><td>Chloride [Moles/volume] in Blood</td><td>105.7</td><td>98 - 108</td><td>mmol/L</td></tr><tr><td>Carbon dioxide, total [Moles/volume] in Blood</td><td><strong>21.8 L</strong></td><td>22 - 29</td><td>mmol/L</td></tr></tbody></table></div>"
                },
                "title": "Chemistry"
              },
              {
                "code": {
                  "coding": [
                    {
                      "code": "$18729-4",
                      "system": "http://loinc.org",
                      "display": "Urinalysis studies (set)"
                    }
                  ],
                  "text": "Urinalysis"
                },
                "entry": [
                  {
                    "reference": "urn:uuid:587db927-27e4-4424-8b4a-af6c025178c0"
                  },
                  {
                    "reference": "urn:uuid:aa6b69c0-8279-4f92-8ccf-2977a52d9379"
                  },
                  {
                    "reference": "urn:uuid:60eb41d5-4ecc-4d24-8657-fb72a92d6c1b"
                  },
                  {
                    "reference": "urn:uuid:1d01e7fd-c15d-4ae8-ace5-4e022caa9774"
                  },
                  {
                    "reference": "urn:uuid:15d094ec-58b5-4d29-b580-ae76df92d6ef"
                  },
                  {
                    "reference": "urn:uuid:d2f19315-d23b-4fff-b6dd-198589c078aa"
                  },
                  {
                    "reference": "urn:uuid:da22361a-7b4a-4286-9197-53a723ad1a23"
                  },
                  {
                    "reference": "urn:uuid:ca8cefa1-7a7f-4c05-a722-b07774eac78b"
                  },
                  {
                    "reference": "urn:uuid:ff67e45f-1b29-44d7-980b-d67868523815"
                  },
                  {
                    "reference": "urn:uuid:05e335cf-b8f7-4a2f-877a-5bf2e5deabf3"
                  },
                  {
                    "reference": "urn:uuid:822f94d8-578f-4eb6-b59b-b38930f6a4d3"
                  },
                  {
                    "reference": "urn:uuid:c0aef4c3-fbae-4283-ab63-93d50c3c8605"
                  }
                ],
                "text": {
                  "status": "generated",
                  "div": "<div xmlns=\"http://www.w3.org/1999/xhtml\"><h3>Urinalysis</h3><table class=\"hl7__eu__lab__report\"><thead><tr><th>Test</th><th>23-JUN-2023</th><th>Reference&#xA0;Range</th><th>Unit</th></tr></thead><tbody><tr><td>Glucose [Mass/volume] in Urine by Test strip</td><td>0.6</td><td>0 - 0.8</td><td>mg/dL</td></tr><tr><td>Glucose [Presence] in Urine by Test strip</td><td>++</td><td></td><td></td></tr><tr><td>Bilirubin.total [Mass/volume] in Urine by Test strip</td><td>1.1</td><td>0 - 1.9</td><td>mg/dL</td></tr><tr><td>Bilirubin.total [Presence] in Urine by Test strip</td><td>Finding of bilirubin in urine</td><td></td><td></td></tr><tr><td>Ketones [Mass/volume] in Urine by Test strip</td><td><strong>12.0 H</strong></td><td>0 - 3</td><td>mg/dL</td></tr><tr><td>Specific gravity of Urine by Test strip</td><td><strong>1.0 L</strong></td><td>1.01 - 1.03</td><td>{nominal}</td></tr><tr><td>pH of Urine by Test strip</td><td>6.5</td><td>4.5 - 7.5</td><td>pH</td></tr><tr><td>Protein [Mass/volume] in Urine by Test strip</td><td><strong>261.9 H</strong></td><td>0 - 149</td><td>mg/dL</td></tr><tr><td>Protein [Presence] in Urine by Test strip</td><td>Urine protein test = ++</td><td></td><td></td></tr><tr><td>Nitrite [Presence] in Urine by Test strip</td><td>Urine nitrite negative</td><td></td><td></td></tr><tr><td>Hemoglobin [Presence] in Urine by Test strip</td><td>Urine blood test = negative</td><td></td><td></td></tr><tr><td>Leukocyte esterase [Presence] in Urine by Test strip</td><td>Urine leukocyte test negative</td><td></td><td></td></tr></tbody></table></div>"
                },
                "title": "Urinalysis"
              },
              {
                "code": {
                  "coding": [
                    {
                      "code": "$LP7846-1",
                      "system": "http://loinc.org",
                      "display": "Specimen information"
                    }
                  ],
                  "text": "Specimen information"
                },
                "entry": [
                  {
                    "reference": "urn:uuid:b9c8580d-f414-4384-b272-be1e8fd51137"
                  },
                  {
                    "reference": "urn:uuid:9e964470-1a79-4d88-807a-fd1b13d2c835"
                  },
                  {
                    "reference": "urn:uuid:e4c43fb1-df8d-4a85-848d-d12e34b1ddd6"
                  },
                  {
                    "reference": "urn:uuid:ad134362-9a5a-4eec-8096-98299c5c64d8"
                  }
                ],
                "text": {
                  "status": "generated",
                  "div": "<div xmlns=\"http://www.w3.org/1999/xhtml\"><h3>Specimen information</h3><table class=\"hl7__eu__lab__report\"><thead><tr><th>Test</th><th>23-JUN-2023</th><th>Specimen</th><th></th></tr></thead><tbody><tr><td>Appearance of Urine</td><td>Cloudy urine</td><td>Urine</td><td></td></tr><tr><td>Odor of Urine</td><td>Urine smell ammoniacal</td><td>Urine</td><td></td></tr><tr><td>Clarity of Urine</td><td>Translucent</td><td>Urine</td><td></td></tr><tr><td>Color of Urine</td><td>Brown color</td><td>Urine</td><td></td></tr></tbody></table></div>"
                },
                "title": "Specimen information"
              }
            ],
            "title": "Laboratory Report"
          },
          {
            "text": {
              "status": "generated",
              "div": "<div xmlns=\"http://www.w3.org/1999/xhtml\"><h3>Annotation</h3><table class=\"hl7__eu__lab__report\"><tr><th>Conclusion and Recommendations based on this report and previous findings known to us</th></tr><tr><td>The patient shows elevated creatinine, low total CO₂, and low urine specific gravity, suggesting impaired renal function and possible metabolic acidosis. Urinalysis reveals proteinuria, ketonuria, glucosuria, and abnormal urine appearance, raising concern for nephropathy and possible dehydration or catabolic state. HbA1c is low, indicating no chronic hyperglycemia. Recommend further evaluation of renal function, hydration status, and possible underlying causes (e.g., diabetes, infection, or other renal pathology).</td></tr></table></div>"
            },
            "code": {
              "coding": [
                {
                  "system": "http://loinc.org",
                  "code": "48767-8",
                  "display": "Annotation comment"
                }
              ]
            },
            "title": "Annotation comment"
          }
        ],
        "status": "final",
        "subject": {
          "reference": "urn:uuid:ae1d552d-d8da-4688-afd0-d34699361f97",
          "display": "Victor Lagarde"
        },
        "date": "2023-06-23T06:48:18Z",
        "title": "Laboratory Report",
        "confidentiality": "N"
      }
    },
    {
      "fullUrl": "urn:uuid:c9bcf4ef-d651-4e9d-96a7-35e32b60ca2e",
      "resource": {
        "resourceType": "DiagnosticReport",
        "id": "c9bcf4ef-d651-4e9d-96a7-35e32b60ca2e",
        "meta": {
          "profile": [
            "http://hl7.eu/fhir/laboratory/StructureDefinition/DiagnosticReport-eu-lab"
          ]
        },
        "identifier": [
          {
            "assigner": {
              "display": "HL7 Europe"
            },
            "system": "urn:oid:2.16.840.1.113883.2.51.999",
            "value": "dbe2ceb3-825c-4a0d-be8d-a53948a74bd2"
          }
        ],
        "extension": [
          {
            "url": "http://hl7.org/fhir/5.0/StructureDefinition/extension-DiagnosticReport.composition",
            "valueReference": {
              "reference": "urn:uuid:3049aa7c-8757-4582-b6bb-fb71b74aa3dc"
            }
          }
        ],
        "category": [
          {
            "coding": [
              {
                "code": "26436-6",
                "system": "http://loinc.org",
                "display": "Laboratory studies (set)"
              }
            ]
          }
        ],
        "specimen": [
          {
            "reference": "urn:uuid:7eaa1de3-353c-4168-9a10-03b6da003524"
          },
          {
            "reference": "urn:uuid:9ffeb99d-38d9-49ff-bed5-1ff577e6c514"
          },
          {
            "reference": "urn:uuid:2ddc1c93-46e6-4004-90c9-ef5a0a7a495a"
          }
        ],
        "result": [
          {
            "reference": "urn:uuid:c72511ac-a37d-43b1-b6d7-716fe7a731c5"
          },
          {
            "reference": "urn:uuid:1e03b6ec-b898-46d6-9343-1639f79f3b5d"
          },
          {
            "reference": "urn:uuid:47ff9b8f-b2c1-4626-b4cc-7a19d54baf0f"
          },
          {
            "reference": "urn:uuid:b9fd468e-d55b-4aca-9925-b54de856968a"
          },
          {
            "reference": "urn:uuid:7bd52ab9-d6df-4b34-8c3b-a98943c940d8"
          },
          {
            "reference": "urn:uuid:dbe21122-89d8-4f57-aa2c-9e7b22f2e2bb"
          },
          {
            "reference": "urn:uuid:d4e47dc3-8e67-40f7-8ac8-3707c42ef796"
          },
          {
            "reference": "urn:uuid:d62107fb-c5e7-49e2-836f-87795bcd1320"
          },
          {
            "reference": "urn:uuid:b9c8580d-f414-4384-b272-be1e8fd51137"
          },
          {
            "reference": "urn:uuid:9e964470-1a79-4d88-807a-fd1b13d2c835"
          },
          {
            "reference": "urn:uuid:e4c43fb1-df8d-4a85-848d-d12e34b1ddd6"
          },
          {
            "reference": "urn:uuid:ad134362-9a5a-4eec-8096-98299c5c64d8"
          },
          {
            "reference": "urn:uuid:587db927-27e4-4424-8b4a-af6c025178c0"
          },
          {
            "reference": "urn:uuid:aa6b69c0-8279-4f92-8ccf-2977a52d9379"
          },
          {
            "reference": "urn:uuid:60eb41d5-4ecc-4d24-8657-fb72a92d6c1b"
          },
          {
            "reference": "urn:uuid:1d01e7fd-c15d-4ae8-ace5-4e022caa9774"
          },
          {
            "reference": "urn:uuid:15d094ec-58b5-4d29-b580-ae76df92d6ef"
          },
          {
            "reference": "urn:uuid:15da9cb7-251d-4629-95a3-9fc7128702c3"
          },
          {
            "reference": "urn:uuid:d2f19315-d23b-4fff-b6dd-198589c078aa"
          },
          {
            "reference": "urn:uuid:da22361a-7b4a-4286-9197-53a723ad1a23"
          },
          {
            "reference": "urn:uuid:ca8cefa1-7a7f-4c05-a722-b07774eac78b"
          },
          {
            "reference": "urn:uuid:ff67e45f-1b29-44d7-980b-d67868523815"
          },
          {
            "reference": "urn:uuid:05e335cf-b8f7-4a2f-877a-5bf2e5deabf3"
          },
          {
            "reference": "urn:uuid:822f94d8-578f-4eb6-b59b-b38930f6a4d3"
          },
          {
            "reference": "urn:uuid:c0aef4c3-fbae-4283-ab63-93d50c3c8605"
          },
          {
            "reference": "urn:uuid:637af14f-9aca-43f2-8e39-3c2ef8db5139"
          },
          {
            "reference": "urn:uuid:b8fa0275-d9ad-4aad-85f1-3d21544ea01e"
          },
          {
            "reference": "urn:uuid:6e51d4c6-879a-4690-8a49-efc37293b7c4"
          },
          {
            "reference": "urn:uuid:67dde368-d743-4cc4-837a-d2d650ed5b8d"
          },
          {
            "reference": "urn:uuid:f35b4db2-7e4e-4737-8106-4111def53c1e"
          },
          {
            "reference": "urn:uuid:56727355-0df8-47a9-af19-aa75122814b4"
          },
          {
            "reference": "urn:uuid:8c64c4e7-a041-4836-ad6f-bb26f6b45854"
          },
          {
            "reference": "urn:uuid:f31de803-59be-4399-b8e5-f235b38a96ac"
          },
          {
            "reference": "urn:uuid:dd14ecc6-20cd-4a69-9355-a558a05c5637"
          }
        ],
        "status": "registered",
        "code": {
          "coding": [
            {
              "code": "11502-2",
              "system": "http://loinc.org",
              "display": "Laboratory report"
            }
          ]
        },
        "subject": {
          "reference": "urn:uuid:ae1d552d-d8da-4688-afd0-d34699361f97",
          "display": "Victor Lagarde"
        }
      }
    },
    {
      "fullUrl": "urn:uuid:ae1d552d-d8da-4688-afd0-d34699361f97",
      "resource": {
        "resourceType": "Patient",
        "id": "ae1d552d-d8da-4688-afd0-d34699361f97",
        "meta": {
          "security": [
            {
              "system": "http://terminology.hl7.org/CodeSystem/v3-ActReason",
              "code": "HTEST"
            },
            {
              "system": "http://terminology.hl7.org/CodeSystem/v3-ActReason",
              "code": "TRAIN"
            }
          ],
          "tag": [
            {
              "system": "https://synderai.net/fhir/CodeSystem/tags",
              "code": "synthetic",
              "display": "SYNDERAI Synthetic data"
            }
          ],
          "profile": [
            "http://hl7.eu/fhir/base/StructureDefinition/patient-eu-core"
          ]
        },
        "identifier": [
          {
            "type": {
              "coding": [
                {
                  "code": "PT",
                  "system": "http://terminology.hl7.org/CodeSystem/v2-0203"
                }
              ]
            },
            "system": "http://ec.europa.eu/identifier/eci",
            "value": "9925-001801-9"
          },
          {
            "type": {
              "coding": [
                {
                  "code": "MR",
                  "system": "http://terminology.hl7.org/CodeSystem/v2-0203"
                }
              ]
            },
            "system": "http://local.setting.eu/identifier",
            "value": "22c2dfd0-ac57-8833-2532-848f180896a4"
          }
        ],
        "name": [
          {
            "family": "Lagarde"
          },
          {
            "given": [
              "Victor"
            ]
          },
          {
            "text": "Victor Lagarde"
          }
        ],
        "address": [
          {
            "line": [
              "avenue Robert"
            ],
            "use": "home",
            "type": "physical",
            "postalCode": "80300",
            "city": "Albert",
            "country": "France"
          }
        ],
        "telecom": [
          {
            "system": "phone",
            "value": "0177941801"
          }
        ],
        "extension": [
          {
            "url": "http://hl7.org/fhir/StructureDefinition/patient-nationality",
            "valueCodeableConcept": {
              "coding": [
                {
                  "code": "FR",
                  "system": "http://hl7.org/fhir/ValueSet/country"
                }
              ]
            }
          }
        ],
        "text": {
          "status": "generated",
          "div": "<div xmlns=\"http://www.w3.org/1999/xhtml\"><table class=\"hl7__ips\"><tr><td>Victor Lagarde</td><td>male</td><td>31-Aug-1939</td></tr></table></div>"
        },
        "gender": "male",
        "birthDate": "1939-08-31"
      }
    },
    {
      "fullUrl": "urn:uuid:27f2dea0-cf57-4846-a876-581e13d16db9",
      "resource": {
        "resourceType": "ServiceRequest",
        "id": "27f2dea0-cf57-4846-a876-581e13d16db9",
        "meta": {
          "profile": [
            "http://hl7.eu/fhir/laboratory/StructureDefinition/ServiceRequest-eu-lab"
          ]
        },
        "identifier": [
          {
            "system": "http://example.org",
            "value": "81bc32d7-9686-48b1-8ee1-3d6f1d22b1ce"
          }
        ],
        "specimen": [
          {
            "reference": "urn:uuid:7eaa1de3-353c-4168-9a10-03b6da003524"
          },
          {
            "reference": "urn:uuid:9ffeb99d-38d9-49ff-bed5-1ff577e6c514"
          },
          {
            "reference": "urn:uuid:2ddc1c93-46e6-4004-90c9-ef5a0a7a495a"
          }
        ],
        "reasonCode": [
          {
            "coding": [
              {
                "code": "433144002",
                "system": "http://snomed.info/sct",
                "display": "Chronic kidney disease stage 3"
              }
            ]
          },
          {
            "coding": [
              {
                "code": "157141000119108",
                "system": "http://snomed.info/sct",
                "display": "Proteinuria due to type 2 diabetes mellitus"
              }
            ]
          },
          {
            "coding": [
              {
                "code": "431856006",
                "system": "http://snomed.info/sct",
                "display": "Chronic kidney disease stage 2"
              }
            ]
          },
          {
            "coding": [
              {
                "code": "90781000119102",
                "system": "http://snomed.info/sct",
                "display": "Microalbuminuria due to type 2 diabetes mellitus"
              }
            ]
          },
          {
            "coding": [
              {
                "code": "127013003",
                "system": "http://snomed.info/sct",
                "display": "Disorder of kidney due to diabetes mellitus"
              }
            ]
          },
          {
            "coding": [
              {
                "code": "431855005",
                "system": "http://snomed.info/sct",
                "display": "Chronic kidney disease stage 1"
              }
            ]
          },
          {
            "coding": [
              {
                "code": "55822004",
                "system": "http://snomed.info/sct",
                "display": "Hyperlipidemia"
              }
            ]
          },
          {
            "coding": [
              {
                "code": "59621000",
                "system": "http://snomed.info/sct",
                "display": "Essential hypertension"
              }
            ]
          },
          {
            "coding": [
              {
                "code": "237602007",
                "system": "http://snomed.info/sct",
                "display": "Metabolic syndrome X"
              }
            ]
          },
          {
            "coding": [
              {
                "code": "414545008",
                "system": "http://snomed.info/sct",
                "display": "Ischemic heart disease"
              }
            ]
          },
          {
            "coding": [
              {
                "code": "40055000",
                "system": "http://snomed.info/sct",
                "display": "Chronic sinusitis"
              }
            ]
          },
          {
            "coding": [
              {
                "code": "15777000",
                "system": "http://snomed.info/sct",
                "display": "Prediabetes"
              }
            ]
          },
          {
            "coding": [
              {
                "code": "271737000",
                "system": "http://snomed.info/sct",
                "display": "Anemia"
              }
            ]
          }
        ],
        "status": "active",
        "intent": "order",
        "code": {
          "coding": [
            {
              "code": "108252007",
              "system": "http://snomed.info/sct",
              "display": "Laboratory procedure"
            }
          ]
        },
        "subject": {
          "reference": "urn:uuid:ae1d552d-d8da-4688-afd0-d34699361f97",
          "display": "Victor Lagarde"
        },
        "requester": {
          "reference": "urn:uuid:cffee8f7-a1c2-41fc-82d4-2d63b014dc29"
        }
      }
    },
    {
      "fullUrl": "urn:uuid:cffee8f7-a1c2-41fc-82d4-2d63b014dc29",
      "resource": {
        "resourceType": "PractitionerRole",
        "id": "cffee8f7-a1c2-41fc-82d4-2d63b014dc29",
        "meta": {
          "profile": [
            "http://hl7.eu/fhir/base/StructureDefinition/practitionerRole-eu"
          ]
        },
        "text": {
          "status": "generated",
          "div": "<div xmlns=\"http://www.w3.org/1999/xhtml\">Provider Role Id: cffee8f7-a1c2-41fc-82d4-2d63b014dc29</div>"
        },
        "organization": {
          "reference": "urn:uuid:908c8f29-96b4-4d58-8be7-801c9ee9376c"
        }
      }
    },
    {
      "fullUrl": "urn:uuid:908c8f29-96b4-4d58-8be7-801c9ee9376c",
      "resource": {
        "resourceType": "Organization",
        "id": "908c8f29-96b4-4d58-8be7-801c9ee9376c",
        "meta": {
          "profile": [
            "http://hl7.eu/fhir/base/StructureDefinition/organization-eu"
          ]
        },
        "identifier": [
          {
            "assigner": {
              "display": "HL7 Europe"
            },
            "system": "urn:oid:2.16.840.1.113883.2.51.999",
            "value": "a3de1f71-3931-4d64-94e4-9575a04cc306"
          }
        ],
        "address": [
          {
            "city": "Auxerre",
            "postalCode": "89000",
            "country": "France"
          }
        ],
        "text": {
          "status": "generated",
          "div": "<div xmlns=\"http://www.w3.org/1999/xhtml\">Provider Organization: Thiriot Didier (Cardiologie)</div>"
        },
        "name": "Thiriot Didier (Cardiologie)"
      }
    },
    {
      "fullUrl": "urn:uuid:7eaa1de3-353c-4168-9a10-03b6da003524",
      "resource": {
        "resourceType": "Specimen",
        "id": "7eaa1de3-353c-4168-9a10-03b6da003524",
        "meta": {
          "profile": [
            "http://hl7.eu/fhir/laboratory/StructureDefinition/Specimen-eu-lab"
          ]
        },
        "collection": {
          "collectedDateTime": "2023-06-23"
        },
        "text": {
          "status": "generated",
          "div": "<div xmlns=\"http://www.w3.org/1999/xhtml\"><table class=\"hl7__eu__lab__report\"><tr><th>Specimen</th><th>Collection Date</th></tr><tr><td>Acellular blood (serum or plasma) specimen</td><td><span class=\"nb\">23-Jun-2023</span></td></tr></table></div>"
        },
        "type": {
          "coding": [
            {
              "code": "122592007",
              "system": "http://snomed.info/sct",
              "display": "Acellular blood (serum or plasma) specimen"
            }
          ]
        }
      }
    },
    {
      "fullUrl": "urn:uuid:9ffeb99d-38d9-49ff-bed5-1ff577e6c514",
      "resource": {
        "resourceType": "Specimen",
        "id": "9ffeb99d-38d9-49ff-bed5-1ff577e6c514",
        "meta": {
          "profile": [
            "http://hl7.eu/fhir/laboratory/StructureDefinition/Specimen-eu-lab"
          ]
        },
        "collection": {
          "collectedDateTime": "2023-06-23"
        },
        "text": {
          "status": "generated",
          "div": "<div xmlns=\"http://www.w3.org/1999/xhtml\"><table class=\"hl7__eu__lab__report\"><tr><th>Specimen</th><th>Collection Date</th></tr><tr><td>Urine specimen</td><td><span class=\"nb\">23-Jun-2023</span></td></tr></table></div>"
        },
        "type": {
          "coding": [
            {
              "code": "122575003",
              "system": "http://snomed.info/sct",
              "display": "Urine specimen"
            }
          ]
        }
      }
    },
    {
      "fullUrl": "urn:uuid:2ddc1c93-46e6-4004-90c9-ef5a0a7a495a",
      "resource": {
        "resourceType": "Specimen",
        "id": "2ddc1c93-46e6-4004-90c9-ef5a0a7a495a",
        "meta": {
          "profile": [
            "http://hl7.eu/fhir/laboratory/StructureDefinition/Specimen-eu-lab"
          ]
        },
        "collection": {
          "collectedDateTime": "2023-06-23"
        },
        "text": {
          "status": "generated",
          "div": "<div xmlns=\"http://www.w3.org/1999/xhtml\"><table class=\"hl7__eu__lab__report\"><tr><th>Specimen</th><th>Collection Date</th></tr><tr><td>Whole blood specimen (specimen)</td><td><span class=\"nb\">23-Jun-2023</span></td></tr></table></div>"
        },
        "type": {
          "coding": [
            {
              "code": "258580003",
              "system": "http://snomed.info/sct",
              "display": "Whole blood specimen (specimen)"
            }
          ]
        }
      }
    },
    {
      "fullUrl": "urn:uuid:c72511ac-a37d-43b1-b6d7-716fe7a731c5",
      "resource": {
        "resourceType": "Observation",
        "id": "c72511ac-a37d-43b1-b6d7-716fe7a731c5",
        "meta": {
          "profile": [
            "http://hl7.eu/fhir/laboratory/StructureDefinition/Observation-resultslab-eu-lab"
          ]
        },
        "performer": [
          {
            "display": "The Central European Lab"
          }
        ],
        "category": [
          {
            "coding": [
              {
                "system": "http://terminology.hl7.org/CodeSystem/observation-category",
                "code": "laboratory"
              }
            ]
          }
        ],
        "code": {
          "coding": [
            {
              "code": "2345-7",
              "system": "http://loinc.org",
              "display": "Glucose [Mass/volume] in Serum or Plasma"
            }
          ],
          "text": "Glucose [Mass/volume] in Serum or Plasma"
        },
        "valueQuantity": {
          "system": "http://unitsofmeasure.org",
          "value": 72.1,
          "unit": "mg/dL",
          "code": "mg/dL"
        },
        "referenceRange": [
          {
            "low": {
              "value": 70,
              "code": "mg/dL",
              "system": "http://unitsofmeasure.org"
            }
          },
          {
            "high": {
              "value": 140,
              "code": "mg/dL",
              "system": "http://unitsofmeasure.org"
            }
          }
        ],
        "text": {
          "status": "generated",
          "div": "<div xmlns=\"http://www.w3.org/1999/xhtml\"><table class=\"hl7__eu__lab__report\"><tr><th>Test</th><th>23-Jun-2023</th><th>Reference&#xA0;Range</th><th>Unit</th></tr><tr><td>Glucose [Mass/volume] in Serum or Plasma</td><td>72.1</td><td>70 - 140</td><td></td><td>mg/dL</td></tr></table></div>"
        },
        "status": "final",
        "subject": {
          "reference": "urn:uuid:ae1d552d-d8da-4688-afd0-d34699361f97",
          "display": "Victor Lagarde"
        },
        "effectiveDateTime": "2023-06-23T04:48:18Z",
        "specimen": {
          "reference": "urn:uuid:7eaa1de3-353c-4168-9a10-03b6da003524"
        }
      }
    },
    {
      "fullUrl": "urn:uuid:1e03b6ec-b898-46d6-9343-1639f79f3b5d",
      "resource": {
        "resourceType": "Observation",
        "id": "1e03b6ec-b898-46d6-9343-1639f79f3b5d",
        "meta": {
          "profile": [
            "http://hl7.eu/fhir/laboratory/StructureDefinition/Observation-resultslab-eu-lab"
          ]
        },
        "performer": [
          {
            "display": "The Central European Lab"
          }
        ],
        "category": [
          {
            "coding": [
              {
                "system": "http://terminology.hl7.org/CodeSystem/observation-category",
                "code": "laboratory"
              }
            ]
          }
        ],
        "code": {
          "coding": [
            {
              "code": "3094-0",
              "system": "http://loinc.org",
              "display": "Urea nitrogen [Mass/volume] in Serum or Plasma"
            }
          ],
          "text": "Urea nitrogen [Mass/volume] in Serum or Plasma"
        },
        "valueQuantity": {
          "system": "http://unitsofmeasure.org",
          "value": 19.7,
          "unit": "mg/dL",
          "code": "mg/dL"
        },
        "referenceRange": [
          {
            "low": {
              "value": 7,
              "code": "mg/dL",
              "system": "http://unitsofmeasure.org"
            }
          },
          {
            "high": {
              "value": 20,
              "code": "mg/dL",
              "system": "http://unitsofmeasure.org"
            }
          }
        ],
        "text": {
          "status": "generated",
          "div": "<div xmlns=\"http://www.w3.org/1999/xhtml\"><table class=\"hl7__eu__lab__report\"><tr><th>Test</th><th>23-Jun-2023</th><th>Reference&#xA0;Range</th><th>Unit</th></tr><tr><td>Urea nitrogen [Mass/volume] in Serum or Plasma</td><td>19.7</td><td>7 - 20</td><td></td><td>mg/dL</td></tr></table></div>"
        },
        "status": "final",
        "subject": {
          "reference": "urn:uuid:ae1d552d-d8da-4688-afd0-d34699361f97",
          "display": "Victor Lagarde"
        },
        "effectiveDateTime": "2023-06-23T04:48:18Z",
        "specimen": {
          "reference": "urn:uuid:7eaa1de3-353c-4168-9a10-03b6da003524"
        }
      }
    },
    {
      "fullUrl": "urn:uuid:47ff9b8f-b2c1-4626-b4cc-7a19d54baf0f",
      "resource": {
        "resourceType": "Observation",
        "id": "47ff9b8f-b2c1-4626-b4cc-7a19d54baf0f",
        "meta": {
          "profile": [
            "http://hl7.eu/fhir/laboratory/StructureDefinition/Observation-resultslab-eu-lab"
          ]
        },
        "performer": [
          {
            "display": "The Central European Lab"
          }
        ],
        "category": [
          {
            "coding": [
              {
                "system": "http://terminology.hl7.org/CodeSystem/observation-category",
                "code": "laboratory"
              }
            ]
          }
        ],
        "code": {
          "coding": [
            {
              "code": "2160-0",
              "system": "http://loinc.org",
              "display": "Creatinine [Mass/volume] in Serum or Plasma"
            }
          ],
          "text": "Creatinine [Mass/volume] in Serum or Plasma"
        },
        "valueQuantity": {
          "system": "http://unitsofmeasure.org",
          "value": 1.9,
          "unit": "mg/dL",
          "code": "mg/dL"
        },
        "referenceRange": [
          {
            "low": {
              "value": 0.9,
              "code": "mg/dL",
              "system": "http://unitsofmeasure.org"
            }
          },
          {
            "high": {
              "value": 1.3,
              "code": "mg/dL",
              "system": "http://unitsofmeasure.org"
            }
          }
        ],
        "interpretation": [
          {
            "coding": [
              {
                "code": "H",
                "system": "http://terminology.hl7.org/CodeSystem/v3-ObservationInterpretation",
                "display": "High"
              }
            ]
          }
        ],
        "text": {
          "status": "generated",
          "div": "<div xmlns=\"http://www.w3.org/1999/xhtml\"><table class=\"hl7__eu__lab__report\"><tr><th>Test</th><th>23-Jun-2023</th><th>Reference&#xA0;Range</th><th>Unit</th></tr><tr><td>Creatinine [Mass/volume] in Serum or Plasma</td><td>1.9</td><td>0.9 - 1.3</td><td>H</td><td>mg/dL</td></tr></table></div>"
        },
        "status": "final",
        "subject": {
          "reference": "urn:uuid:ae1d552d-d8da-4688-afd0-d34699361f97",
          "display": "Victor Lagarde"
        },
        "effectiveDateTime": "2023-06-23T04:48:18Z",
        "specimen": {
          "reference": "urn:uuid:7eaa1de3-353c-4168-9a10-03b6da003524"
        }
      }
    },
    {
      "fullUrl": "urn:uuid:b9fd468e-d55b-4aca-9925-b54de856968a",
      "resource": {
        "resourceType": "Observation",
        "id": "b9fd468e-d55b-4aca-9925-b54de856968a",
        "meta": {
          "profile": [
            "http://hl7.eu/fhir/laboratory/StructureDefinition/Observation-resultslab-eu-lab"
          ]
        },
        "performer": [
          {
            "display": "The Central European Lab"
          }
        ],
        "category": [
          {
            "coding": [
              {
                "system": "http://terminology.hl7.org/CodeSystem/observation-category",
                "code": "laboratory"
              }
            ]
          }
        ],
        "code": {
          "coding": [
            {
              "code": "17861-6",
              "system": "http://loinc.org",
              "display": "Calcium [Mass/volume] in Serum or Plasma"
            }
          ],
          "text": "Calcium [Mass/volume] in Serum or Plasma"
        },
        "valueQuantity": {
          "system": "http://unitsofmeasure.org",
          "value": 9.2,
          "unit": "mg/dL",
          "code": "mg/dL"
        },
        "referenceRange": [
          {
            "low": {
              "value": 8.5,
              "code": "mg/dL",
              "system": "http://unitsofmeasure.org"
            }
          },
          {
            "high": {
              "value": 10.5,
              "code": "mg/dL",
              "system": "http://unitsofmeasure.org"
            }
          }
        ],
        "text": {
          "status": "generated",
          "div": "<div xmlns=\"http://www.w3.org/1999/xhtml\"><table class=\"hl7__eu__lab__report\"><tr><th>Test</th><th>23-Jun-2023</th><th>Reference&#xA0;Range</th><th>Unit</th></tr><tr><td>Calcium [Mass/volume] in Serum or Plasma</td><td>9.2</td><td>8.5 - 10.5</td><td></td><td>mg/dL</td></tr></table></div>"
        },
        "status": "final",
        "subject": {
          "reference": "urn:uuid:ae1d552d-d8da-4688-afd0-d34699361f97",
          "display": "Victor Lagarde"
        },
        "effectiveDateTime": "2023-06-23T04:48:18Z",
        "specimen": {
          "reference": "urn:uuid:7eaa1de3-353c-4168-9a10-03b6da003524"
        }
      }
    },
    {
      "fullUrl": "urn:uuid:7bd52ab9-d6df-4b34-8c3b-a98943c940d8",
      "resource": {
        "resourceType": "Observation",
        "id": "7bd52ab9-d6df-4b34-8c3b-a98943c940d8",
        "meta": {
          "profile": [
            "http://hl7.eu/fhir/laboratory/StructureDefinition/Observation-resultslab-eu-lab"
          ]
        },
        "performer": [
          {
            "display": "The Central European Lab"
          }
        ],
        "category": [
          {
            "coding": [
              {
                "system": "http://terminology.hl7.org/CodeSystem/observation-category",
                "code": "laboratory"
              }
            ]
          }
        ],
        "code": {
          "coding": [
            {
              "code": "2951-2",
              "system": "http://loinc.org",
              "display": "Sodium [Moles/volume] in Serum or Plasma"
            }
          ],
          "text": "Sodium [Moles/volume] in Serum or Plasma"
        },
        "valueQuantity": {
          "system": "http://unitsofmeasure.org",
          "value": 136.3,
          "unit": "mmol/L",
          "code": "mmol/L"
        },
        "referenceRange": [
          {
            "low": {
              "value": 135,
              "code": "mmol/L",
              "system": "http://unitsofmeasure.org"
            }
          },
          {
            "high": {
              "value": 145,
              "code": "mmol/L",
              "system": "http://unitsofmeasure.org"
            }
          }
        ],
        "text": {
          "status": "generated",
          "div": "<div xmlns=\"http://www.w3.org/1999/xhtml\"><table class=\"hl7__eu__lab__report\"><tr><th>Test</th><th>23-Jun-2023</th><th>Reference&#xA0;Range</th><th>Unit</th></tr><tr><td>Sodium [Moles/volume] in Serum or Plasma</td><td>136.3</td><td>135 - 145</td><td></td><td>mmol/L</td></tr></table></div>"
        },
        "status": "final",
        "subject": {
          "reference": "urn:uuid:ae1d552d-d8da-4688-afd0-d34699361f97",
          "display": "Victor Lagarde"
        },
        "effectiveDateTime": "2023-06-23T04:48:18Z",
        "specimen": {
          "reference": "urn:uuid:7eaa1de3-353c-4168-9a10-03b6da003524"
        }
      }
    },
    {
      "fullUrl": "urn:uuid:dbe21122-89d8-4f57-aa2c-9e7b22f2e2bb",
      "resource": {
        "resourceType": "Observation",
        "id": "dbe21122-89d8-4f57-aa2c-9e7b22f2e2bb",
        "meta": {
          "profile": [
            "http://hl7.eu/fhir/laboratory/StructureDefinition/Observation-resultslab-eu-lab"
          ]
        },
        "performer": [
          {
            "display": "The Central European Lab"
          }
        ],
        "category": [
          {
            "coding": [
              {
                "system": "http://terminology.hl7.org/CodeSystem/observation-category",
                "code": "laboratory"
              }
            ]
          }
        ],
        "code": {
          "coding": [
            {
              "code": "2823-3",
              "system": "http://loinc.org",
              "display": "Potassium [Moles/volume] in Serum or Plasma"
            }
          ],
          "text": "Potassium [Moles/volume] in Serum or Plasma"
        },
        "valueQuantity": {
          "system": "http://unitsofmeasure.org",
          "value": 4.1,
          "unit": "mmol/L",
          "code": "mmol/L"
        },
        "referenceRange": [
          {
            "low": {
              "value": 3.5,
              "code": "mmol/L",
              "system": "http://unitsofmeasure.org"
            }
          },
          {
            "high": {
              "value": 5.3,
              "code": "mmol/L",
              "system": "http://unitsofmeasure.org"
            }
          }
        ],
        "text": {
          "status": "generated",
          "div": "<div xmlns=\"http://www.w3.org/1999/xhtml\"><table class=\"hl7__eu__lab__report\"><tr><th>Test</th><th>23-Jun-2023</th><th>Reference&#xA0;Range</th><th>Unit</th></tr><tr><td>Potassium [Moles/volume] in Serum or Plasma</td><td>4.1</td><td>3.5 - 5.3</td><td></td><td>mmol/L</td></tr></table></div>"
        },
        "status": "final",
        "subject": {
          "reference": "urn:uuid:ae1d552d-d8da-4688-afd0-d34699361f97",
          "display": "Victor Lagarde"
        },
        "effectiveDateTime": "2023-06-23T04:48:18Z",
        "specimen": {
          "reference": "urn:uuid:7eaa1de3-353c-4168-9a10-03b6da003524"
        }
      }
    },
    {
      "fullUrl": "urn:uuid:d4e47dc3-8e67-40f7-8ac8-3707c42ef796",
      "resource": {
        "resourceType": "Observation",
        "id": "d4e47dc3-8e67-40f7-8ac8-3707c42ef796",
        "meta": {
          "profile": [
            "http://hl7.eu/fhir/laboratory/StructureDefinition/Observation-resultslab-eu-lab"
          ]
        },
        "performer": [
          {
            "display": "The Central European Lab"
          }
        ],
        "category": [
          {
            "coding": [
              {
                "system": "http://terminology.hl7.org/CodeSystem/observation-category",
                "code": "laboratory"
              }
            ]
          }
        ],
        "code": {
          "coding": [
            {
              "code": "2075-0",
              "system": "http://loinc.org",
              "display": "Chloride [Moles/volume] in Serum or Plasma"
            }
          ],
          "text": "Chloride [Moles/volume] in Serum or Plasma"
        },
        "valueQuantity": {
          "system": "http://unitsofmeasure.org",
          "value": 105.7,
          "unit": "mmol/L",
          "code": "mmol/L"
        },
        "referenceRange": [
          {
            "low": {
              "value": 98,
              "code": "mmol/L",
              "system": "http://unitsofmeasure.org"
            }
          },
          {
            "high": {
              "value": 107,
              "code": "mmol/L",
              "system": "http://unitsofmeasure.org"
            }
          }
        ],
        "text": {
          "status": "generated",
          "div": "<div xmlns=\"http://www.w3.org/1999/xhtml\"><table class=\"hl7__eu__lab__report\"><tr><th>Test</th><th>23-Jun-2023</th><th>Reference&#xA0;Range</th><th>Unit</th></tr><tr><td>Chloride [Moles/volume] in Serum or Plasma</td><td>105.7</td><td>98 - 107</td><td></td><td>mmol/L</td></tr></table></div>"
        },
        "status": "final",
        "subject": {
          "reference": "urn:uuid:ae1d552d-d8da-4688-afd0-d34699361f97",
          "display": "Victor Lagarde"
        },
        "effectiveDateTime": "2023-06-23T04:48:18Z",
        "specimen": {
          "reference": "urn:uuid:7eaa1de3-353c-4168-9a10-03b6da003524"
        }
      }
    },
    {
      "fullUrl": "urn:uuid:d62107fb-c5e7-49e2-836f-87795bcd1320",
      "resource": {
        "resourceType": "Observation",
        "id": "d62107fb-c5e7-49e2-836f-87795bcd1320",
        "meta": {
          "profile": [
            "http://hl7.eu/fhir/laboratory/StructureDefinition/Observation-resultslab-eu-lab"
          ]
        },
        "performer": [
          {
            "display": "The Central European Lab"
          }
        ],
        "category": [
          {
            "coding": [
              {
                "system": "http://terminology.hl7.org/CodeSystem/observation-category",
                "code": "laboratory"
              }
            ]
          }
        ],
        "code": {
          "coding": [
            {
              "code": "2028-9",
              "system": "http://loinc.org",
              "display": "Carbon dioxide, total [Moles/volume] in Serum or Plasma"
            }
          ],
          "text": "Carbon dioxide, total [Moles/volume] in Serum or Plasma"
        },
        "valueQuantity": {
          "system": "http://unitsofmeasure.org",
          "value": 21.8,
          "unit": "mmol/L",
          "code": "mmol/L"
        },
        "referenceRange": [
          {
            "low": {
              "value": 22,
              "code": "mmol/L",
              "system": "http://unitsofmeasure.org"
            }
          },
          {
            "high": {
              "value": 33,
              "code": "mmol/L",
              "system": "http://unitsofmeasure.org"
            }
          }
        ],
        "interpretation": [
          {
            "coding": [
              {
                "code": "L",
                "system": "http://terminology.hl7.org/CodeSystem/v3-ObservationInterpretation",
                "display": "Low"
              }
            ]
          }
        ],
        "text": {
          "status": "generated",
          "div": "<div xmlns=\"http://www.w3.org/1999/xhtml\"><table class=\"hl7__eu__lab__report\"><tr><th>Test</th><th>23-Jun-2023</th><th>Reference&#xA0;Range</th><th>Unit</th></tr><tr><td>Carbon dioxide, total [Moles/volume] in Serum or Plasma</td><td>21.8</td><td>22 - 33</td><td>L</td><td>mmol/L</td></tr></table></div>"
        },
        "status": "final",
        "subject": {
          "reference": "urn:uuid:ae1d552d-d8da-4688-afd0-d34699361f97",
          "display": "Victor Lagarde"
        },
        "effectiveDateTime": "2023-06-23T04:48:18Z",
        "specimen": {
          "reference": "urn:uuid:7eaa1de3-353c-4168-9a10-03b6da003524"
        }
      }
    },
    {
      "fullUrl": "urn:uuid:b9c8580d-f414-4384-b272-be1e8fd51137",
      "resource": {
        "resourceType": "Observation",
        "id": "b9c8580d-f414-4384-b272-be1e8fd51137",
        "meta": {
          "profile": [
            "http://hl7.eu/fhir/laboratory/StructureDefinition/Observation-resultslab-eu-lab"
          ]
        },
        "performer": [
          {
            "display": "The Central European Lab"
          }
        ],
        "category": [
          {
            "coding": [
              {
                "system": "http://terminology.hl7.org/CodeSystem/observation-category",
                "code": "laboratory"
              }
            ]
          }
        ],
        "code": {
          "coding": [
            {
              "code": "5767-9",
              "system": "http://loinc.org",
              "display": "Appearance of Urine"
            }
          ],
          "text": "Appearance of Urine"
        },
        "text": {
          "status": "generated",
          "div": "<div xmlns=\"http://www.w3.org/1999/xhtml\"><table class=\"hl7__eu__lab__report\"><tr><th>Test</th><th>23-Jun-2023</th><th>Reference&#xA0;Range</th><th>Unit</th></tr><tr><td>Appearance of Urine</td></tr></table></div>"
        },
        "status": "final",
        "subject": {
          "reference": "urn:uuid:ae1d552d-d8da-4688-afd0-d34699361f97",
          "display": "Victor Lagarde"
        },
        "effectiveDateTime": "2023-06-23T04:48:18Z",
        "specimen": {
          "reference": "urn:uuid:9ffeb99d-38d9-49ff-bed5-1ff577e6c514"
        }
      }
    },
    {
      "fullUrl": "urn:uuid:9e964470-1a79-4d88-807a-fd1b13d2c835",
      "resource": {
        "resourceType": "Observation",
        "id": "9e964470-1a79-4d88-807a-fd1b13d2c835",
        "meta": {
          "profile": [
            "http://hl7.eu/fhir/laboratory/StructureDefinition/Observation-resultslab-eu-lab"
          ]
        },
        "performer": [
          {
            "display": "The Central European Lab"
          }
        ],
        "category": [
          {
            "coding": [
              {
                "system": "http://terminology.hl7.org/CodeSystem/observation-category",
                "code": "laboratory"
              }
            ]
          }
        ],
        "code": {
          "coding": [
            {
              "code": "34533-0",
              "system": "http://loinc.org",
              "display": "Odor of Urine"
            }
          ],
          "text": "Odor of Urine"
        },
        "text": {
          "status": "generated",
          "div": "<div xmlns=\"http://www.w3.org/1999/xhtml\"><table class=\"hl7__eu__lab__report\"><tr><th>Test</th><th>23-Jun-2023</th><th>Reference&#xA0;Range</th><th>Unit</th></tr><tr><td>Odor of Urine</td></tr></table></div>"
        },
        "status": "final",
        "subject": {
          "reference": "urn:uuid:ae1d552d-d8da-4688-afd0-d34699361f97",
          "display": "Victor Lagarde"
        },
        "effectiveDateTime": "2023-06-23T04:48:18Z",
        "specimen": {
          "reference": "urn:uuid:9ffeb99d-38d9-49ff-bed5-1ff577e6c514"
        }
      }
    },
    {
      "fullUrl": "urn:uuid:e4c43fb1-df8d-4a85-848d-d12e34b1ddd6",
      "resource": {
        "resourceType": "Observation",
        "id": "e4c43fb1-df8d-4a85-848d-d12e34b1ddd6",
        "meta": {
          "profile": [
            "http://hl7.eu/fhir/laboratory/StructureDefinition/Observation-resultslab-eu-lab"
          ]
        },
        "performer": [
          {
            "display": "The Central European Lab"
          }
        ],
        "category": [
          {
            "coding": [
              {
                "system": "http://terminology.hl7.org/CodeSystem/observation-category",
                "code": "laboratory"
              }
            ]
          }
        ],
        "code": {
          "coding": [
            {
              "code": "32167-9",
              "system": "http://loinc.org",
              "display": "Clarity of Urine"
            }
          ],
          "text": "Clarity of Urine"
        },
        "text": {
          "status": "generated",
          "div": "<div xmlns=\"http://www.w3.org/1999/xhtml\"><table class=\"hl7__eu__lab__report\"><tr><th>Test</th><th>23-Jun-2023</th><th>Reference&#xA0;Range</th><th>Unit</th></tr><tr><td>Clarity of Urine</td></tr></table></div>"
        },
        "status": "final",
        "subject": {
          "reference": "urn:uuid:ae1d552d-d8da-4688-afd0-d34699361f97",
          "display": "Victor Lagarde"
        },
        "effectiveDateTime": "2023-06-23T04:48:18Z",
        "specimen": {
          "reference": "urn:uuid:9ffeb99d-38d9-49ff-bed5-1ff577e6c514"
        }
      }
    },
    {
      "fullUrl": "urn:uuid:ad134362-9a5a-4eec-8096-98299c5c64d8",
      "resource": {
        "resourceType": "Observation",
        "id": "ad134362-9a5a-4eec-8096-98299c5c64d8",
        "meta": {
          "profile": [
            "http://hl7.eu/fhir/laboratory/StructureDefinition/Observation-resultslab-eu-lab"
          ]
        },
        "performer": [
          {
            "display": "The Central European Lab"
          }
        ],
        "category": [
          {
            "coding": [
              {
                "system": "http://terminology.hl7.org/CodeSystem/observation-category",
                "code": "laboratory"
              }
            ]
          }
        ],
        "code": {
          "coding": [
            {
              "code": "5778-6",
              "system": "http://loinc.org",
              "display": "Color of Urine"
            }
          ],
          "text": "Color of Urine"
        },
        "text": {
          "status": "generated",
          "div": "<div xmlns=\"http://www.w3.org/1999/xhtml\"><table class=\"hl7__eu__lab__report\"><tr><th>Test</th><th>23-Jun-2023</th><th>Reference&#xA0;Range</th><th>Unit</th></tr><tr><td>Color of Urine</td></tr></table></div>"
        },
        "status": "final",
        "subject": {
          "reference": "urn:uuid:ae1d552d-d8da-4688-afd0-d34699361f97",
          "display": "Victor Lagarde"
        },
        "effectiveDateTime": "2023-06-23T04:48:18Z",
        "specimen": {
          "reference": "urn:uuid:9ffeb99d-38d9-49ff-bed5-1ff577e6c514"
        }
      }
    },
    {
      "fullUrl": "urn:uuid:587db927-27e4-4424-8b4a-af6c025178c0",
      "resource": {
        "resourceType": "Observation",
        "id": "587db927-27e4-4424-8b4a-af6c025178c0",
        "meta": {
          "profile": [
            "http://hl7.eu/fhir/laboratory/StructureDefinition/Observation-resultslab-eu-lab"
          ]
        },
        "performer": [
          {
            "display": "The Central European Lab"
          }
        ],
        "category": [
          {
            "coding": [
              {
                "system": "http://terminology.hl7.org/CodeSystem/observation-category",
                "code": "laboratory"
              }
            ]
          }
        ],
        "code": {
          "coding": [
            {
              "code": "5792-7",
              "system": "http://loinc.org",
              "display": "Glucose [Mass/volume] in Urine by Test strip"
            }
          ],
          "text": "Glucose [Mass/volume] in Urine by Test strip"
        },
        "valueQuantity": {
          "system": "http://unitsofmeasure.org",
          "value": 0.6,
          "unit": "mg/dL",
          "code": "mg/dL"
        },
        "referenceRange": [
          {
            "low": {
              "value": 0,
              "code": "mg/dL",
              "system": "http://unitsofmeasure.org"
            }
          },
          {
            "high": {
              "value": 0.8,
              "code": "mg/dL",
              "system": "http://unitsofmeasure.org"
            }
          }
        ],
        "text": {
          "status": "generated",
          "div": "<div xmlns=\"http://www.w3.org/1999/xhtml\"><table class=\"hl7__eu__lab__report\"><tr><th>Test</th><th>23-Jun-2023</th><th>Reference&#xA0;Range</th><th>Unit</th></tr><tr><td>Glucose [Mass/volume] in Urine by Test strip</td><td>0.6</td><td>0 - 0.8</td><td></td><td>mg/dL</td></tr></table></div>"
        },
        "status": "final",
        "subject": {
          "reference": "urn:uuid:ae1d552d-d8da-4688-afd0-d34699361f97",
          "display": "Victor Lagarde"
        },
        "effectiveDateTime": "2023-06-23T04:48:18Z",
        "specimen": {
          "reference": "urn:uuid:9ffeb99d-38d9-49ff-bed5-1ff577e6c514"
        }
      }
    },
    {
      "fullUrl": "urn:uuid:aa6b69c0-8279-4f92-8ccf-2977a52d9379",
      "resource": {
        "resourceType": "Observation",
        "id": "aa6b69c0-8279-4f92-8ccf-2977a52d9379",
        "meta": {
          "profile": [
            "http://hl7.eu/fhir/laboratory/StructureDefinition/Observation-resultslab-eu-lab"
          ]
        },
        "performer": [
          {
            "display": "The Central European Lab"
          }
        ],
        "category": [
          {
            "coding": [
              {
                "system": "http://terminology.hl7.org/CodeSystem/observation-category",
                "code": "laboratory"
              }
            ]
          }
        ],
        "code": {
          "coding": [
            {
              "code": "25428-4",
              "system": "http://loinc.org",
              "display": "Glucose [Presence] in Urine by Test strip"
            }
          ],
          "text": "Glucose [Presence] in Urine by Test strip"
        },
        "text": {
          "status": "generated",
          "div": "<div xmlns=\"http://www.w3.org/1999/xhtml\"><table class=\"hl7__eu__lab__report\"><tr><th>Test</th><th>23-Jun-2023</th><th>Reference&#xA0;Range</th><th>Unit</th></tr><tr><td>Glucose [Presence] in Urine by Test strip</td></tr></table></div>"
        },
        "status": "final",
        "subject": {
          "reference": "urn:uuid:ae1d552d-d8da-4688-afd0-d34699361f97",
          "display": "Victor Lagarde"
        },
        "effectiveDateTime": "2023-06-23T04:48:18Z",
        "specimen": {
          "reference": "urn:uuid:9ffeb99d-38d9-49ff-bed5-1ff577e6c514"
        }
      }
    },
    {
      "fullUrl": "urn:uuid:60eb41d5-4ecc-4d24-8657-fb72a92d6c1b",
      "resource": {
        "resourceType": "Observation",
        "id": "60eb41d5-4ecc-4d24-8657-fb72a92d6c1b",
        "meta": {
          "profile": [
            "http://hl7.eu/fhir/laboratory/StructureDefinition/Observation-resultslab-eu-lab"
          ]
        },
        "performer": [
          {
            "display": "The Central European Lab"
          }
        ],
        "category": [
          {
            "coding": [
              {
                "system": "http://terminology.hl7.org/CodeSystem/observation-category",
                "code": "laboratory"
              }
            ]
          }
        ],
        "code": {
          "coding": [
            {
              "code": "20505-4",
              "system": "http://loinc.org",
              "display": "Bilirubin.total [Mass/volume] in Urine by Test strip"
            }
          ],
          "text": "Bilirubin.total [Mass/volume] in Urine by Test strip"
        },
        "valueQuantity": {
          "system": "http://unitsofmeasure.org",
          "value": 1.1,
          "unit": "mg/dL",
          "code": "mg/dL"
        },
        "referenceRange": [
          {
            "low": {
              "value": 0,
              "code": "mg/dL",
              "system": "http://unitsofmeasure.org"
            }
          },
          {
            "high": {
              "value": 1.9,
              "code": "mg/dL",
              "system": "http://unitsofmeasure.org"
            }
          }
        ],
        "text": {
          "status": "generated",
          "div": "<div xmlns=\"http://www.w3.org/1999/xhtml\"><table class=\"hl7__eu__lab__report\"><tr><th>Test</th><th>23-Jun-2023</th><th>Reference&#xA0;Range</th><th>Unit</th></tr><tr><td>Bilirubin.total [Mass/volume] in Urine by Test strip</td><td>1.1</td><td>0 - 1.9</td><td></td><td>mg/dL</td></tr></table></div>"
        },
        "status": "final",
        "subject": {
          "reference": "urn:uuid:ae1d552d-d8da-4688-afd0-d34699361f97",
          "display": "Victor Lagarde"
        },
        "effectiveDateTime": "2023-06-23T04:48:18Z",
        "specimen": {
          "reference": "urn:uuid:9ffeb99d-38d9-49ff-bed5-1ff577e6c514"
        }
      }
    },
    {
      "fullUrl": "urn:uuid:1d01e7fd-c15d-4ae8-ace5-4e022caa9774",
      "resource": {
        "resourceType": "Observation",
        "id": "1d01e7fd-c15d-4ae8-ace5-4e022caa9774",
        "meta": {
          "profile": [
            "http://hl7.eu/fhir/laboratory/StructureDefinition/Observation-resultslab-eu-lab"
          ]
        },
        "performer": [
          {
            "display": "The Central European Lab"
          }
        ],
        "category": [
          {
            "coding": [
              {
                "system": "http://terminology.hl7.org/CodeSystem/observation-category",
                "code": "laboratory"
              }
            ]
          }
        ],
        "code": {
          "coding": [
            {
              "code": "5770-3",
              "system": "http://loinc.org",
              "display": "Bilirubin.total [Presence] in Urine by Test strip"
            }
          ],
          "text": "Bilirubin.total [Presence] in Urine by Test strip"
        },
        "text": {
          "status": "generated",
          "div": "<div xmlns=\"http://www.w3.org/1999/xhtml\"><table class=\"hl7__eu__lab__report\"><tr><th>Test</th><th>23-Jun-2023</th><th>Reference&#xA0;Range</th><th>Unit</th></tr><tr><td>Bilirubin.total [Presence] in Urine by Test strip</td></tr></table></div>"
        },
        "status": "final",
        "subject": {
          "reference": "urn:uuid:ae1d552d-d8da-4688-afd0-d34699361f97",
          "display": "Victor Lagarde"
        },
        "effectiveDateTime": "2023-06-23T04:48:18Z",
        "specimen": {
          "reference": "urn:uuid:9ffeb99d-38d9-49ff-bed5-1ff577e6c514"
        }
      }
    },
    {
      "fullUrl": "urn:uuid:15d094ec-58b5-4d29-b580-ae76df92d6ef",
      "resource": {
        "resourceType": "Observation",
        "id": "15d094ec-58b5-4d29-b580-ae76df92d6ef",
        "meta": {
          "profile": [
            "http://hl7.eu/fhir/laboratory/StructureDefinition/Observation-resultslab-eu-lab"
          ]
        },
        "performer": [
          {
            "display": "The Central European Lab"
          }
        ],
        "category": [
          {
            "coding": [
              {
                "system": "http://terminology.hl7.org/CodeSystem/observation-category",
                "code": "laboratory"
              }
            ]
          }
        ],
        "code": {
          "coding": [
            {
              "code": "5797-6",
              "system": "http://loinc.org",
              "display": "Ketones [Mass/volume] in Urine by Test strip"
            }
          ],
          "text": "Ketones [Mass/volume] in Urine by Test strip"
        },
        "valueQuantity": {
          "system": "http://unitsofmeasure.org",
          "value": 12,
          "unit": "mg/dL",
          "code": "mg/dL"
        },
        "referenceRange": [
          {
            "low": {
              "value": 0,
              "code": "mg/dL",
              "system": "http://unitsofmeasure.org"
            }
          },
          {
            "high": {
              "value": 3,
              "code": "mg/dL",
              "system": "http://unitsofmeasure.org"
            }
          }
        ],
        "interpretation": [
          {
            "coding": [
              {
                "code": "H",
                "system": "http://terminology.hl7.org/CodeSystem/v3-ObservationInterpretation",
                "display": "High"
              }
            ]
          }
        ],
        "text": {
          "status": "generated",
          "div": "<div xmlns=\"http://www.w3.org/1999/xhtml\"><table class=\"hl7__eu__lab__report\"><tr><th>Test</th><th>23-Jun-2023</th><th>Reference&#xA0;Range</th><th>Unit</th></tr><tr><td>Ketones [Mass/volume] in Urine by Test strip</td><td>12.0</td><td>0 - 3</td><td>H</td><td>mg/dL</td></tr></table></div>"
        },
        "status": "final",
        "subject": {
          "reference": "urn:uuid:ae1d552d-d8da-4688-afd0-d34699361f97",
          "display": "Victor Lagarde"
        },
        "effectiveDateTime": "2023-06-23T04:48:18Z",
        "specimen": {
          "reference": "urn:uuid:9ffeb99d-38d9-49ff-bed5-1ff577e6c514"
        }
      }
    },
    {
      "fullUrl": "urn:uuid:15da9cb7-251d-4629-95a3-9fc7128702c3",
      "resource": {
        "resourceType": "Observation",
        "id": "15da9cb7-251d-4629-95a3-9fc7128702c3",
        "meta": {
          "profile": [
            "http://hl7.eu/fhir/laboratory/StructureDefinition/Observation-resultslab-eu-lab"
          ]
        },
        "performer": [
          {
            "display": "The Central European Lab"
          }
        ],
        "category": [
          {
            "coding": [
              {
                "system": "http://terminology.hl7.org/CodeSystem/observation-category",
                "code": "laboratory"
              }
            ]
          }
        ],
        "code": {
          "coding": [
            {
              "code": "2514-8",
              "system": "http://loinc.org",
              "display": "Ketones [Presence] in Urine by Test strip"
            }
          ],
          "text": "Ketones [Presence] in Urine by Test strip"
        },
        "text": {
          "status": "generated",
          "div": "<div xmlns=\"http://www.w3.org/1999/xhtml\"><table class=\"hl7__eu__lab__report\"><tr><th>Test</th><th>23-Jun-2023</th><th>Reference&#xA0;Range</th><th>Unit</th></tr><tr><td>Ketones [Presence] in Urine by Test strip</td></tr></table></div>"
        },
        "status": "final",
        "subject": {
          "reference": "urn:uuid:ae1d552d-d8da-4688-afd0-d34699361f97",
          "display": "Victor Lagarde"
        },
        "effectiveDateTime": "2023-06-23T04:48:18Z",
        "specimen": {
          "reference": "urn:uuid:9ffeb99d-38d9-49ff-bed5-1ff577e6c514"
        }
      }
    },
    {
      "fullUrl": "urn:uuid:d2f19315-d23b-4fff-b6dd-198589c078aa",
      "resource": {
        "resourceType": "Observation",
        "id": "d2f19315-d23b-4fff-b6dd-198589c078aa",
        "meta": {
          "profile": [
            "http://hl7.eu/fhir/laboratory/StructureDefinition/Observation-resultslab-eu-lab"
          ]
        },
        "performer": [
          {
            "display": "The Central European Lab"
          }
        ],
        "category": [
          {
            "coding": [
              {
                "system": "http://terminology.hl7.org/CodeSystem/observation-category",
                "code": "laboratory"
              }
            ]
          }
        ],
        "code": {
          "coding": [
            {
              "code": "5811-5",
              "system": "http://loinc.org",
              "display": "Specific gravity of Urine by Test strip"
            }
          ],
          "text": "Specific gravity of Urine by Test strip"
        },
        "valueQuantity": {
          "system": "http://unitsofmeasure.org",
          "value": 1,
          "unit": "{nominal}",
          "code": "{nominal}"
        },
        "referenceRange": [
          {
            "low": {
              "value": 1.01,
              "code": "g/mL",
              "system": "http://unitsofmeasure.org"
            }
          },
          {
            "high": {
              "value": 1.03,
              "code": "g/mL",
              "system": "http://unitsofmeasure.org"
            }
          }
        ],
        "interpretation": [
          {
            "coding": [
              {
                "code": "L",
                "system": "http://terminology.hl7.org/CodeSystem/v3-ObservationInterpretation",
                "display": "Low"
              }
            ]
          }
        ],
        "text": {
          "status": "generated",
          "div": "<div xmlns=\"http://www.w3.org/1999/xhtml\"><table class=\"hl7__eu__lab__report\"><tr><th>Test</th><th>23-Jun-2023</th><th>Reference&#xA0;Range</th><th>Unit</th></tr><tr><td>Specific gravity of Urine by Test strip</td><td>1.0</td><td>1.01 - 1.03</td><td>L</td><td>{nominal}</td></tr></table></div>"
        },
        "status": "final",
        "subject": {
          "reference": "urn:uuid:ae1d552d-d8da-4688-afd0-d34699361f97",
          "display": "Victor Lagarde"
        },
        "effectiveDateTime": "2023-06-23T04:48:18Z",
        "specimen": {
          "reference": "urn:uuid:9ffeb99d-38d9-49ff-bed5-1ff577e6c514"
        }
      }
    },
    {
      "fullUrl": "urn:uuid:da22361a-7b4a-4286-9197-53a723ad1a23",
      "resource": {
        "resourceType": "Observation",
        "id": "da22361a-7b4a-4286-9197-53a723ad1a23",
        "meta": {
          "profile": [
            "http://hl7.eu/fhir/laboratory/StructureDefinition/Observation-resultslab-eu-lab"
          ]
        },
        "performer": [
          {
            "display": "The Central European Lab"
          }
        ],
        "category": [
          {
            "coding": [
              {
                "system": "http://terminology.hl7.org/CodeSystem/observation-category",
                "code": "laboratory"
              }
            ]
          }
        ],
        "code": {
          "coding": [
            {
              "code": "5803-2",
              "system": "http://loinc.org",
              "display": "pH of Urine by Test strip"
            }
          ],
          "text": "pH of Urine by Test strip"
        },
        "valueQuantity": {
          "system": "http://unitsofmeasure.org",
          "value": 6.5,
          "unit": "pH",
          "code": "pH"
        },
        "referenceRange": [
          {
            "low": {
              "value": 4.5,
              "code": "pH",
              "system": "http://unitsofmeasure.org"
            }
          },
          {
            "high": {
              "value": 7.5,
              "code": "pH",
              "system": "http://unitsofmeasure.org"
            }
          }
        ],
        "text": {
          "status": "generated",
          "div": "<div xmlns=\"http://www.w3.org/1999/xhtml\"><table class=\"hl7__eu__lab__report\"><tr><th>Test</th><th>23-Jun-2023</th><th>Reference&#xA0;Range</th><th>Unit</th></tr><tr><td>pH of Urine by Test strip</td><td>6.5</td><td>4.5 - 7.5</td><td></td><td>pH</td></tr></table></div>"
        },
        "status": "final",
        "subject": {
          "reference": "urn:uuid:ae1d552d-d8da-4688-afd0-d34699361f97",
          "display": "Victor Lagarde"
        },
        "effectiveDateTime": "2023-06-23T04:48:18Z",
        "specimen": {
          "reference": "urn:uuid:9ffeb99d-38d9-49ff-bed5-1ff577e6c514"
        }
      }
    },
    {
      "fullUrl": "urn:uuid:ca8cefa1-7a7f-4c05-a722-b07774eac78b",
      "resource": {
        "resourceType": "Observation",
        "id": "ca8cefa1-7a7f-4c05-a722-b07774eac78b",
        "meta": {
          "profile": [
            "http://hl7.eu/fhir/laboratory/StructureDefinition/Observation-resultslab-eu-lab"
          ]
        },
        "performer": [
          {
            "display": "The Central European Lab"
          }
        ],
        "category": [
          {
            "coding": [
              {
                "system": "http://terminology.hl7.org/CodeSystem/observation-category",
                "code": "laboratory"
              }
            ]
          }
        ],
        "code": {
          "coding": [
            {
              "code": "5804-0",
              "system": "http://loinc.org",
              "display": "Protein [Mass/volume] in Urine by Test strip"
            }
          ],
          "text": "Protein [Mass/volume] in Urine by Test strip"
        },
        "valueQuantity": {
          "system": "http://unitsofmeasure.org",
          "value": 261.9,
          "unit": "mg/dL",
          "code": "mg/dL"
        },
        "referenceRange": [
          {
            "low": {
              "value": 0,
              "code": "mg/dL",
              "system": "http://unitsofmeasure.org"
            }
          },
          {
            "high": {
              "value": 149,
              "code": "mg/dL",
              "system": "http://unitsofmeasure.org"
            }
          }
        ],
        "interpretation": [
          {
            "coding": [
              {
                "code": "H",
                "system": "http://terminology.hl7.org/CodeSystem/v3-ObservationInterpretation",
                "display": "High"
              }
            ]
          }
        ],
        "text": {
          "status": "generated",
          "div": "<div xmlns=\"http://www.w3.org/1999/xhtml\"><table class=\"hl7__eu__lab__report\"><tr><th>Test</th><th>23-Jun-2023</th><th>Reference&#xA0;Range</th><th>Unit</th></tr><tr><td>Protein [Mass/volume] in Urine by Test strip</td><td>261.9</td><td>0 - 149</td><td>H</td><td>mg/dL</td></tr></table></div>"
        },
        "status": "final",
        "subject": {
          "reference": "urn:uuid:ae1d552d-d8da-4688-afd0-d34699361f97",
          "display": "Victor Lagarde"
        },
        "effectiveDateTime": "2023-06-23T04:48:18Z",
        "specimen": {
          "reference": "urn:uuid:9ffeb99d-38d9-49ff-bed5-1ff577e6c514"
        }
      }
    },
    {
      "fullUrl": "urn:uuid:ff67e45f-1b29-44d7-980b-d67868523815",
      "resource": {
        "resourceType": "Observation",
        "id": "ff67e45f-1b29-44d7-980b-d67868523815",
        "meta": {
          "profile": [
            "http://hl7.eu/fhir/laboratory/StructureDefinition/Observation-resultslab-eu-lab"
          ]
        },
        "performer": [
          {
            "display": "The Central European Lab"
          }
        ],
        "category": [
          {
            "coding": [
              {
                "system": "http://terminology.hl7.org/CodeSystem/observation-category",
                "code": "laboratory"
              }
            ]
          }
        ],
        "code": {
          "coding": [
            {
              "code": "20454-5",
              "system": "http://loinc.org",
              "display": "Protein [Presence] in Urine by Test strip"
            }
          ],
          "text": "Protein [Presence] in Urine by Test strip"
        },
        "text": {
          "status": "generated",
          "div": "<div xmlns=\"http://www.w3.org/1999/xhtml\"><table class=\"hl7__eu__lab__report\"><tr><th>Test</th><th>23-Jun-2023</th><th>Reference&#xA0;Range</th><th>Unit</th></tr><tr><td>Protein [Presence] in Urine by Test strip</td></tr></table></div>"
        },
        "status": "final",
        "subject": {
          "reference": "urn:uuid:ae1d552d-d8da-4688-afd0-d34699361f97",
          "display": "Victor Lagarde"
        },
        "effectiveDateTime": "2023-06-23T04:48:18Z",
        "specimen": {
          "reference": "urn:uuid:9ffeb99d-38d9-49ff-bed5-1ff577e6c514"
        }
      }
    },
    {
      "fullUrl": "urn:uuid:05e335cf-b8f7-4a2f-877a-5bf2e5deabf3",
      "resource": {
        "resourceType": "Observation",
        "id": "05e335cf-b8f7-4a2f-877a-5bf2e5deabf3",
        "meta": {
          "profile": [
            "http://hl7.eu/fhir/laboratory/StructureDefinition/Observation-resultslab-eu-lab"
          ]
        },
        "performer": [
          {
            "display": "The Central European Lab"
          }
        ],
        "category": [
          {
            "coding": [
              {
                "system": "http://terminology.hl7.org/CodeSystem/observation-category",
                "code": "laboratory"
              }
            ]
          }
        ],
        "code": {
          "coding": [
            {
              "code": "5802-4",
              "system": "http://loinc.org",
              "display": "Nitrite [Presence] in Urine by Test strip"
            }
          ],
          "text": "Nitrite [Presence] in Urine by Test strip"
        },
        "text": {
          "status": "generated",
          "div": "<div xmlns=\"http://www.w3.org/1999/xhtml\"><table class=\"hl7__eu__lab__report\"><tr><th>Test</th><th>23-Jun-2023</th><th>Reference&#xA0;Range</th><th>Unit</th></tr><tr><td>Nitrite [Presence] in Urine by Test strip</td></tr></table></div>"
        },
        "status": "final",
        "subject": {
          "reference": "urn:uuid:ae1d552d-d8da-4688-afd0-d34699361f97",
          "display": "Victor Lagarde"
        },
        "effectiveDateTime": "2023-06-23T04:48:18Z",
        "specimen": {
          "reference": "urn:uuid:9ffeb99d-38d9-49ff-bed5-1ff577e6c514"
        }
      }
    },
    {
      "fullUrl": "urn:uuid:822f94d8-578f-4eb6-b59b-b38930f6a4d3",
      "resource": {
        "resourceType": "Observation",
        "id": "822f94d8-578f-4eb6-b59b-b38930f6a4d3",
        "meta": {
          "profile": [
            "http://hl7.eu/fhir/laboratory/StructureDefinition/Observation-resultslab-eu-lab"
          ]
        },
        "performer": [
          {
            "display": "The Central European Lab"
          }
        ],
        "category": [
          {
            "coding": [
              {
                "system": "http://terminology.hl7.org/CodeSystem/observation-category",
                "code": "laboratory"
              }
            ]
          }
        ],
        "code": {
          "coding": [
            {
              "code": "5794-3",
              "system": "http://loinc.org",
              "display": "Hemoglobin [Presence] in Urine by Test strip"
            }
          ],
          "text": "Hemoglobin [Presence] in Urine by Test strip"
        },
        "text": {
          "status": "generated",
          "div": "<div xmlns=\"http://www.w3.org/1999/xhtml\"><table class=\"hl7__eu__lab__report\"><tr><th>Test</th><th>23-Jun-2023</th><th>Reference&#xA0;Range</th><th>Unit</th></tr><tr><td>Hemoglobin [Presence] in Urine by Test strip</td></tr></table></div>"
        },
        "status": "final",
        "subject": {
          "reference": "urn:uuid:ae1d552d-d8da-4688-afd0-d34699361f97",
          "display": "Victor Lagarde"
        },
        "effectiveDateTime": "2023-06-23T04:48:18Z",
        "specimen": {
          "reference": "urn:uuid:9ffeb99d-38d9-49ff-bed5-1ff577e6c514"
        }
      }
    },
    {
      "fullUrl": "urn:uuid:c0aef4c3-fbae-4283-ab63-93d50c3c8605",
      "resource": {
        "resourceType": "Observation",
        "id": "c0aef4c3-fbae-4283-ab63-93d50c3c8605",
        "meta": {
          "profile": [
            "http://hl7.eu/fhir/laboratory/StructureDefinition/Observation-resultslab-eu-lab"
          ]
        },
        "performer": [
          {
            "display": "The Central European Lab"
          }
        ],
        "category": [
          {
            "coding": [
              {
                "system": "http://terminology.hl7.org/CodeSystem/observation-category",
                "code": "laboratory"
              }
            ]
          }
        ],
        "code": {
          "coding": [
            {
              "code": "5799-2",
              "system": "http://loinc.org",
              "display": "Leukocyte esterase [Presence] in Urine by Test strip"
            }
          ],
          "text": "Leukocyte esterase [Presence] in Urine by Test strip"
        },
        "text": {
          "status": "generated",
          "div": "<div xmlns=\"http://www.w3.org/1999/xhtml\"><table class=\"hl7__eu__lab__report\"><tr><th>Test</th><th>23-Jun-2023</th><th>Reference&#xA0;Range</th><th>Unit</th></tr><tr><td>Leukocyte esterase [Presence] in Urine by Test strip</td></tr></table></div>"
        },
        "status": "final",
        "subject": {
          "reference": "urn:uuid:ae1d552d-d8da-4688-afd0-d34699361f97",
          "display": "Victor Lagarde"
        },
        "effectiveDateTime": "2023-06-23T04:48:18Z",
        "specimen": {
          "reference": "urn:uuid:9ffeb99d-38d9-49ff-bed5-1ff577e6c514"
        }
      }
    },
    {
      "fullUrl": "urn:uuid:637af14f-9aca-43f2-8e39-3c2ef8db5139",
      "resource": {
        "resourceType": "Observation",
        "id": "637af14f-9aca-43f2-8e39-3c2ef8db5139",
        "meta": {
          "profile": [
            "http://hl7.eu/fhir/laboratory/StructureDefinition/Observation-resultslab-eu-lab"
          ]
        },
        "performer": [
          {
            "display": "The Central European Lab"
          }
        ],
        "category": [
          {
            "coding": [
              {
                "system": "http://terminology.hl7.org/CodeSystem/observation-category",
                "code": "laboratory"
              }
            ]
          }
        ],
        "code": {
          "coding": [
            {
              "code": "4548-4",
              "system": "http://loinc.org",
              "display": "Hemoglobin A1c/Hemoglobin.total in Blood"
            }
          ],
          "text": "Hemoglobin A1c/Hemoglobin.total in Blood"
        },
        "valueQuantity": {
          "system": "http://unitsofmeasure.org",
          "value": 3,
          "unit": "%",
          "code": "%"
        },
        "referenceRange": [
          {
            "low": {
              "value": 4.3,
              "code": "%",
              "system": "http://unitsofmeasure.org"
            }
          },
          {
            "high": {
              "value": 6,
              "code": "%",
              "system": "http://unitsofmeasure.org"
            }
          }
        ],
        "interpretation": [
          {
            "coding": [
              {
                "code": "L",
                "system": "http://terminology.hl7.org/CodeSystem/v3-ObservationInterpretation",
                "display": "Low"
              }
            ]
          }
        ],
        "text": {
          "status": "generated",
          "div": "<div xmlns=\"http://www.w3.org/1999/xhtml\"><table class=\"hl7__eu__lab__report\"><tr><th>Test</th><th>23-Jun-2023</th><th>Reference&#xA0;Range</th><th>Unit</th></tr><tr><td>Hemoglobin A1c/Hemoglobin.total in Blood</td><td>3.0</td><td>4.3 - 6</td><td>L</td><td>%</td></tr></table></div>"
        },
        "status": "final",
        "subject": {
          "reference": "urn:uuid:ae1d552d-d8da-4688-afd0-d34699361f97",
          "display": "Victor Lagarde"
        },
        "effectiveDateTime": "2023-06-23T04:48:18Z",
        "specimen": {
          "reference": "urn:uuid:2ddc1c93-46e6-4004-90c9-ef5a0a7a495a"
        }
      }
    },
    {
      "fullUrl": "urn:uuid:b8fa0275-d9ad-4aad-85f1-3d21544ea01e",
      "resource": {
        "resourceType": "Observation",
        "id": "b8fa0275-d9ad-4aad-85f1-3d21544ea01e",
        "meta": {
          "profile": [
            "http://hl7.eu/fhir/laboratory/StructureDefinition/Observation-resultslab-eu-lab"
          ]
        },
        "performer": [
          {
            "display": "The Central European Lab"
          }
        ],
        "category": [
          {
            "coding": [
              {
                "system": "http://terminology.hl7.org/CodeSystem/observation-category",
                "code": "laboratory"
              }
            ]
          }
        ],
        "code": {
          "coding": [
            {
              "code": "2339-0",
              "system": "http://loinc.org",
              "display": "Glucose [Mass/volume] in Blood"
            }
          ],
          "text": "Glucose [Mass/volume] in Blood"
        },
        "valueQuantity": {
          "system": "http://unitsofmeasure.org",
          "value": 72.1,
          "unit": "mg/dL",
          "code": "mg/dL"
        },
        "referenceRange": [
          {
            "low": {
              "value": 70,
              "code": "mg/dL",
              "system": "http://unitsofmeasure.org"
            }
          },
          {
            "high": {
              "value": 140,
              "code": "mg/dL",
              "system": "http://unitsofmeasure.org"
            }
          }
        ],
        "text": {
          "status": "generated",
          "div": "<div xmlns=\"http://www.w3.org/1999/xhtml\"><table class=\"hl7__eu__lab__report\"><tr><th>Test</th><th>23-Jun-2023</th><th>Reference&#xA0;Range</th><th>Unit</th></tr><tr><td>Glucose [Mass/volume] in Blood</td><td>72.1</td><td>70 - 140</td><td></td><td>mg/dL</td></tr></table></div>"
        },
        "status": "final",
        "subject": {
          "reference": "urn:uuid:ae1d552d-d8da-4688-afd0-d34699361f97",
          "display": "Victor Lagarde"
        },
        "effectiveDateTime": "2023-06-23T04:48:18Z",
        "specimen": {
          "reference": "urn:uuid:2ddc1c93-46e6-4004-90c9-ef5a0a7a495a"
        }
      }
    },
    {
      "fullUrl": "urn:uuid:6e51d4c6-879a-4690-8a49-efc37293b7c4",
      "resource": {
        "resourceType": "Observation",
        "id": "6e51d4c6-879a-4690-8a49-efc37293b7c4",
        "meta": {
          "profile": [
            "http://hl7.eu/fhir/laboratory/StructureDefinition/Observation-resultslab-eu-lab"
          ]
        },
        "performer": [
          {
            "display": "The Central European Lab"
          }
        ],
        "category": [
          {
            "coding": [
              {
                "system": "http://terminology.hl7.org/CodeSystem/observation-category",
                "code": "laboratory"
              }
            ]
          }
        ],
        "code": {
          "coding": [
            {
              "code": "6299-2",
              "system": "http://loinc.org",
              "display": "Urea nitrogen [Mass/volume] in Blood"
            }
          ],
          "text": "Urea nitrogen [Mass/volume] in Blood"
        },
        "valueQuantity": {
          "system": "http://unitsofmeasure.org",
          "value": 19.7,
          "unit": "mg/dL",
          "code": "mg/dL"
        },
        "referenceRange": [
          {
            "low": {
              "value": 7,
              "code": "mg/dL",
              "system": "http://unitsofmeasure.org"
            }
          },
          {
            "high": {
              "value": 20,
              "code": "mg/dL",
              "system": "http://unitsofmeasure.org"
            }
          }
        ],
        "text": {
          "status": "generated",
          "div": "<div xmlns=\"http://www.w3.org/1999/xhtml\"><table class=\"hl7__eu__lab__report\"><tr><th>Test</th><th>23-Jun-2023</th><th>Reference&#xA0;Range</th><th>Unit</th></tr><tr><td>Urea nitrogen [Mass/volume] in Blood</td><td>19.7</td><td>7 - 20</td><td></td><td>mg/dL</td></tr></table></div>"
        },
        "status": "final",
        "subject": {
          "reference": "urn:uuid:ae1d552d-d8da-4688-afd0-d34699361f97",
          "display": "Victor Lagarde"
        },
        "effectiveDateTime": "2023-06-23T04:48:18Z",
        "specimen": {
          "reference": "urn:uuid:2ddc1c93-46e6-4004-90c9-ef5a0a7a495a"
        }
      }
    },
    {
      "fullUrl": "urn:uuid:67dde368-d743-4cc4-837a-d2d650ed5b8d",
      "resource": {
        "resourceType": "Observation",
        "id": "67dde368-d743-4cc4-837a-d2d650ed5b8d",
        "meta": {
          "profile": [
            "http://hl7.eu/fhir/laboratory/StructureDefinition/Observation-resultslab-eu-lab"
          ]
        },
        "performer": [
          {
            "display": "The Central European Lab"
          }
        ],
        "category": [
          {
            "coding": [
              {
                "system": "http://terminology.hl7.org/CodeSystem/observation-category",
                "code": "laboratory"
              }
            ]
          }
        ],
        "code": {
          "coding": [
            {
              "code": "38483-4",
              "system": "http://loinc.org",
              "display": "Creatinine [Mass/volume] in Blood"
            }
          ],
          "text": "Creatinine [Mass/volume] in Blood"
        },
        "valueQuantity": {
          "system": "http://unitsofmeasure.org",
          "value": 2.7,
          "unit": "mg/dL",
          "code": "mg/dL"
        },
        "referenceRange": [
          {
            "low": {
              "value": 0.9,
              "code": "mg/dL",
              "system": "http://unitsofmeasure.org"
            }
          },
          {
            "high": {
              "value": 1.3,
              "code": "mg/dL",
              "system": "http://unitsofmeasure.org"
            }
          }
        ],
        "interpretation": [
          {
            "coding": [
              {
                "code": "H",
                "system": "http://terminology.hl7.org/CodeSystem/v3-ObservationInterpretation",
                "display": "High"
              }
            ]
          }
        ],
        "text": {
          "status": "generated",
          "div": "<div xmlns=\"http://www.w3.org/1999/xhtml\"><table class=\"hl7__eu__lab__report\"><tr><th>Test</th><th>23-Jun-2023</th><th>Reference&#xA0;Range</th><th>Unit</th></tr><tr><td>Creatinine [Mass/volume] in Blood</td><td>2.7</td><td>0.9 - 1.3</td><td>H</td><td>mg/dL</td></tr></table></div>"
        },
        "status": "final",
        "subject": {
          "reference": "urn:uuid:ae1d552d-d8da-4688-afd0-d34699361f97",
          "display": "Victor Lagarde"
        },
        "effectiveDateTime": "2023-06-23T04:48:18Z",
        "specimen": {
          "reference": "urn:uuid:2ddc1c93-46e6-4004-90c9-ef5a0a7a495a"
        }
      }
    },
    {
      "fullUrl": "urn:uuid:f35b4db2-7e4e-4737-8106-4111def53c1e",
      "resource": {
        "resourceType": "Observation",
        "id": "f35b4db2-7e4e-4737-8106-4111def53c1e",
        "meta": {
          "profile": [
            "http://hl7.eu/fhir/laboratory/StructureDefinition/Observation-resultslab-eu-lab"
          ]
        },
        "performer": [
          {
            "display": "The Central European Lab"
          }
        ],
        "category": [
          {
            "coding": [
              {
                "system": "http://terminology.hl7.org/CodeSystem/observation-category",
                "code": "laboratory"
              }
            ]
          }
        ],
        "code": {
          "coding": [
            {
              "code": "49765-1",
              "system": "http://loinc.org",
              "display": "Calcium [Mass/volume] in Blood"
            }
          ],
          "text": "Calcium [Mass/volume] in Blood"
        },
        "valueQuantity": {
          "system": "http://unitsofmeasure.org",
          "value": 9.2,
          "unit": "mg/dL",
          "code": "mg/dL"
        },
        "referenceRange": [
          {
            "low": {
              "value": 8.5,
              "code": "mg/dL",
              "system": "http://unitsofmeasure.org"
            }
          },
          {
            "high": {
              "value": 10.5,
              "code": "mg/dL",
              "system": "http://unitsofmeasure.org"
            }
          }
        ],
        "text": {
          "status": "generated",
          "div": "<div xmlns=\"http://www.w3.org/1999/xhtml\"><table class=\"hl7__eu__lab__report\"><tr><th>Test</th><th>23-Jun-2023</th><th>Reference&#xA0;Range</th><th>Unit</th></tr><tr><td>Calcium [Mass/volume] in Blood</td><td>9.2</td><td>8.5 - 10.5</td><td></td><td>mg/dL</td></tr></table></div>"
        },
        "status": "final",
        "subject": {
          "reference": "urn:uuid:ae1d552d-d8da-4688-afd0-d34699361f97",
          "display": "Victor Lagarde"
        },
        "effectiveDateTime": "2023-06-23T04:48:18Z",
        "specimen": {
          "reference": "urn:uuid:2ddc1c93-46e6-4004-90c9-ef5a0a7a495a"
        }
      }
    },
    {
      "fullUrl": "urn:uuid:56727355-0df8-47a9-af19-aa75122814b4",
      "resource": {
        "resourceType": "Observation",
        "id": "56727355-0df8-47a9-af19-aa75122814b4",
        "meta": {
          "profile": [
            "http://hl7.eu/fhir/laboratory/StructureDefinition/Observation-resultslab-eu-lab"
          ]
        },
        "performer": [
          {
            "display": "The Central European Lab"
          }
        ],
        "category": [
          {
            "coding": [
              {
                "system": "http://terminology.hl7.org/CodeSystem/observation-category",
                "code": "laboratory"
              }
            ]
          }
        ],
        "code": {
          "coding": [
            {
              "code": "2947-0",
              "system": "http://loinc.org",
              "display": "Sodium [Moles/volume] in Blood"
            }
          ],
          "text": "Sodium [Moles/volume] in Blood"
        },
        "valueQuantity": {
          "system": "http://unitsofmeasure.org",
          "value": 136.3,
          "unit": "mmol/L",
          "code": "mmol/L"
        },
        "referenceRange": [
          {
            "low": {
              "value": 135,
              "code": "mmol/L",
              "system": "http://unitsofmeasure.org"
            }
          },
          {
            "high": {
              "value": 145,
              "code": "mmol/L",
              "system": "http://unitsofmeasure.org"
            }
          }
        ],
        "text": {
          "status": "generated",
          "div": "<div xmlns=\"http://www.w3.org/1999/xhtml\"><table class=\"hl7__eu__lab__report\"><tr><th>Test</th><th>23-Jun-2023</th><th>Reference&#xA0;Range</th><th>Unit</th></tr><tr><td>Sodium [Moles/volume] in Blood</td><td>136.3</td><td>135 - 145</td><td></td><td>mmol/L</td></tr></table></div>"
        },
        "status": "final",
        "subject": {
          "reference": "urn:uuid:ae1d552d-d8da-4688-afd0-d34699361f97",
          "display": "Victor Lagarde"
        },
        "effectiveDateTime": "2023-06-23T04:48:18Z",
        "specimen": {
          "reference": "urn:uuid:2ddc1c93-46e6-4004-90c9-ef5a0a7a495a"
        }
      }
    },
    {
      "fullUrl": "urn:uuid:8c64c4e7-a041-4836-ad6f-bb26f6b45854",
      "resource": {
        "resourceType": "Observation",
        "id": "8c64c4e7-a041-4836-ad6f-bb26f6b45854",
        "meta": {
          "profile": [
            "http://hl7.eu/fhir/laboratory/StructureDefinition/Observation-resultslab-eu-lab"
          ]
        },
        "performer": [
          {
            "display": "The Central European Lab"
          }
        ],
        "category": [
          {
            "coding": [
              {
                "system": "http://terminology.hl7.org/CodeSystem/observation-category",
                "code": "laboratory"
              }
            ]
          }
        ],
        "code": {
          "coding": [
            {
              "code": "6298-4",
              "system": "http://loinc.org",
              "display": "Potassium [Moles/volume] in Blood"
            }
          ],
          "text": "Potassium [Moles/volume] in Blood"
        },
        "valueQuantity": {
          "system": "http://unitsofmeasure.org",
          "value": 4.1,
          "unit": "mmol/L",
          "code": "mmol/L"
        },
        "referenceRange": [
          {
            "low": {
              "value": 3.5,
              "code": "mmol/L",
              "system": "http://unitsofmeasure.org"
            }
          },
          {
            "high": {
              "value": 5.1,
              "code": "mmol/L",
              "system": "http://unitsofmeasure.org"
            }
          }
        ],
        "text": {
          "status": "generated",
          "div": "<div xmlns=\"http://www.w3.org/1999/xhtml\"><table class=\"hl7__eu__lab__report\"><tr><th>Test</th><th>23-Jun-2023</th><th>Reference&#xA0;Range</th><th>Unit</th></tr><tr><td>Potassium [Moles/volume] in Blood</td><td>4.1</td><td>3.5 - 5.1</td><td></td><td>mmol/L</td></tr></table></div>"
        },
        "status": "final",
        "subject": {
          "reference": "urn:uuid:ae1d552d-d8da-4688-afd0-d34699361f97",
          "display": "Victor Lagarde"
        },
        "effectiveDateTime": "2023-06-23T04:48:18Z",
        "specimen": {
          "reference": "urn:uuid:2ddc1c93-46e6-4004-90c9-ef5a0a7a495a"
        }
      }
    },
    {
      "fullUrl": "urn:uuid:f31de803-59be-4399-b8e5-f235b38a96ac",
      "resource": {
        "resourceType": "Observation",
        "id": "f31de803-59be-4399-b8e5-f235b38a96ac",
        "meta": {
          "profile": [
            "http://hl7.eu/fhir/laboratory/StructureDefinition/Observation-resultslab-eu-lab"
          ]
        },
        "performer": [
          {
            "display": "The Central European Lab"
          }
        ],
        "category": [
          {
            "coding": [
              {
                "system": "http://terminology.hl7.org/CodeSystem/observation-category",
                "code": "laboratory"
              }
            ]
          }
        ],
        "code": {
          "coding": [
            {
              "code": "2069-3",
              "system": "http://loinc.org",
              "display": "Chloride [Moles/volume] in Blood"
            }
          ],
          "text": "Chloride [Moles/volume] in Blood"
        },
        "valueQuantity": {
          "system": "http://unitsofmeasure.org",
          "value": 105.7,
          "unit": "mmol/L",
          "code": "mmol/L"
        },
        "referenceRange": [
          {
            "low": {
              "value": 98,
              "code": "mmol/L",
              "system": "http://unitsofmeasure.org"
            }
          },
          {
            "high": {
              "value": 108,
              "code": "mmol/L",
              "system": "http://unitsofmeasure.org"
            }
          }
        ],
        "text": {
          "status": "generated",
          "div": "<div xmlns=\"http://www.w3.org/1999/xhtml\"><table class=\"hl7__eu__lab__report\"><tr><th>Test</th><th>23-Jun-2023</th><th>Reference&#xA0;Range</th><th>Unit</th></tr><tr><td>Chloride [Moles/volume] in Blood</td><td>105.7</td><td>98 - 108</td><td></td><td>mmol/L</td></tr></table></div>"
        },
        "status": "final",
        "subject": {
          "reference": "urn:uuid:ae1d552d-d8da-4688-afd0-d34699361f97",
          "display": "Victor Lagarde"
        },
        "effectiveDateTime": "2023-06-23T04:48:18Z",
        "specimen": {
          "reference": "urn:uuid:2ddc1c93-46e6-4004-90c9-ef5a0a7a495a"
        }
      }
    },
    {
      "fullUrl": "urn:uuid:dd14ecc6-20cd-4a69-9355-a558a05c5637",
      "resource": {
        "resourceType": "Observation",
        "id": "dd14ecc6-20cd-4a69-9355-a558a05c5637",
        "meta": {
          "profile": [
            "http://hl7.eu/fhir/laboratory/StructureDefinition/Observation-resultslab-eu-lab"
          ]
        },
        "performer": [
          {
            "display": "The Central European Lab"
          }
        ],
        "category": [
          {
            "coding": [
              {
                "system": "http://terminology.hl7.org/CodeSystem/observation-category",
                "code": "laboratory"
              }
            ]
          }
        ],
        "code": {
          "coding": [
            {
              "code": "20565-8",
              "system": "http://loinc.org",
              "display": "Carbon dioxide, total [Moles/volume] in Blood"
            }
          ],
          "text": "Carbon dioxide, total [Moles/volume] in Blood"
        },
        "valueQuantity": {
          "system": "http://unitsofmeasure.org",
          "value": 21.8,
          "unit": "mmol/L",
          "code": "mmol/L"
        },
        "referenceRange": [
          {
            "low": {
              "value": 22,
              "code": "mmol/L",
              "system": "http://unitsofmeasure.org"
            }
          },
          {
            "high": {
              "value": 29,
              "code": "mmol/L",
              "system": "http://unitsofmeasure.org"
            }
          }
        ],
        "interpretation": [
          {
            "coding": [
              {
                "code": "L",
                "system": "http://terminology.hl7.org/CodeSystem/v3-ObservationInterpretation",
                "display": "Low"
              }
            ]
          }
        ],
        "text": {
          "status": "generated",
          "div": "<div xmlns=\"http://www.w3.org/1999/xhtml\"><table class=\"hl7__eu__lab__report\"><tr><th>Test</th><th>23-Jun-2023</th><th>Reference&#xA0;Range</th><th>Unit</th></tr><tr><td>Carbon dioxide, total [Moles/volume] in Blood</td><td>21.8</td><td>22 - 29</td><td>L</td><td>mmol/L</td></tr></table></div>"
        },
        "status": "final",
        "subject": {
          "reference": "urn:uuid:ae1d552d-d8da-4688-afd0-d34699361f97",
          "display": "Victor Lagarde"
        },
        "effectiveDateTime": "2023-06-23T04:48:18Z",
        "specimen": {
          "reference": "urn:uuid:2ddc1c93-46e6-4004-90c9-ef5a0a7a495a"
        }
      }
    },
    {
      "fullUrl": "urn:uuid:cb934982-606f-4121-a1f7-7a1ea0219701",
      "resource": {
        "resourceType": "Device",
        "id": "cb934982-606f-4121-a1f7-7a1ea0219701",
        "deviceName": [
          {
            "name": "SYNDERAI Synthetic Generator",
            "type": "manufacturer-name"
          }
        ],
        "version": [
          {
            "value": "5.0"
          }
        ],
        "text": {
          "status": "generated",
          "div": "<div xmlns=\"http://www.w3.org/1999/xhtml\">SYNDERAI Synthetic Generator v5.0</div>"
        },
        "status": "active\"",
        "distinctIdentifier": "synderai-generator-50",
        "manufacturer": "SYNDERAI Project"
      }
    },
    {
      "fullUrl": "urn:uuid:884a4eab-83d2-47ff-8005-4b67ec1da2ab",
      "resource": {
        "resourceType": "Provenance",
        "id": "884a4eab-83d2-47ff-8005-4b67ec1da2ab",
        "target": [
          {
            "reference": "Patient/ae1d552d-d8da-4688-afd0-d34699361f97"
          },
          {
            "reference": "Bundle/9afa4166-4654-4e5e-9634-03ae297053d3"
          },
          {
            "reference": "Composition/83096e7d-32c2-45b2-98ed-9edcf747cdb5"
          },
          {
            "reference": "PractitionerRole/1309417b-8956-4841-8fd3-830bfc83b0bd"
          },
          {
            "reference": "Practitioner/10ff5b9a-39d6-415c-8041-fccc460f3db4"
          },
          {
            "reference": "PractitionerRole/cffee8f7-a1c2-41fc-82d4-2d63b014dc29"
          },
          {
            "reference": "Organization/908c8f29-96b4-4d58-8be7-801c9ee9376c"
          }
        ],
        "activity": {
          "text": "Synthetic Example Data Generation"
        },
        "policy": [
          "https://synderai.net/synderai-synthetic-data-policy"
        ],
        "agent": [
          {
            "type": {
              "text": "author"
            },
            "who": {
              "reference": "Device/cb934982-606f-4121-a1f7-7a1ea0219701"
            }
          }
        ],
        "reason": [
          {
            "text": "Interoperability Testing and Training (non-clinical use)"
          }
        ],
        "text": {
          "status": "generated",
          "div": "<div xmlns=\"http://www.w3.org/1999/xhtml\">Provenance for SYNDERAI Synthetic Example Data Resource</div>"
        },
        "recorded": "2023-06-23T06:48:18Z"
      }
    },
    {
      "fullUrl": "urn:uuid:1309417b-8956-4841-8fd3-830bfc83b0bd",
      "resource": {
        "resourceType": "PractitionerRole",
        "id": "1309417b-8956-4841-8fd3-830bfc83b0bd",
        "meta": {
          "profile": [
            "http://hl7.eu/fhir/base/StructureDefinition/practitionerRole-eu"
          ]
        },
        "text": {
          "status": "generated",
          "div": "<div xmlns=\"http://www.w3.org/1999/xhtml\">Laboratory Role Id: 1309417b-8956-4841-8fd3-830bfc83b0bd</div>"
        },
        "practitioner": {
          "reference": "urn:uuid:10ff5b9a-39d6-415c-8041-fccc460f3db4"
        }
      }
    },
    {
      "fullUrl": "urn:uuid:10ff5b9a-39d6-415c-8041-fccc460f3db4",
      "resource": {
        "resourceType": "Practitioner",
        "id": "10ff5b9a-39d6-415c-8041-fccc460f3db4",
        "meta": {
          "profile": [
            "http://hl7.eu/fhir/base/StructureDefinition/practitioner-eu"
          ]
        },
        "identifier": [
          {
            "assigner": {
              "display": "HL7 Europe"
            },
            "system": "urn:oid:2.16.840.1.113883.2.51.999",
            "value": "d470b960-f1e0-41eb-9580-2d213c1336bd"
          }
        ],
        "name": [
          {
            "prefix": [
              "dr"
            ],
            "given": [
              "Ex"
            ],
            "family": "Ample"
          }
        ],
        "address": [
          {
            "line": [
              "Laboratoire Central Européenne",
              "Boulevard du Jardin Botanique 32"
            ],
            "postalCode": "1000",
            "city": "Brussels",
            "country": "Belgium"
          }
        ],
        "text": {
          "status": "generated",
          "div": "<div xmlns=\"http://www.w3.org/1999/xhtml\">Laboratory: Laboratoire Central Européenne, 1000 Brussels, Belgium</div>"
        }
      }
    }
  ],
  "type": "document",
  "timestamp": "2023-06-23T06:48:18Z"
}
