{
  "resourceType": "Bundle",
  "id": "ddfb3e46-2006-4c62-b7b8-14e9068dc271",
  "meta": {
    "profile": [
      "http://hl7.eu/fhir/laboratory/StructureDefinition/Bundle-eu-lab"
    ]
  },
  "identifier": {
    "assigner": {
      "display": "HL7 Europe"
    },
    "system": "urn:oid:2.16.840.1.113883.2.51.999",
    "value": "bc133273-405d-4a9a-bded-0bab5cea6833"
  },
  "entry": [
    {
      "fullUrl": "urn:uuid:3e3933d3-a8a0-41c7-a20d-5514395a0702",
      "resource": {
        "resourceType": "Composition",
        "id": "3e3933d3-a8a0-41c7-a20d-5514395a0702",
        "meta": {
          "profile": [
            "http://hl7.eu/fhir/laboratory/StructureDefinition/Composition-eu-lab"
          ]
        },
        "identifier": {
          "assigner": {
            "display": "HL7 Europe"
          },
          "system": "urn:oid:2.16.840.1.113883.2.51.999",
          "value": "a4409745-c7c5-471f-85ca-a0315b211025"
        },
        "author": [
          {
            "reference": "urn:uuid:6388bfd1-9ab8-43b8-9de4-120e4d59ac83"
          }
        ],
        "category": [
          {
            "coding": [
              {
                "code": "26436-6",
                "system": "http://loinc.org",
                "display": "Laboratory studies (set)"
              }
            ]
          }
        ],
        "type": {
          "coding": [
            {
              "code": "11502-2",
              "system": "http://loinc.org",
              "display": "Laboratory report"
            }
          ],
          "text": "Laboratory Report"
        },
        "section": [
          {
            "code": {
              "coding": [
                {
                  "code": "26436-6",
                  "system": "http://loinc.org",
                  "display": "Laboratory studies (set)"
                }
              ],
              "text": "Laboratory studies"
            },
            "section": [
              {
                "code": {
                  "coding": [
                    {
                      "code": "$18719-5",
                      "system": "http://loinc.org",
                      "display": "Chemistry studies (set)"
                    }
                  ],
                  "text": "Chemistry"
                },
                "entry": [
                  {
                    "reference": "urn:uuid:a7758860-7b28-4850-a494-b3705d88191e"
                  },
                  {
                    "reference": "urn:uuid:346b268e-612e-41cc-86de-ff55ba07614d"
                  },
                  {
                    "reference": "urn:uuid:1a2b6567-88df-4958-8efb-3049e8a304db"
                  },
                  {
                    "reference": "urn:uuid:9cfd7795-8883-4812-ad05-f0e32d47af15"
                  },
                  {
                    "reference": "urn:uuid:40b59b7a-31c8-48ec-a6f8-ff20ce5be4dd"
                  },
                  {
                    "reference": "urn:uuid:9c735a4e-b79d-41a2-9b6d-ee1dff8cd243"
                  },
                  {
                    "reference": "urn:uuid:6eb8c102-d28d-493c-a969-ed8969634bd9"
                  },
                  {
                    "reference": "urn:uuid:7fb8e9d0-25c4-4518-90b4-a63bf42da1fd"
                  },
                  {
                    "reference": "urn:uuid:5338bb2e-6252-4cef-a37d-ee4b8fb6b66e"
                  }
                ],
                "text": {
                  "status": "generated",
                  "div": "<div xmlns=\"http://www.w3.org/1999/xhtml\"><h3>Chemistry</h3><table class=\"hl7__eu__lab__report\"><thead><tr><th>Test</th><th>04-DEC-2018</th><th>Reference&#xA0;Range</th><th>Unit</th></tr></thead><tbody><tr><td>Hemoglobin A1c/Hemoglobin.total in Blood</td><td><strong>6.4 H</strong></td><td>4.8 - 5.7</td><td>%</td></tr><tr><td>Glucose [Mass/volume] in Blood</td><td>88.5</td><td>70 - 99</td><td>mg/dL</td></tr><tr><td>Urea nitrogen [Mass/volume] in Blood</td><td>17.1</td><td>7 - 20</td><td>mg/dL</td></tr><tr><td>Creatinine [Mass/volume] in Blood</td><td>0.8</td><td>0.6 - 1.1</td><td>mg/dL</td></tr><tr><td>Calcium [Mass/volume] in Blood</td><td>9.1</td><td>8.5 - 10.5</td><td>mg/dL</td></tr><tr><td>Sodium [Moles/volume] in Blood</td><td>143.0</td><td>135 - 145</td><td>mmol/L</td></tr><tr><td>Potassium [Moles/volume] in Blood</td><td>3.9</td><td>3.5 - 5.3</td><td>mmol/L</td></tr><tr><td>Chloride [Moles/volume] in Blood</td><td>110.8</td><td>98 - 114</td><td>mmol/L</td></tr><tr><td>Carbon dioxide, total [Moles/volume] in Blood</td><td>28.7</td><td>22 - 29</td><td>mmol/L</td></tr></tbody></table></div>"
                },
                "title": "Chemistry"
              }
            ],
            "title": "Laboratory Report"
          },
          {
            "text": {
              "status": "generated",
              "div": "<div xmlns=\"http://www.w3.org/1999/xhtml\"><h3>Annotation</h3><table class=\"hl7__eu__lab__report\"><tr><th>Conclusion and Recommendations based on this report and previous findings known to us</th></tr><tr><td>All parameters are within normal limits except for elevated HbA1c (6.4%), indicating impaired glucose metabolism or possible diabetes mellitus. Recommend clinical evaluation for diabetes and consideration of lifestyle or therapeutic interventions. Other renal and electrolyte parameters are unremarkable.</td></tr></table></div>"
            },
            "code": {
              "coding": [
                {
                  "system": "http://loinc.org",
                  "code": "48767-8",
                  "display": "Annotation comment"
                }
              ]
            },
            "title": "Annotation comment"
          }
        ],
        "status": "final",
        "subject": {
          "reference": "urn:uuid:f4c5b868-30f6-4e88-ada3-0c5c70ee8c89",
          "display": "Aniela Sacharczuk"
        },
        "date": "2018-12-04T06:26:59Z",
        "title": "Laboratory Report",
        "confidentiality": "N"
      }
    },
    {
      "fullUrl": "urn:uuid:c90c6527-52a1-43ef-bdbb-9c3497af9adf",
      "resource": {
        "resourceType": "DiagnosticReport",
        "id": "c90c6527-52a1-43ef-bdbb-9c3497af9adf",
        "meta": {
          "profile": [
            "http://hl7.eu/fhir/laboratory/StructureDefinition/DiagnosticReport-eu-lab"
          ]
        },
        "identifier": [
          {
            "assigner": {
              "display": "HL7 Europe"
            },
            "system": "urn:oid:2.16.840.1.113883.2.51.999",
            "value": "91704e5d-b180-4d2d-a0a7-ba20ef455c77"
          }
        ],
        "extension": [
          {
            "url": "http://hl7.org/fhir/5.0/StructureDefinition/extension-DiagnosticReport.composition",
            "valueReference": {
              "reference": "urn:uuid:a4409745-c7c5-471f-85ca-a0315b211025"
            }
          }
        ],
        "category": [
          {
            "coding": [
              {
                "code": "26436-6",
                "system": "http://loinc.org",
                "display": "Laboratory studies (set)"
              }
            ]
          }
        ],
        "specimen": [
          {
            "reference": "urn:uuid:b2e986bd-92bf-4734-bdd2-37e64eb8c435"
          }
        ],
        "result": [
          {
            "reference": "urn:uuid:a7758860-7b28-4850-a494-b3705d88191e"
          },
          {
            "reference": "urn:uuid:346b268e-612e-41cc-86de-ff55ba07614d"
          },
          {
            "reference": "urn:uuid:1a2b6567-88df-4958-8efb-3049e8a304db"
          },
          {
            "reference": "urn:uuid:9cfd7795-8883-4812-ad05-f0e32d47af15"
          },
          {
            "reference": "urn:uuid:40b59b7a-31c8-48ec-a6f8-ff20ce5be4dd"
          },
          {
            "reference": "urn:uuid:9c735a4e-b79d-41a2-9b6d-ee1dff8cd243"
          },
          {
            "reference": "urn:uuid:6eb8c102-d28d-493c-a969-ed8969634bd9"
          },
          {
            "reference": "urn:uuid:7fb8e9d0-25c4-4518-90b4-a63bf42da1fd"
          },
          {
            "reference": "urn:uuid:5338bb2e-6252-4cef-a37d-ee4b8fb6b66e"
          }
        ],
        "status": "registered",
        "code": {
          "coding": [
            {
              "code": "11502-2",
              "system": "http://loinc.org",
              "display": "Laboratory report"
            }
          ]
        },
        "subject": {
          "reference": "urn:uuid:f4c5b868-30f6-4e88-ada3-0c5c70ee8c89",
          "display": "Aniela Sacharczuk"
        }
      }
    },
    {
      "fullUrl": "urn:uuid:f4c5b868-30f6-4e88-ada3-0c5c70ee8c89",
      "resource": {
        "resourceType": "Patient",
        "id": "f4c5b868-30f6-4e88-ada3-0c5c70ee8c89",
        "meta": {
          "security": [
            {
              "system": "http://terminology.hl7.org/CodeSystem/v3-ActReason",
              "code": "HTEST"
            },
            {
              "system": "http://terminology.hl7.org/CodeSystem/v3-ActReason",
              "code": "TRAIN"
            }
          ],
          "tag": [
            {
              "system": "https://synderai.net/fhir/CodeSystem/tags",
              "code": "synthetic",
              "display": "SYNDERAI Synthetic data"
            }
          ],
          "profile": [
            "http://hl7.eu/fhir/base/StructureDefinition/patient-eu-core"
          ]
        },
        "identifier": [
          {
            "type": {
              "coding": [
                {
                  "code": "PT",
                  "system": "http://terminology.hl7.org/CodeSystem/v2-0203"
                }
              ]
            },
            "system": "http://ec.europa.eu/identifier/eci",
            "value": "3843-787162-7"
          },
          {
            "type": {
              "coding": [
                {
                  "code": "MR",
                  "system": "http://terminology.hl7.org/CodeSystem/v2-0203"
                }
              ]
            },
            "system": "http://local.setting.eu/identifier",
            "value": "cd2e7aac-e2c0-8306-b862-9ed4c443c8b5"
          }
        ],
        "name": [
          {
            "family": "Sacharczuk"
          },
          {
            "given": [
              "Aniela"
            ]
          },
          {
            "text": "Aniela Sacharczuk"
          }
        ],
        "address": [
          {
            "line": [
              "plac Szpitalna 13"
            ],
            "use": "home",
            "type": "physical",
            "postalCode": "27-600",
            "city": "Sandomierz",
            "country": "Poland"
          }
        ],
        "telecom": [
          {
            "system": "phone",
            "value": "+48 536 227 035"
          }
        ],
        "extension": [
          {
            "url": "http://hl7.org/fhir/StructureDefinition/patient-nationality",
            "valueCodeableConcept": {
              "coding": [
                {
                  "code": "PL",
                  "system": "http://hl7.org/fhir/ValueSet/country"
                }
              ]
            }
          }
        ],
        "text": {
          "status": "generated",
          "div": "<div xmlns=\"http://www.w3.org/1999/xhtml\"><table class=\"hl7__ips\"><tr><td>Aniela Sacharczuk</td><td>female</td><td>02-Nov-1970</td></tr></table></div>"
        },
        "gender": "female",
        "birthDate": "1970-11-02"
      }
    },
    {
      "fullUrl": "urn:uuid:ff0ca6c7-c112-4a08-ab9a-d98e918a3564",
      "resource": {
        "resourceType": "ServiceRequest",
        "id": "ff0ca6c7-c112-4a08-ab9a-d98e918a3564",
        "meta": {
          "profile": [
            "http://hl7.eu/fhir/laboratory/StructureDefinition/ServiceRequest-eu-lab"
          ]
        },
        "identifier": [
          {
            "system": "http://example.org",
            "value": "68436c33-21a4-4ca9-bb92-819a18e7df60"
          }
        ],
        "specimen": [
          {
            "reference": "urn:uuid:b2e986bd-92bf-4734-bdd2-37e64eb8c435"
          }
        ],
        "reasonCode": [
          {
            "coding": [
              {
                "code": "237602007",
                "system": "http://snomed.info/sct",
                "display": "Metabolic syndrome X"
              }
            ]
          },
          {
            "coding": [
              {
                "code": "15777000",
                "system": "http://snomed.info/sct",
                "display": "Prediabetes"
              }
            ]
          },
          {
            "coding": [
              {
                "code": "59621000",
                "system": "http://snomed.info/sct",
                "display": "Essential hypertension"
              }
            ]
          }
        ],
        "status": "active",
        "intent": "order",
        "code": {
          "coding": [
            {
              "code": "108252007",
              "system": "http://snomed.info/sct",
              "display": "Laboratory procedure"
            }
          ]
        },
        "subject": {
          "reference": "urn:uuid:f4c5b868-30f6-4e88-ada3-0c5c70ee8c89",
          "display": "Aniela Sacharczuk"
        },
        "requester": {
          "reference": "urn:uuid:359402a0-3443-43e3-950b-4c50c26ed6fc"
        }
      }
    },
    {
      "fullUrl": "urn:uuid:359402a0-3443-43e3-950b-4c50c26ed6fc",
      "resource": {
        "resourceType": "PractitionerRole",
        "id": "359402a0-3443-43e3-950b-4c50c26ed6fc",
        "meta": {
          "profile": [
            "http://hl7.eu/fhir/base/StructureDefinition/practitionerRole-eu"
          ]
        },
        "text": {
          "status": "generated",
          "div": "<div xmlns=\"http://www.w3.org/1999/xhtml\">Provider Role Id: 359402a0-3443-43e3-950b-4c50c26ed6fc</div>"
        },
        "organization": {
          "reference": "urn:uuid:eba6be10-fba0-4cce-99e5-8c07720e345d"
        }
      }
    },
    {
      "fullUrl": "urn:uuid:eba6be10-fba0-4cce-99e5-8c07720e345d",
      "resource": {
        "resourceType": "Organization",
        "id": "eba6be10-fba0-4cce-99e5-8c07720e345d",
        "meta": {
          "profile": [
            "http://hl7.eu/fhir/base/StructureDefinition/organization-eu"
          ]
        },
        "identifier": [
          {
            "assigner": {
              "display": "HL7 Europe"
            },
            "system": "urn:oid:2.16.840.1.113883.2.51.999",
            "value": "6160674d-d088-4aa5-b430-cc2dfeabc394"
          }
        ],
        "address": [
          {
            "line": [
              "Józefa Piłsudskiego 17"
            ],
            "city": "Gorzyce",
            "postalCode": "39-432",
            "country": "Poland"
          }
        ],
        "text": {
          "status": "generated",
          "div": "<div xmlns=\"http://www.w3.org/1999/xhtml\">Provider Organization: Ośrodek Zdrowia</div>"
        },
        "name": "Ośrodek Zdrowia"
      }
    },
    {
      "fullUrl": "urn:uuid:b2e986bd-92bf-4734-bdd2-37e64eb8c435",
      "resource": {
        "resourceType": "Specimen",
        "id": "b2e986bd-92bf-4734-bdd2-37e64eb8c435",
        "meta": {
          "profile": [
            "http://hl7.eu/fhir/laboratory/StructureDefinition/Specimen-eu-lab"
          ]
        },
        "collection": {
          "collectedDateTime": "2018-12-04"
        },
        "text": {
          "status": "generated",
          "div": "<div xmlns=\"http://www.w3.org/1999/xhtml\"><table class=\"hl7__eu__lab__report\"><tr><th>Specimen</th><th>Collection Date</th></tr><tr><td>Whole blood specimen (specimen)</td><td><span class=\"nb\">04-Dec-2018</span></td></tr></table></div>"
        },
        "type": {
          "coding": [
            {
              "code": "258580003",
              "system": "http://snomed.info/sct",
              "display": "Whole blood specimen (specimen)"
            }
          ]
        }
      }
    },
    {
      "fullUrl": "urn:uuid:a7758860-7b28-4850-a494-b3705d88191e",
      "resource": {
        "resourceType": "Observation",
        "id": "a7758860-7b28-4850-a494-b3705d88191e",
        "meta": {
          "profile": [
            "http://hl7.eu/fhir/laboratory/StructureDefinition/Observation-resultslab-eu-lab"
          ]
        },
        "performer": [
          {
            "display": "The Central European Lab"
          }
        ],
        "category": [
          {
            "coding": [
              {
                "system": "http://terminology.hl7.org/CodeSystem/observation-category",
                "code": "laboratory"
              }
            ]
          }
        ],
        "code": {
          "coding": [
            {
              "code": "4548-4",
              "system": "http://loinc.org",
              "display": "Hemoglobin A1c/Hemoglobin.total in Blood"
            }
          ],
          "text": "Hemoglobin A1c/Hemoglobin.total in Blood"
        },
        "valueQuantity": {
          "system": "http://unitsofmeasure.org",
          "value": 6.4,
          "unit": "%",
          "code": "%"
        },
        "referenceRange": [
          {
            "low": {
              "value": 4.8,
              "code": "%",
              "system": "http://unitsofmeasure.org"
            }
          },
          {
            "high": {
              "value": 5.7,
              "code": "%",
              "system": "http://unitsofmeasure.org"
            }
          }
        ],
        "interpretation": [
          {
            "coding": [
              {
                "code": "H",
                "system": "http://terminology.hl7.org/CodeSystem/v3-ObservationInterpretation",
                "display": "High"
              }
            ]
          }
        ],
        "text": {
          "status": "generated",
          "div": "<div xmlns=\"http://www.w3.org/1999/xhtml\"><table class=\"hl7__eu__lab__report\"><tr><th>Test</th><th>04-Dec-2018</th><th>Reference&#xA0;Range</th><th>Unit</th></tr><tr><td>Hemoglobin A1c/Hemoglobin.total in Blood</td><td>6.4</td><td>4.8 - 5.7</td><td>H</td><td>%</td></tr></table></div>"
        },
        "status": "final",
        "subject": {
          "reference": "urn:uuid:f4c5b868-30f6-4e88-ada3-0c5c70ee8c89",
          "display": "Aniela Sacharczuk"
        },
        "effectiveDateTime": "2018-12-04T05:26:59Z",
        "specimen": {
          "reference": "urn:uuid:b2e986bd-92bf-4734-bdd2-37e64eb8c435"
        }
      }
    },
    {
      "fullUrl": "urn:uuid:346b268e-612e-41cc-86de-ff55ba07614d",
      "resource": {
        "resourceType": "Observation",
        "id": "346b268e-612e-41cc-86de-ff55ba07614d",
        "meta": {
          "profile": [
            "http://hl7.eu/fhir/laboratory/StructureDefinition/Observation-resultslab-eu-lab"
          ]
        },
        "performer": [
          {
            "display": "The Central European Lab"
          }
        ],
        "category": [
          {
            "coding": [
              {
                "system": "http://terminology.hl7.org/CodeSystem/observation-category",
                "code": "laboratory"
              }
            ]
          }
        ],
        "code": {
          "coding": [
            {
              "code": "2339-0",
              "system": "http://loinc.org",
              "display": "Glucose [Mass/volume] in Blood"
            }
          ],
          "text": "Glucose [Mass/volume] in Blood"
        },
        "valueQuantity": {
          "system": "http://unitsofmeasure.org",
          "value": 88.5,
          "unit": "mg/dL",
          "code": "mg/dL"
        },
        "referenceRange": [
          {
            "low": {
              "value": 70,
              "code": "mg/dL",
              "system": "http://unitsofmeasure.org"
            }
          },
          {
            "high": {
              "value": 99,
              "code": "mg/dL",
              "system": "http://unitsofmeasure.org"
            }
          }
        ],
        "text": {
          "status": "generated",
          "div": "<div xmlns=\"http://www.w3.org/1999/xhtml\"><table class=\"hl7__eu__lab__report\"><tr><th>Test</th><th>04-Dec-2018</th><th>Reference&#xA0;Range</th><th>Unit</th></tr><tr><td>Glucose [Mass/volume] in Blood</td><td>88.5</td><td>70 - 99</td><td></td><td>mg/dL</td></tr></table></div>"
        },
        "status": "final",
        "subject": {
          "reference": "urn:uuid:f4c5b868-30f6-4e88-ada3-0c5c70ee8c89",
          "display": "Aniela Sacharczuk"
        },
        "effectiveDateTime": "2018-12-04T05:26:59Z",
        "specimen": {
          "reference": "urn:uuid:b2e986bd-92bf-4734-bdd2-37e64eb8c435"
        }
      }
    },
    {
      "fullUrl": "urn:uuid:1a2b6567-88df-4958-8efb-3049e8a304db",
      "resource": {
        "resourceType": "Observation",
        "id": "1a2b6567-88df-4958-8efb-3049e8a304db",
        "meta": {
          "profile": [
            "http://hl7.eu/fhir/laboratory/StructureDefinition/Observation-resultslab-eu-lab"
          ]
        },
        "performer": [
          {
            "display": "The Central European Lab"
          }
        ],
        "category": [
          {
            "coding": [
              {
                "system": "http://terminology.hl7.org/CodeSystem/observation-category",
                "code": "laboratory"
              }
            ]
          }
        ],
        "code": {
          "coding": [
            {
              "code": "6299-2",
              "system": "http://loinc.org",
              "display": "Urea nitrogen [Mass/volume] in Blood"
            }
          ],
          "text": "Urea nitrogen [Mass/volume] in Blood"
        },
        "valueQuantity": {
          "system": "http://unitsofmeasure.org",
          "value": 17.1,
          "unit": "mg/dL",
          "code": "mg/dL"
        },
        "referenceRange": [
          {
            "low": {
              "value": 7,
              "code": "mg/dL",
              "system": "http://unitsofmeasure.org"
            }
          },
          {
            "high": {
              "value": 20,
              "code": "mg/dL",
              "system": "http://unitsofmeasure.org"
            }
          }
        ],
        "text": {
          "status": "generated",
          "div": "<div xmlns=\"http://www.w3.org/1999/xhtml\"><table class=\"hl7__eu__lab__report\"><tr><th>Test</th><th>04-Dec-2018</th><th>Reference&#xA0;Range</th><th>Unit</th></tr><tr><td>Urea nitrogen [Mass/volume] in Blood</td><td>17.1</td><td>7 - 20</td><td></td><td>mg/dL</td></tr></table></div>"
        },
        "status": "final",
        "subject": {
          "reference": "urn:uuid:f4c5b868-30f6-4e88-ada3-0c5c70ee8c89",
          "display": "Aniela Sacharczuk"
        },
        "effectiveDateTime": "2018-12-04T05:26:59Z",
        "specimen": {
          "reference": "urn:uuid:b2e986bd-92bf-4734-bdd2-37e64eb8c435"
        }
      }
    },
    {
      "fullUrl": "urn:uuid:9cfd7795-8883-4812-ad05-f0e32d47af15",
      "resource": {
        "resourceType": "Observation",
        "id": "9cfd7795-8883-4812-ad05-f0e32d47af15",
        "meta": {
          "profile": [
            "http://hl7.eu/fhir/laboratory/StructureDefinition/Observation-resultslab-eu-lab"
          ]
        },
        "performer": [
          {
            "display": "The Central European Lab"
          }
        ],
        "category": [
          {
            "coding": [
              {
                "system": "http://terminology.hl7.org/CodeSystem/observation-category",
                "code": "laboratory"
              }
            ]
          }
        ],
        "code": {
          "coding": [
            {
              "code": "38483-4",
              "system": "http://loinc.org",
              "display": "Creatinine [Mass/volume] in Blood"
            }
          ],
          "text": "Creatinine [Mass/volume] in Blood"
        },
        "valueQuantity": {
          "system": "http://unitsofmeasure.org",
          "value": 0.8,
          "unit": "mg/dL",
          "code": "mg/dL"
        },
        "referenceRange": [
          {
            "low": {
              "value": 0.6,
              "code": "mg/dL",
              "system": "http://unitsofmeasure.org"
            }
          },
          {
            "high": {
              "value": 1.1,
              "code": "mg/dL",
              "system": "http://unitsofmeasure.org"
            }
          }
        ],
        "text": {
          "status": "generated",
          "div": "<div xmlns=\"http://www.w3.org/1999/xhtml\"><table class=\"hl7__eu__lab__report\"><tr><th>Test</th><th>04-Dec-2018</th><th>Reference&#xA0;Range</th><th>Unit</th></tr><tr><td>Creatinine [Mass/volume] in Blood</td><td>0.8</td><td>0.6 - 1.1</td><td></td><td>mg/dL</td></tr></table></div>"
        },
        "status": "final",
        "subject": {
          "reference": "urn:uuid:f4c5b868-30f6-4e88-ada3-0c5c70ee8c89",
          "display": "Aniela Sacharczuk"
        },
        "effectiveDateTime": "2018-12-04T05:26:59Z",
        "specimen": {
          "reference": "urn:uuid:b2e986bd-92bf-4734-bdd2-37e64eb8c435"
        }
      }
    },
    {
      "fullUrl": "urn:uuid:40b59b7a-31c8-48ec-a6f8-ff20ce5be4dd",
      "resource": {
        "resourceType": "Observation",
        "id": "40b59b7a-31c8-48ec-a6f8-ff20ce5be4dd",
        "meta": {
          "profile": [
            "http://hl7.eu/fhir/laboratory/StructureDefinition/Observation-resultslab-eu-lab"
          ]
        },
        "performer": [
          {
            "display": "The Central European Lab"
          }
        ],
        "category": [
          {
            "coding": [
              {
                "system": "http://terminology.hl7.org/CodeSystem/observation-category",
                "code": "laboratory"
              }
            ]
          }
        ],
        "code": {
          "coding": [
            {
              "code": "49765-1",
              "system": "http://loinc.org",
              "display": "Calcium [Mass/volume] in Blood"
            }
          ],
          "text": "Calcium [Mass/volume] in Blood"
        },
        "valueQuantity": {
          "system": "http://unitsofmeasure.org",
          "value": 9.1,
          "unit": "mg/dL",
          "code": "mg/dL"
        },
        "referenceRange": [
          {
            "low": {
              "value": 8.5,
              "code": "mg/dL",
              "system": "http://unitsofmeasure.org"
            }
          },
          {
            "high": {
              "value": 10.5,
              "code": "mg/dL",
              "system": "http://unitsofmeasure.org"
            }
          }
        ],
        "text": {
          "status": "generated",
          "div": "<div xmlns=\"http://www.w3.org/1999/xhtml\"><table class=\"hl7__eu__lab__report\"><tr><th>Test</th><th>04-Dec-2018</th><th>Reference&#xA0;Range</th><th>Unit</th></tr><tr><td>Calcium [Mass/volume] in Blood</td><td>9.1</td><td>8.5 - 10.5</td><td></td><td>mg/dL</td></tr></table></div>"
        },
        "status": "final",
        "subject": {
          "reference": "urn:uuid:f4c5b868-30f6-4e88-ada3-0c5c70ee8c89",
          "display": "Aniela Sacharczuk"
        },
        "effectiveDateTime": "2018-12-04T05:26:59Z",
        "specimen": {
          "reference": "urn:uuid:b2e986bd-92bf-4734-bdd2-37e64eb8c435"
        }
      }
    },
    {
      "fullUrl": "urn:uuid:9c735a4e-b79d-41a2-9b6d-ee1dff8cd243",
      "resource": {
        "resourceType": "Observation",
        "id": "9c735a4e-b79d-41a2-9b6d-ee1dff8cd243",
        "meta": {
          "profile": [
            "http://hl7.eu/fhir/laboratory/StructureDefinition/Observation-resultslab-eu-lab"
          ]
        },
        "performer": [
          {
            "display": "The Central European Lab"
          }
        ],
        "category": [
          {
            "coding": [
              {
                "system": "http://terminology.hl7.org/CodeSystem/observation-category",
                "code": "laboratory"
              }
            ]
          }
        ],
        "code": {
          "coding": [
            {
              "code": "2947-0",
              "system": "http://loinc.org",
              "display": "Sodium [Moles/volume] in Blood"
            }
          ],
          "text": "Sodium [Moles/volume] in Blood"
        },
        "valueQuantity": {
          "system": "http://unitsofmeasure.org",
          "value": 143,
          "unit": "mmol/L",
          "code": "mmol/L"
        },
        "referenceRange": [
          {
            "low": {
              "value": 135,
              "code": "mmol/L",
              "system": "http://unitsofmeasure.org"
            }
          },
          {
            "high": {
              "value": 145,
              "code": "mmol/L",
              "system": "http://unitsofmeasure.org"
            }
          }
        ],
        "text": {
          "status": "generated",
          "div": "<div xmlns=\"http://www.w3.org/1999/xhtml\"><table class=\"hl7__eu__lab__report\"><tr><th>Test</th><th>04-Dec-2018</th><th>Reference&#xA0;Range</th><th>Unit</th></tr><tr><td>Sodium [Moles/volume] in Blood</td><td>143.0</td><td>135 - 145</td><td></td><td>mmol/L</td></tr></table></div>"
        },
        "status": "final",
        "subject": {
          "reference": "urn:uuid:f4c5b868-30f6-4e88-ada3-0c5c70ee8c89",
          "display": "Aniela Sacharczuk"
        },
        "effectiveDateTime": "2018-12-04T05:26:59Z",
        "specimen": {
          "reference": "urn:uuid:b2e986bd-92bf-4734-bdd2-37e64eb8c435"
        }
      }
    },
    {
      "fullUrl": "urn:uuid:6eb8c102-d28d-493c-a969-ed8969634bd9",
      "resource": {
        "resourceType": "Observation",
        "id": "6eb8c102-d28d-493c-a969-ed8969634bd9",
        "meta": {
          "profile": [
            "http://hl7.eu/fhir/laboratory/StructureDefinition/Observation-resultslab-eu-lab"
          ]
        },
        "performer": [
          {
            "display": "The Central European Lab"
          }
        ],
        "category": [
          {
            "coding": [
              {
                "system": "http://terminology.hl7.org/CodeSystem/observation-category",
                "code": "laboratory"
              }
            ]
          }
        ],
        "code": {
          "coding": [
            {
              "code": "6298-4",
              "system": "http://loinc.org",
              "display": "Potassium [Moles/volume] in Blood"
            }
          ],
          "text": "Potassium [Moles/volume] in Blood"
        },
        "valueQuantity": {
          "system": "http://unitsofmeasure.org",
          "value": 3.9,
          "unit": "mmol/L",
          "code": "mmol/L"
        },
        "referenceRange": [
          {
            "low": {
              "value": 3.5,
              "code": "mmol/L",
              "system": "http://unitsofmeasure.org"
            }
          },
          {
            "high": {
              "value": 5.3,
              "code": "mmol/L",
              "system": "http://unitsofmeasure.org"
            }
          }
        ],
        "text": {
          "status": "generated",
          "div": "<div xmlns=\"http://www.w3.org/1999/xhtml\"><table class=\"hl7__eu__lab__report\"><tr><th>Test</th><th>04-Dec-2018</th><th>Reference&#xA0;Range</th><th>Unit</th></tr><tr><td>Potassium [Moles/volume] in Blood</td><td>3.9</td><td>3.5 - 5.3</td><td></td><td>mmol/L</td></tr></table></div>"
        },
        "status": "final",
        "subject": {
          "reference": "urn:uuid:f4c5b868-30f6-4e88-ada3-0c5c70ee8c89",
          "display": "Aniela Sacharczuk"
        },
        "effectiveDateTime": "2018-12-04T05:26:59Z",
        "specimen": {
          "reference": "urn:uuid:b2e986bd-92bf-4734-bdd2-37e64eb8c435"
        }
      }
    },
    {
      "fullUrl": "urn:uuid:7fb8e9d0-25c4-4518-90b4-a63bf42da1fd",
      "resource": {
        "resourceType": "Observation",
        "id": "7fb8e9d0-25c4-4518-90b4-a63bf42da1fd",
        "meta": {
          "profile": [
            "http://hl7.eu/fhir/laboratory/StructureDefinition/Observation-resultslab-eu-lab"
          ]
        },
        "performer": [
          {
            "display": "The Central European Lab"
          }
        ],
        "category": [
          {
            "coding": [
              {
                "system": "http://terminology.hl7.org/CodeSystem/observation-category",
                "code": "laboratory"
              }
            ]
          }
        ],
        "code": {
          "coding": [
            {
              "code": "2069-3",
              "system": "http://loinc.org",
              "display": "Chloride [Moles/volume] in Blood"
            }
          ],
          "text": "Chloride [Moles/volume] in Blood"
        },
        "valueQuantity": {
          "system": "http://unitsofmeasure.org",
          "value": 110.8,
          "unit": "mmol/L",
          "code": "mmol/L"
        },
        "referenceRange": [
          {
            "low": {
              "value": 98,
              "code": "mmol/L",
              "system": "http://unitsofmeasure.org"
            }
          },
          {
            "high": {
              "value": 114,
              "code": "mmol/L",
              "system": "http://unitsofmeasure.org"
            }
          }
        ],
        "text": {
          "status": "generated",
          "div": "<div xmlns=\"http://www.w3.org/1999/xhtml\"><table class=\"hl7__eu__lab__report\"><tr><th>Test</th><th>04-Dec-2018</th><th>Reference&#xA0;Range</th><th>Unit</th></tr><tr><td>Chloride [Moles/volume] in Blood</td><td>110.8</td><td>98 - 114</td><td></td><td>mmol/L</td></tr></table></div>"
        },
        "status": "final",
        "subject": {
          "reference": "urn:uuid:f4c5b868-30f6-4e88-ada3-0c5c70ee8c89",
          "display": "Aniela Sacharczuk"
        },
        "effectiveDateTime": "2018-12-04T05:26:59Z",
        "specimen": {
          "reference": "urn:uuid:b2e986bd-92bf-4734-bdd2-37e64eb8c435"
        }
      }
    },
    {
      "fullUrl": "urn:uuid:5338bb2e-6252-4cef-a37d-ee4b8fb6b66e",
      "resource": {
        "resourceType": "Observation",
        "id": "5338bb2e-6252-4cef-a37d-ee4b8fb6b66e",
        "meta": {
          "profile": [
            "http://hl7.eu/fhir/laboratory/StructureDefinition/Observation-resultslab-eu-lab"
          ]
        },
        "performer": [
          {
            "display": "The Central European Lab"
          }
        ],
        "category": [
          {
            "coding": [
              {
                "system": "http://terminology.hl7.org/CodeSystem/observation-category",
                "code": "laboratory"
              }
            ]
          }
        ],
        "code": {
          "coding": [
            {
              "code": "20565-8",
              "system": "http://loinc.org",
              "display": "Carbon dioxide, total [Moles/volume] in Blood"
            }
          ],
          "text": "Carbon dioxide, total [Moles/volume] in Blood"
        },
        "valueQuantity": {
          "system": "http://unitsofmeasure.org",
          "value": 28.7,
          "unit": "mmol/L",
          "code": "mmol/L"
        },
        "referenceRange": [
          {
            "low": {
              "value": 22,
              "code": "mmol/L",
              "system": "http://unitsofmeasure.org"
            }
          },
          {
            "high": {
              "value": 29,
              "code": "mmol/L",
              "system": "http://unitsofmeasure.org"
            }
          }
        ],
        "text": {
          "status": "generated",
          "div": "<div xmlns=\"http://www.w3.org/1999/xhtml\"><table class=\"hl7__eu__lab__report\"><tr><th>Test</th><th>04-Dec-2018</th><th>Reference&#xA0;Range</th><th>Unit</th></tr><tr><td>Carbon dioxide, total [Moles/volume] in Blood</td><td>28.7</td><td>22 - 29</td><td></td><td>mmol/L</td></tr></table></div>"
        },
        "status": "final",
        "subject": {
          "reference": "urn:uuid:f4c5b868-30f6-4e88-ada3-0c5c70ee8c89",
          "display": "Aniela Sacharczuk"
        },
        "effectiveDateTime": "2018-12-04T05:26:59Z",
        "specimen": {
          "reference": "urn:uuid:b2e986bd-92bf-4734-bdd2-37e64eb8c435"
        }
      }
    },
    {
      "fullUrl": "urn:uuid:c1df82d3-db0b-4e61-ae6e-f55984ed4197",
      "resource": {
        "resourceType": "Device",
        "id": "c1df82d3-db0b-4e61-ae6e-f55984ed4197",
        "deviceName": [
          {
            "name": "SYNDERAI Synthetic Generator",
            "type": "manufacturer-name"
          }
        ],
        "version": [
          {
            "value": "5.0"
          }
        ],
        "text": {
          "status": "generated",
          "div": "<div xmlns=\"http://www.w3.org/1999/xhtml\">SYNDERAI Synthetic Generator v5.0</div>"
        },
        "status": "active\"",
        "distinctIdentifier": "synderai-generator-50",
        "manufacturer": "SYNDERAI Project"
      }
    },
    {
      "fullUrl": "urn:uuid:c3409509-7c3d-4cf7-8182-378752e668c6",
      "resource": {
        "resourceType": "Provenance",
        "id": "c3409509-7c3d-4cf7-8182-378752e668c6",
        "target": [
          {
            "reference": "Patient/f4c5b868-30f6-4e88-ada3-0c5c70ee8c89"
          },
          {
            "reference": "Bundle/ddfb3e46-2006-4c62-b7b8-14e9068dc271"
          },
          {
            "reference": "Composition/3e3933d3-a8a0-41c7-a20d-5514395a0702"
          },
          {
            "reference": "PractitionerRole/6388bfd1-9ab8-43b8-9de4-120e4d59ac83"
          },
          {
            "reference": "Practitioner/b36c8c89-21f5-4b0b-8f55-4269ad389e66"
          },
          {
            "reference": "PractitionerRole/359402a0-3443-43e3-950b-4c50c26ed6fc"
          },
          {
            "reference": "Organization/eba6be10-fba0-4cce-99e5-8c07720e345d"
          }
        ],
        "activity": {
          "text": "Synthetic Example Data Generation"
        },
        "policy": [
          "https://synderai.net/synderai-synthetic-data-policy"
        ],
        "agent": [
          {
            "type": {
              "text": "author"
            },
            "who": {
              "reference": "Device/c1df82d3-db0b-4e61-ae6e-f55984ed4197"
            }
          }
        ],
        "reason": [
          {
            "text": "Interoperability Testing and Training (non-clinical use)"
          }
        ],
        "text": {
          "status": "generated",
          "div": "<div xmlns=\"http://www.w3.org/1999/xhtml\">Provenance for SYNDERAI Synthetic Example Data Resource</div>"
        },
        "recorded": "2018-12-04T06:26:59Z"
      }
    },
    {
      "fullUrl": "urn:uuid:6388bfd1-9ab8-43b8-9de4-120e4d59ac83",
      "resource": {
        "resourceType": "PractitionerRole",
        "id": "6388bfd1-9ab8-43b8-9de4-120e4d59ac83",
        "meta": {
          "profile": [
            "http://hl7.eu/fhir/base/StructureDefinition/practitionerRole-eu"
          ]
        },
        "text": {
          "status": "generated",
          "div": "<div xmlns=\"http://www.w3.org/1999/xhtml\">Laboratory Role Id: 6388bfd1-9ab8-43b8-9de4-120e4d59ac83</div>"
        },
        "practitioner": {
          "reference": "urn:uuid:b36c8c89-21f5-4b0b-8f55-4269ad389e66"
        }
      }
    },
    {
      "fullUrl": "urn:uuid:b36c8c89-21f5-4b0b-8f55-4269ad389e66",
      "resource": {
        "resourceType": "Practitioner",
        "id": "b36c8c89-21f5-4b0b-8f55-4269ad389e66",
        "meta": {
          "profile": [
            "http://hl7.eu/fhir/base/StructureDefinition/practitioner-eu"
          ]
        },
        "identifier": [
          {
            "assigner": {
              "display": "HL7 Europe"
            },
            "system": "urn:oid:2.16.840.1.113883.2.51.999",
            "value": "5230e1b6-4cd3-42f6-b80e-1289b6811e6e"
          }
        ],
        "name": [
          {
            "prefix": [
              "dr"
            ],
            "given": [
              "Ex"
            ],
            "family": "Ample"
          }
        ],
        "address": [
          {
            "line": [
              "Laboratoire Central Européenne",
              "Boulevard du Jardin Botanique 32"
            ],
            "postalCode": "1000",
            "city": "Brussels",
            "country": "Belgium"
          }
        ],
        "text": {
          "status": "generated",
          "div": "<div xmlns=\"http://www.w3.org/1999/xhtml\">Laboratory: Laboratoire Central Européenne, 1000 Brussels, Belgium</div>"
        }
      }
    }
  ],
  "type": "document",
  "timestamp": "2018-12-04T06:26:59Z"
}
