{
  "resourceType": "Bundle",
  "id": "9704b23d-d12d-4054-95e3-e63ea87993e6",
  "meta": {
    "profile": [
      "http://hl7.eu/fhir/laboratory/StructureDefinition/Bundle-eu-lab"
    ]
  },
  "identifier": {
    "assigner": {
      "display": "HL7 Europe"
    },
    "system": "urn:oid:2.16.840.1.113883.2.51.999",
    "value": "87f195b8-897e-4d01-802d-74e736af6769"
  },
  "entry": [
    {
      "fullUrl": "urn:uuid:9d57c635-bf7b-48cd-8af0-0cdc1a6c534b",
      "resource": {
        "resourceType": "Composition",
        "id": "9d57c635-bf7b-48cd-8af0-0cdc1a6c534b",
        "meta": {
          "profile": [
            "http://hl7.eu/fhir/laboratory/StructureDefinition/Composition-eu-lab"
          ]
        },
        "identifier": {
          "assigner": {
            "display": "HL7 Europe"
          },
          "system": "urn:oid:2.16.840.1.113883.2.51.999",
          "value": "8270a7b1-9549-49da-bca2-127216073bea"
        },
        "author": [
          {
            "reference": "urn:uuid:8f431a2e-42a4-40b4-a3ff-fb00357d2bef"
          }
        ],
        "category": [
          {
            "coding": [
              {
                "code": "26436-6",
                "system": "http://loinc.org",
                "display": "Laboratory studies (set)"
              }
            ]
          }
        ],
        "type": {
          "coding": [
            {
              "code": "11502-2",
              "system": "http://loinc.org",
              "display": "Laboratory report"
            }
          ],
          "text": "Laboratory Report"
        },
        "section": [
          {
            "code": {
              "coding": [
                {
                  "code": "26436-6",
                  "system": "http://loinc.org",
                  "display": "Laboratory studies (set)"
                }
              ],
              "text": "Laboratory studies"
            },
            "section": [
              {
                "code": {
                  "coding": [
                    {
                      "code": "$18719-5",
                      "system": "http://loinc.org",
                      "display": "Chemistry studies (set)"
                    }
                  ],
                  "text": "Chemistry"
                },
                "entry": [
                  {
                    "reference": "urn:uuid:af8191a7-2d92-4a59-ba94-320d46da144f"
                  },
                  {
                    "reference": "urn:uuid:58241350-ee99-493c-901f-724c5dc1147d"
                  },
                  {
                    "reference": "urn:uuid:031720b3-f7b4-44dc-bcbf-7c686dbec334"
                  },
                  {
                    "reference": "urn:uuid:e8f02402-689d-40e7-95f5-cd4df51acfca"
                  },
                  {
                    "reference": "urn:uuid:ae5f36ca-7014-489c-9855-d98049911109"
                  },
                  {
                    "reference": "urn:uuid:8e1e5ae5-2a1c-4667-a484-771b6c963028"
                  },
                  {
                    "reference": "urn:uuid:a27c119f-8d39-477c-92b3-72aeebbc9c6c"
                  },
                  {
                    "reference": "urn:uuid:1eeb6cb7-62cf-473f-89e7-853b148bfb38"
                  },
                  {
                    "reference": "urn:uuid:8669234e-7cb2-4a52-9743-7157be6802a8"
                  },
                  {
                    "reference": "urn:uuid:e4ba758d-7810-44ab-9ee2-e067437751ab"
                  },
                  {
                    "reference": "urn:uuid:702b9ebb-0a02-4a83-8f55-04b4367cb024"
                  },
                  {
                    "reference": "urn:uuid:5a5673cd-f227-4303-8c44-3b60142d3f12"
                  },
                  {
                    "reference": "urn:uuid:89ada17f-fd20-47cc-9967-30394a962454"
                  },
                  {
                    "reference": "urn:uuid:1dddcff1-54cf-4a34-8653-d2ff588540f8"
                  },
                  {
                    "reference": "urn:uuid:ebf6cf18-1f8c-404c-81d1-e18d85a3931c"
                  },
                  {
                    "reference": "urn:uuid:217b463e-a173-4d25-9641-5237c91157d0"
                  }
                ],
                "text": {
                  "status": "generated",
                  "div": "<div xmlns=\"http://www.w3.org/1999/xhtml\"><h3>Chemistry</h3><table class=\"hl7__eu__lab__report\"><thead><tr><th>Test</th><th>16-APR-2016</th><th>Reference&#xA0;Range</th><th>Unit</th></tr></thead><tbody><tr><td>Glucose [Mass/volume] in Blood</td><td>85.6</td><td>70 - 140</td><td>mg/dL</td></tr><tr><td>Urea nitrogen [Mass/volume] in Blood</td><td>10.4</td><td>7 - 25</td><td>mg/dL</td></tr><tr><td>Creatinine [Mass/volume] in Blood</td><td><strong>3.2 H</strong></td><td>0.6 - 1.1</td><td>mg/dL</td></tr><tr><td>Calcium [Mass/volume] in Blood</td><td>8.9</td><td>8.6 - 10.4</td><td>mg/dL</td></tr><tr><td>Sodium [Moles/volume] in Blood</td><td>139.0</td><td>135 - 145</td><td>mmol/L</td></tr><tr><td>Potassium [Moles/volume] in Blood</td><td>4.9</td><td>3.5 - 5.1</td><td>mmol/L</td></tr><tr><td>Chloride [Moles/volume] in Blood</td><td>103.0</td><td>98 - 110</td><td>mmol/L</td></tr><tr><td>Carbon dioxide, total [Moles/volume] in Blood</td><td>24.2</td><td>22 - 29</td><td>mmol/L</td></tr><tr><td>Protein [Mass/volume] in Serum or Plasma</td><td>7.8</td><td>6.6 - 8.3</td><td>g/dL</td></tr><tr><td>Albumin [Mass/volume] in Serum or Plasma</td><td>4.3</td><td>3.5 - 5</td><td>g/dL</td></tr><tr><td>Globulin [Mass/volume] in Serum by calculation</td><td>2.1</td><td>2 - 3.5</td><td>g/L</td></tr><tr><td>Bilirubin.total [Mass/volume] in Serum or Plasma</td><td><strong>0.2 L</strong></td><td>0.3 - 1.2</td><td>mg/dL</td></tr><tr><td>Alkaline phosphatase [Enzymatic activity/volume] in Serum or Plasma</td><td>62.1</td><td>39 - 141</td><td>U/L</td></tr><tr><td>Alanine aminotransferase [Enzymatic activity/volume] in Serum or Plasma</td><td>36.0</td><td>7 - 40</td><td>U/L</td></tr><tr><td>Aspartate aminotransferase [Enzymatic activity/volume] in Serum or Plasma</td><td>11.8</td><td>10 - 32</td><td>U/L</td></tr><tr><td>Ketones [Presence] in Urine by Test strip</td><td>Urine ketone test = +++</td><td></td><td></td></tr></tbody></table></div>"
                },
                "title": "Chemistry"
              },
              {
                "code": {
                  "coding": [
                    {
                      "code": "$18729-4",
                      "system": "http://loinc.org",
                      "display": "Urinalysis studies (set)"
                    }
                  ],
                  "text": "Urinalysis"
                },
                "entry": [
                  {
                    "reference": "urn:uuid:ad415b8b-f0a2-417e-aee5-b878ce368bdb"
                  },
                  {
                    "reference": "urn:uuid:dbf5b76a-d54c-43b1-9bad-8085f71ac11b"
                  },
                  {
                    "reference": "urn:uuid:c7867185-374b-445f-ae5e-df873d480ef5"
                  },
                  {
                    "reference": "urn:uuid:aafc4b28-44ce-4746-9afa-ec13c9d8a57b"
                  },
                  {
                    "reference": "urn:uuid:8c18f65a-3492-4fda-87f6-34d50445690e"
                  },
                  {
                    "reference": "urn:uuid:9a39c59f-a135-4840-8d45-6f428a7d139c"
                  },
                  {
                    "reference": "urn:uuid:4a0fcae8-b980-4f20-af17-6ad21424110e"
                  },
                  {
                    "reference": "urn:uuid:35dcce2b-a9d8-4956-a3d9-69eb4bceef63"
                  },
                  {
                    "reference": "urn:uuid:96e0535e-2d5a-4570-8064-a19d8caa0ed4"
                  },
                  {
                    "reference": "urn:uuid:301b9120-f70e-4ed2-84d6-2cebbb91d613"
                  },
                  {
                    "reference": "urn:uuid:19391d03-c79d-4339-97a9-f76a7dbc1e87"
                  },
                  {
                    "reference": "urn:uuid:0c17ec06-0ece-4f88-8ad5-674c2ff06404"
                  }
                ],
                "text": {
                  "status": "generated",
                  "div": "<div xmlns=\"http://www.w3.org/1999/xhtml\"><h3>Urinalysis</h3><table class=\"hl7__eu__lab__report\"><thead><tr><th>Test</th><th>16-APR-2016</th><th>Reference&#xA0;Range</th><th>Unit</th></tr></thead><tbody><tr><td>Glucose [Mass/volume] in Urine by Test strip</td><td><strong>2.3 H</strong></td><td>0 - 0.8</td><td>mg/dL</td></tr><tr><td>Glucose [Presence] in Urine by Test strip</td><td>++</td><td></td><td></td></tr><tr><td>Bilirubin.total [Mass/volume] in Urine by Test strip</td><td><strong>1.5 H</strong></td><td>0 - 1</td><td>mg/dL</td></tr><tr><td>Bilirubin.total [Presence] in Urine by Test strip</td><td>Finding of bilirubin in urine</td><td></td><td></td></tr><tr><td>Ketones [Mass/volume] in Urine by Test strip</td><td><strong>15.1 H</strong></td><td>0 - 4</td><td>mg/dL</td></tr><tr><td>Specific gravity of Urine by Test strip</td><td><strong>1.0 L</strong></td><td>1.005 - 1.03</td><td>{nominal}</td></tr><tr><td>pH of Urine by Test strip</td><td>7.0</td><td>4.5 - 7</td><td>pH</td></tr><tr><td>Protein [Mass/volume] in Urine by Test strip</td><td><strong>387.0 H</strong></td><td>0 - 145</td><td>mg/dL</td></tr><tr><td>Protein [Presence] in Urine by Test strip</td><td>Urine protein test = +++</td><td></td><td></td></tr><tr><td>Nitrite [Presence] in Urine by Test strip</td><td>Urine nitrite negative</td><td></td><td></td></tr><tr><td>Hemoglobin [Presence] in Urine by Test strip</td><td>Urine blood test = negative</td><td></td><td></td></tr><tr><td>Leukocyte esterase [Presence] in Urine by Test strip</td><td>Urine leukocyte test negative</td><td></td><td></td></tr></tbody></table></div>"
                },
                "title": "Urinalysis"
              },
              {
                "code": {
                  "coding": [
                    {
                      "code": "$LP7846-1",
                      "system": "http://loinc.org",
                      "display": "Specimen information"
                    }
                  ],
                  "text": "Specimen information"
                },
                "entry": [
                  {
                    "reference": "urn:uuid:6017ae85-6dd8-47d0-b5be-bc0308db1e7c"
                  },
                  {
                    "reference": "urn:uuid:8f7f5a94-9a56-4a4c-87a2-ada6cb2ff524"
                  },
                  {
                    "reference": "urn:uuid:17f4a02d-ccf1-4f11-832d-5dd98bfcd768"
                  },
                  {
                    "reference": "urn:uuid:3889e329-59f4-48d4-a56c-25c68d2bd72a"
                  }
                ],
                "text": {
                  "status": "generated",
                  "div": "<div xmlns=\"http://www.w3.org/1999/xhtml\"><h3>Specimen information</h3><table class=\"hl7__eu__lab__report\"><thead><tr><th>Test</th><th>16-APR-2016</th><th>Specimen</th><th></th></tr></thead><tbody><tr><td>Appearance of Urine</td><td>Cloudy urine</td><td>Urine</td><td></td></tr><tr><td>Odor of Urine</td><td>Urine smell ammoniacal</td><td>Urine</td><td></td></tr><tr><td>Clarity of Urine</td><td>Translucent</td><td>Urine</td><td></td></tr><tr><td>Color of Urine</td><td>Brown color</td><td>Urine</td><td></td></tr></tbody></table></div>"
                },
                "title": "Specimen information"
              }
            ],
            "title": "Laboratory Report"
          },
          {
            "text": {
              "status": "generated",
              "div": "<div xmlns=\"http://www.w3.org/1999/xhtml\"><h3>Annotation</h3><table class=\"hl7__eu__lab__report\"><tr><th>Conclusion and Recommendations based on this report and previous findings known to us</th></tr><tr><td>The patient shows markedly elevated serum creatinine, indicating significant renal impairment. Urinalysis reveals proteinuria, glucosuria, ketonuria, and bilirubinuria, with low specific gravity and abnormal urine appearance, suggesting possible nephrotic syndrome or acute kidney injury with tubular dysfunction. No evidence of urinary tract infection. Liver enzymes and electrolytes are within normal limits. Immediate nephrology evaluation is recommended.</td></tr></table></div>"
            },
            "code": {
              "coding": [
                {
                  "system": "http://loinc.org",
                  "code": "48767-8",
                  "display": "Annotation comment"
                }
              ]
            },
            "title": "Annotation comment"
          }
        ],
        "status": "final",
        "subject": {
          "reference": "urn:uuid:0c7efb45-db54-466c-91a2-ba4aad3bb205",
          "display": "Iva Kratochvílová"
        },
        "date": "2016-04-16T16:24:29Z",
        "title": "Laboratory Report",
        "confidentiality": "N"
      }
    },
    {
      "fullUrl": "urn:uuid:b0d031aa-a4d5-4129-87b2-2be7addd318f",
      "resource": {
        "resourceType": "DiagnosticReport",
        "id": "b0d031aa-a4d5-4129-87b2-2be7addd318f",
        "meta": {
          "profile": [
            "http://hl7.eu/fhir/laboratory/StructureDefinition/DiagnosticReport-eu-lab"
          ]
        },
        "identifier": [
          {
            "assigner": {
              "display": "HL7 Europe"
            },
            "system": "urn:oid:2.16.840.1.113883.2.51.999",
            "value": "e640532d-68ad-471f-a494-3024ae252110"
          }
        ],
        "extension": [
          {
            "url": "http://hl7.org/fhir/5.0/StructureDefinition/extension-DiagnosticReport.composition",
            "valueReference": {
              "reference": "urn:uuid:8270a7b1-9549-49da-bca2-127216073bea"
            }
          }
        ],
        "category": [
          {
            "coding": [
              {
                "code": "26436-6",
                "system": "http://loinc.org",
                "display": "Laboratory studies (set)"
              }
            ]
          }
        ],
        "specimen": [
          {
            "reference": "urn:uuid:21d1da3c-8e10-4bfd-89b4-b89d03cc4cbe"
          },
          {
            "reference": "urn:uuid:01fe9977-b628-44a6-9065-906f6f8af8c1"
          },
          {
            "reference": "urn:uuid:f3bdb665-7c35-4a47-909d-2efa4502f983"
          },
          {
            "reference": "urn:uuid:1362aba7-cf98-4ca7-b8ff-fdbdaefa0c85"
          }
        ],
        "result": [
          {
            "reference": "urn:uuid:af8191a7-2d92-4a59-ba94-320d46da144f"
          },
          {
            "reference": "urn:uuid:58241350-ee99-493c-901f-724c5dc1147d"
          },
          {
            "reference": "urn:uuid:031720b3-f7b4-44dc-bcbf-7c686dbec334"
          },
          {
            "reference": "urn:uuid:e8f02402-689d-40e7-95f5-cd4df51acfca"
          },
          {
            "reference": "urn:uuid:ae5f36ca-7014-489c-9855-d98049911109"
          },
          {
            "reference": "urn:uuid:8e1e5ae5-2a1c-4667-a484-771b6c963028"
          },
          {
            "reference": "urn:uuid:a27c119f-8d39-477c-92b3-72aeebbc9c6c"
          },
          {
            "reference": "urn:uuid:1eeb6cb7-62cf-473f-89e7-853b148bfb38"
          },
          {
            "reference": "urn:uuid:8669234e-7cb2-4a52-9743-7157be6802a8"
          },
          {
            "reference": "urn:uuid:e4ba758d-7810-44ab-9ee2-e067437751ab"
          },
          {
            "reference": "urn:uuid:702b9ebb-0a02-4a83-8f55-04b4367cb024"
          },
          {
            "reference": "urn:uuid:5a5673cd-f227-4303-8c44-3b60142d3f12"
          },
          {
            "reference": "urn:uuid:89ada17f-fd20-47cc-9967-30394a962454"
          },
          {
            "reference": "urn:uuid:1dddcff1-54cf-4a34-8653-d2ff588540f8"
          },
          {
            "reference": "urn:uuid:ebf6cf18-1f8c-404c-81d1-e18d85a3931c"
          },
          {
            "reference": "urn:uuid:6017ae85-6dd8-47d0-b5be-bc0308db1e7c"
          },
          {
            "reference": "urn:uuid:8f7f5a94-9a56-4a4c-87a2-ada6cb2ff524"
          },
          {
            "reference": "urn:uuid:17f4a02d-ccf1-4f11-832d-5dd98bfcd768"
          },
          {
            "reference": "urn:uuid:3889e329-59f4-48d4-a56c-25c68d2bd72a"
          },
          {
            "reference": "urn:uuid:ad415b8b-f0a2-417e-aee5-b878ce368bdb"
          },
          {
            "reference": "urn:uuid:dbf5b76a-d54c-43b1-9bad-8085f71ac11b"
          },
          {
            "reference": "urn:uuid:c7867185-374b-445f-ae5e-df873d480ef5"
          },
          {
            "reference": "urn:uuid:aafc4b28-44ce-4746-9afa-ec13c9d8a57b"
          },
          {
            "reference": "urn:uuid:8c18f65a-3492-4fda-87f6-34d50445690e"
          },
          {
            "reference": "urn:uuid:217b463e-a173-4d25-9641-5237c91157d0"
          },
          {
            "reference": "urn:uuid:9a39c59f-a135-4840-8d45-6f428a7d139c"
          },
          {
            "reference": "urn:uuid:4a0fcae8-b980-4f20-af17-6ad21424110e"
          },
          {
            "reference": "urn:uuid:35dcce2b-a9d8-4956-a3d9-69eb4bceef63"
          },
          {
            "reference": "urn:uuid:96e0535e-2d5a-4570-8064-a19d8caa0ed4"
          },
          {
            "reference": "urn:uuid:301b9120-f70e-4ed2-84d6-2cebbb91d613"
          },
          {
            "reference": "urn:uuid:19391d03-c79d-4339-97a9-f76a7dbc1e87"
          },
          {
            "reference": "urn:uuid:0c17ec06-0ece-4f88-8ad5-674c2ff06404"
          }
        ],
        "status": "registered",
        "code": {
          "coding": [
            {
              "code": "11502-2",
              "system": "http://loinc.org",
              "display": "Laboratory report"
            }
          ]
        },
        "subject": {
          "reference": "urn:uuid:0c7efb45-db54-466c-91a2-ba4aad3bb205",
          "display": "Iva Kratochvílová"
        }
      }
    },
    {
      "fullUrl": "urn:uuid:0c7efb45-db54-466c-91a2-ba4aad3bb205",
      "resource": {
        "resourceType": "Patient",
        "id": "0c7efb45-db54-466c-91a2-ba4aad3bb205",
        "meta": {
          "security": [
            {
              "system": "http://terminology.hl7.org/CodeSystem/v3-ActReason",
              "code": "HTEST"
            },
            {
              "system": "http://terminology.hl7.org/CodeSystem/v3-ActReason",
              "code": "TRAIN"
            }
          ],
          "tag": [
            {
              "system": "https://synderai.net/fhir/CodeSystem/tags",
              "code": "synthetic",
              "display": "SYNDERAI Synthetic data"
            }
          ],
          "profile": [
            "http://hl7.eu/fhir/base/StructureDefinition/patient-eu-core"
          ]
        },
        "identifier": [
          {
            "type": {
              "coding": [
                {
                  "code": "PT",
                  "system": "http://terminology.hl7.org/CodeSystem/v2-0203"
                }
              ]
            },
            "system": "http://ec.europa.eu/identifier/eci",
            "value": "4380-389488-0"
          },
          {
            "type": {
              "coding": [
                {
                  "code": "MR",
                  "system": "http://terminology.hl7.org/CodeSystem/v2-0203"
                }
              ]
            },
            "system": "http://local.setting.eu/identifier",
            "value": "f8f9ebdc-03dd-2fc0-819c-affa4ffd7f67"
          }
        ],
        "name": [
          {
            "family": "Kratochvílová"
          },
          {
            "given": [
              "Iva"
            ]
          },
          {
            "text": "Iva Kratochvílová"
          }
        ],
        "address": [
          {
            "line": [
              "Žofie Podlipské 4"
            ],
            "use": "home",
            "type": "physical",
            "postalCode": "27324",
            "city": "Postoloprty",
            "country": "Czechia"
          }
        ],
        "telecom": [
          {
            "system": "phone",
            "value": "00420 607 985 072"
          }
        ],
        "extension": [
          {
            "url": "http://hl7.org/fhir/StructureDefinition/patient-nationality",
            "valueCodeableConcept": {
              "coding": [
                {
                  "code": "CZ",
                  "system": "http://hl7.org/fhir/ValueSet/country"
                }
              ]
            }
          }
        ],
        "text": {
          "status": "generated",
          "div": "<div xmlns=\"http://www.w3.org/1999/xhtml\"><table class=\"hl7__ips\"><tr><td>Iva Kratochvílová</td><td>female</td><td>17-Sep-1964</td></tr></table></div>"
        },
        "gender": "female",
        "birthDate": "1964-09-17"
      }
    },
    {
      "fullUrl": "urn:uuid:c9a29d7a-320e-4cca-bac6-8278dfc4706f",
      "resource": {
        "resourceType": "ServiceRequest",
        "id": "c9a29d7a-320e-4cca-bac6-8278dfc4706f",
        "meta": {
          "profile": [
            "http://hl7.eu/fhir/laboratory/StructureDefinition/ServiceRequest-eu-lab"
          ]
        },
        "identifier": [
          {
            "system": "http://example.org",
            "value": "bf0589f4-e366-4261-80c5-4aee03213c5c"
          }
        ],
        "specimen": [
          {
            "reference": "urn:uuid:21d1da3c-8e10-4bfd-89b4-b89d03cc4cbe"
          },
          {
            "reference": "urn:uuid:01fe9977-b628-44a6-9065-906f6f8af8c1"
          },
          {
            "reference": "urn:uuid:f3bdb665-7c35-4a47-909d-2efa4502f983"
          },
          {
            "reference": "urn:uuid:1362aba7-cf98-4ca7-b8ff-fdbdaefa0c85"
          }
        ],
        "reasonCode": [
          {
            "coding": [
              {
                "code": "431856006",
                "system": "http://snomed.info/sct",
                "display": "Chronic kidney disease stage 2"
              }
            ]
          },
          {
            "coding": [
              {
                "code": "431855005",
                "system": "http://snomed.info/sct",
                "display": "Chronic kidney disease stage 1"
              }
            ]
          },
          {
            "coding": [
              {
                "code": "237602007",
                "system": "http://snomed.info/sct",
                "display": "Metabolic syndrome X"
              }
            ]
          },
          {
            "coding": [
              {
                "code": "91302008",
                "system": "http://snomed.info/sct",
                "display": "Sepsis"
              }
            ]
          },
          {
            "coding": [
              {
                "code": "271737000",
                "system": "http://snomed.info/sct",
                "display": "Anemia"
              }
            ]
          },
          {
            "coding": [
              {
                "code": "15777000",
                "system": "http://snomed.info/sct",
                "display": "Prediabetes"
              }
            ]
          },
          {
            "coding": [
              {
                "code": "157141000119108",
                "system": "http://snomed.info/sct",
                "display": "Proteinuria due to type 2 diabetes mellitus"
              }
            ]
          },
          {
            "coding": [
              {
                "code": "90781000119102",
                "system": "http://snomed.info/sct",
                "display": "Microalbuminuria due to type 2 diabetes mellitus"
              }
            ]
          },
          {
            "coding": [
              {
                "code": "239872002",
                "system": "http://snomed.info/sct",
                "display": "Osteoarthritis of hip"
              }
            ]
          },
          {
            "coding": [
              {
                "code": "40055000",
                "system": "http://snomed.info/sct",
                "display": "Chronic sinusitis"
              }
            ]
          },
          {
            "coding": [
              {
                "code": "127013003",
                "system": "http://snomed.info/sct",
                "display": "Disorder of kidney due to diabetes mellitus"
              }
            ]
          },
          {
            "coding": [
              {
                "code": "59621000",
                "system": "http://snomed.info/sct",
                "display": "Essential hypertension"
              }
            ]
          }
        ],
        "status": "active",
        "intent": "order",
        "code": {
          "coding": [
            {
              "code": "108252007",
              "system": "http://snomed.info/sct",
              "display": "Laboratory procedure"
            }
          ]
        },
        "subject": {
          "reference": "urn:uuid:0c7efb45-db54-466c-91a2-ba4aad3bb205",
          "display": "Iva Kratochvílová"
        },
        "requester": {
          "reference": "urn:uuid:59a7d3a5-4dcf-4232-832e-f52fbc2e222c"
        }
      }
    },
    {
      "fullUrl": "urn:uuid:59a7d3a5-4dcf-4232-832e-f52fbc2e222c",
      "resource": {
        "resourceType": "PractitionerRole",
        "id": "59a7d3a5-4dcf-4232-832e-f52fbc2e222c",
        "meta": {
          "profile": [
            "http://hl7.eu/fhir/base/StructureDefinition/practitionerRole-eu"
          ]
        },
        "text": {
          "status": "generated",
          "div": "<div xmlns=\"http://www.w3.org/1999/xhtml\">Provider Role Id: 59a7d3a5-4dcf-4232-832e-f52fbc2e222c</div>"
        },
        "organization": {
          "reference": "urn:uuid:f53a3344-5e03-44f4-a268-279909c1f1bd"
        }
      }
    },
    {
      "fullUrl": "urn:uuid:f53a3344-5e03-44f4-a268-279909c1f1bd",
      "resource": {
        "resourceType": "Organization",
        "id": "f53a3344-5e03-44f4-a268-279909c1f1bd",
        "meta": {
          "profile": [
            "http://hl7.eu/fhir/base/StructureDefinition/organization-eu"
          ]
        },
        "identifier": [
          {
            "assigner": {
              "display": "HL7 Europe"
            },
            "system": "urn:oid:2.16.840.1.113883.2.51.999",
            "value": "46a866bf-8244-458f-b306-e185b1721eba"
          }
        ],
        "address": [
          {
            "city": "Kadaň",
            "postalCode": "432 01",
            "country": "Czechia"
          }
        ],
        "text": {
          "status": "generated",
          "div": "<div xmlns=\"http://www.w3.org/1999/xhtml\">Provider Organization: Nemocnice s poliklinikou Kadaň</div>"
        },
        "name": "Nemocnice s poliklinikou Kadaň"
      }
    },
    {
      "fullUrl": "urn:uuid:21d1da3c-8e10-4bfd-89b4-b89d03cc4cbe",
      "resource": {
        "resourceType": "Specimen",
        "id": "21d1da3c-8e10-4bfd-89b4-b89d03cc4cbe",
        "meta": {
          "profile": [
            "http://hl7.eu/fhir/laboratory/StructureDefinition/Specimen-eu-lab"
          ]
        },
        "collection": {
          "collectedDateTime": "2016-04-16"
        },
        "text": {
          "status": "generated",
          "div": "<div xmlns=\"http://www.w3.org/1999/xhtml\"><table class=\"hl7__eu__lab__report\"><tr><th>Specimen</th><th>Collection Date</th></tr><tr><td>Whole blood specimen (specimen)</td><td><span class=\"nb\">16-Apr-2016</span></td></tr></table></div>"
        },
        "type": {
          "coding": [
            {
              "code": "258580003",
              "system": "http://snomed.info/sct",
              "display": "Whole blood specimen (specimen)"
            }
          ]
        }
      }
    },
    {
      "fullUrl": "urn:uuid:01fe9977-b628-44a6-9065-906f6f8af8c1",
      "resource": {
        "resourceType": "Specimen",
        "id": "01fe9977-b628-44a6-9065-906f6f8af8c1",
        "meta": {
          "profile": [
            "http://hl7.eu/fhir/laboratory/StructureDefinition/Specimen-eu-lab"
          ]
        },
        "collection": {
          "collectedDateTime": "2016-04-16"
        },
        "text": {
          "status": "generated",
          "div": "<div xmlns=\"http://www.w3.org/1999/xhtml\"><table class=\"hl7__eu__lab__report\"><tr><th>Specimen</th><th>Collection Date</th></tr><tr><td>Acellular blood (serum or plasma) specimen</td><td><span class=\"nb\">16-Apr-2016</span></td></tr></table></div>"
        },
        "type": {
          "coding": [
            {
              "code": "122592007",
              "system": "http://snomed.info/sct",
              "display": "Acellular blood (serum or plasma) specimen"
            }
          ]
        }
      }
    },
    {
      "fullUrl": "urn:uuid:f3bdb665-7c35-4a47-909d-2efa4502f983",
      "resource": {
        "resourceType": "Specimen",
        "id": "f3bdb665-7c35-4a47-909d-2efa4502f983",
        "meta": {
          "profile": [
            "http://hl7.eu/fhir/laboratory/StructureDefinition/Specimen-eu-lab"
          ]
        },
        "collection": {
          "collectedDateTime": "2016-04-16"
        },
        "text": {
          "status": "generated",
          "div": "<div xmlns=\"http://www.w3.org/1999/xhtml\"><table class=\"hl7__eu__lab__report\"><tr><th>Specimen</th><th>Collection Date</th></tr><tr><td>Serum specimen</td><td><span class=\"nb\">16-Apr-2016</span></td></tr></table></div>"
        },
        "type": {
          "coding": [
            {
              "code": "119364003",
              "system": "http://snomed.info/sct",
              "display": "Serum specimen"
            }
          ]
        }
      }
    },
    {
      "fullUrl": "urn:uuid:1362aba7-cf98-4ca7-b8ff-fdbdaefa0c85",
      "resource": {
        "resourceType": "Specimen",
        "id": "1362aba7-cf98-4ca7-b8ff-fdbdaefa0c85",
        "meta": {
          "profile": [
            "http://hl7.eu/fhir/laboratory/StructureDefinition/Specimen-eu-lab"
          ]
        },
        "collection": {
          "collectedDateTime": "2016-04-16"
        },
        "text": {
          "status": "generated",
          "div": "<div xmlns=\"http://www.w3.org/1999/xhtml\"><table class=\"hl7__eu__lab__report\"><tr><th>Specimen</th><th>Collection Date</th></tr><tr><td>Urine specimen</td><td><span class=\"nb\">16-Apr-2016</span></td></tr></table></div>"
        },
        "type": {
          "coding": [
            {
              "code": "122575003",
              "system": "http://snomed.info/sct",
              "display": "Urine specimen"
            }
          ]
        }
      }
    },
    {
      "fullUrl": "urn:uuid:af8191a7-2d92-4a59-ba94-320d46da144f",
      "resource": {
        "resourceType": "Observation",
        "id": "af8191a7-2d92-4a59-ba94-320d46da144f",
        "meta": {
          "profile": [
            "http://hl7.eu/fhir/laboratory/StructureDefinition/Observation-resultslab-eu-lab"
          ]
        },
        "performer": [
          {
            "display": "The Central European Lab"
          }
        ],
        "category": [
          {
            "coding": [
              {
                "system": "http://terminology.hl7.org/CodeSystem/observation-category",
                "code": "laboratory"
              }
            ]
          }
        ],
        "code": {
          "coding": [
            {
              "code": "2339-0",
              "system": "http://loinc.org",
              "display": "Glucose [Mass/volume] in Blood"
            }
          ],
          "text": "Glucose [Mass/volume] in Blood"
        },
        "valueQuantity": {
          "system": "http://unitsofmeasure.org",
          "value": 85.6,
          "unit": "mg/dL",
          "code": "mg/dL"
        },
        "referenceRange": [
          {
            "low": {
              "value": 70,
              "code": "mg/dL",
              "system": "http://unitsofmeasure.org"
            }
          },
          {
            "high": {
              "value": 140,
              "code": "mg/dL",
              "system": "http://unitsofmeasure.org"
            }
          }
        ],
        "text": {
          "status": "generated",
          "div": "<div xmlns=\"http://www.w3.org/1999/xhtml\"><table class=\"hl7__eu__lab__report\"><tr><th>Test</th><th>16-Apr-2016</th><th>Reference&#xA0;Range</th><th>Unit</th></tr><tr><td>Glucose [Mass/volume] in Blood</td><td>85.6</td><td>70 - 140</td><td></td><td>mg/dL</td></tr></table></div>"
        },
        "status": "final",
        "subject": {
          "reference": "urn:uuid:0c7efb45-db54-466c-91a2-ba4aad3bb205",
          "display": "Iva Kratochvílová"
        },
        "effectiveDateTime": "2016-04-16T14:24:29Z",
        "specimen": {
          "reference": "urn:uuid:21d1da3c-8e10-4bfd-89b4-b89d03cc4cbe"
        }
      }
    },
    {
      "fullUrl": "urn:uuid:58241350-ee99-493c-901f-724c5dc1147d",
      "resource": {
        "resourceType": "Observation",
        "id": "58241350-ee99-493c-901f-724c5dc1147d",
        "meta": {
          "profile": [
            "http://hl7.eu/fhir/laboratory/StructureDefinition/Observation-resultslab-eu-lab"
          ]
        },
        "performer": [
          {
            "display": "The Central European Lab"
          }
        ],
        "category": [
          {
            "coding": [
              {
                "system": "http://terminology.hl7.org/CodeSystem/observation-category",
                "code": "laboratory"
              }
            ]
          }
        ],
        "code": {
          "coding": [
            {
              "code": "6299-2",
              "system": "http://loinc.org",
              "display": "Urea nitrogen [Mass/volume] in Blood"
            }
          ],
          "text": "Urea nitrogen [Mass/volume] in Blood"
        },
        "valueQuantity": {
          "system": "http://unitsofmeasure.org",
          "value": 10.4,
          "unit": "mg/dL",
          "code": "mg/dL"
        },
        "referenceRange": [
          {
            "low": {
              "value": 7,
              "code": "mg/dL",
              "system": "http://unitsofmeasure.org"
            }
          },
          {
            "high": {
              "value": 25,
              "code": "mg/dL",
              "system": "http://unitsofmeasure.org"
            }
          }
        ],
        "text": {
          "status": "generated",
          "div": "<div xmlns=\"http://www.w3.org/1999/xhtml\"><table class=\"hl7__eu__lab__report\"><tr><th>Test</th><th>16-Apr-2016</th><th>Reference&#xA0;Range</th><th>Unit</th></tr><tr><td>Urea nitrogen [Mass/volume] in Blood</td><td>10.4</td><td>7 - 25</td><td></td><td>mg/dL</td></tr></table></div>"
        },
        "status": "final",
        "subject": {
          "reference": "urn:uuid:0c7efb45-db54-466c-91a2-ba4aad3bb205",
          "display": "Iva Kratochvílová"
        },
        "effectiveDateTime": "2016-04-16T14:24:29Z",
        "specimen": {
          "reference": "urn:uuid:21d1da3c-8e10-4bfd-89b4-b89d03cc4cbe"
        }
      }
    },
    {
      "fullUrl": "urn:uuid:031720b3-f7b4-44dc-bcbf-7c686dbec334",
      "resource": {
        "resourceType": "Observation",
        "id": "031720b3-f7b4-44dc-bcbf-7c686dbec334",
        "meta": {
          "profile": [
            "http://hl7.eu/fhir/laboratory/StructureDefinition/Observation-resultslab-eu-lab"
          ]
        },
        "performer": [
          {
            "display": "The Central European Lab"
          }
        ],
        "category": [
          {
            "coding": [
              {
                "system": "http://terminology.hl7.org/CodeSystem/observation-category",
                "code": "laboratory"
              }
            ]
          }
        ],
        "code": {
          "coding": [
            {
              "code": "38483-4",
              "system": "http://loinc.org",
              "display": "Creatinine [Mass/volume] in Blood"
            }
          ],
          "text": "Creatinine [Mass/volume] in Blood"
        },
        "valueQuantity": {
          "system": "http://unitsofmeasure.org",
          "value": 3.2,
          "unit": "mg/dL",
          "code": "mg/dL"
        },
        "referenceRange": [
          {
            "low": {
              "value": 0.6,
              "code": "mg/dL",
              "system": "http://unitsofmeasure.org"
            }
          },
          {
            "high": {
              "value": 1.1,
              "code": "mg/dL",
              "system": "http://unitsofmeasure.org"
            }
          }
        ],
        "interpretation": [
          {
            "coding": [
              {
                "code": "H",
                "system": "http://terminology.hl7.org/CodeSystem/v3-ObservationInterpretation",
                "display": "High"
              }
            ]
          }
        ],
        "text": {
          "status": "generated",
          "div": "<div xmlns=\"http://www.w3.org/1999/xhtml\"><table class=\"hl7__eu__lab__report\"><tr><th>Test</th><th>16-Apr-2016</th><th>Reference&#xA0;Range</th><th>Unit</th></tr><tr><td>Creatinine [Mass/volume] in Blood</td><td>3.2</td><td>0.6 - 1.1</td><td>H</td><td>mg/dL</td></tr></table></div>"
        },
        "status": "final",
        "subject": {
          "reference": "urn:uuid:0c7efb45-db54-466c-91a2-ba4aad3bb205",
          "display": "Iva Kratochvílová"
        },
        "effectiveDateTime": "2016-04-16T14:24:29Z",
        "specimen": {
          "reference": "urn:uuid:21d1da3c-8e10-4bfd-89b4-b89d03cc4cbe"
        }
      }
    },
    {
      "fullUrl": "urn:uuid:e8f02402-689d-40e7-95f5-cd4df51acfca",
      "resource": {
        "resourceType": "Observation",
        "id": "e8f02402-689d-40e7-95f5-cd4df51acfca",
        "meta": {
          "profile": [
            "http://hl7.eu/fhir/laboratory/StructureDefinition/Observation-resultslab-eu-lab"
          ]
        },
        "performer": [
          {
            "display": "The Central European Lab"
          }
        ],
        "category": [
          {
            "coding": [
              {
                "system": "http://terminology.hl7.org/CodeSystem/observation-category",
                "code": "laboratory"
              }
            ]
          }
        ],
        "code": {
          "coding": [
            {
              "code": "49765-1",
              "system": "http://loinc.org",
              "display": "Calcium [Mass/volume] in Blood"
            }
          ],
          "text": "Calcium [Mass/volume] in Blood"
        },
        "valueQuantity": {
          "system": "http://unitsofmeasure.org",
          "value": 8.9,
          "unit": "mg/dL",
          "code": "mg/dL"
        },
        "referenceRange": [
          {
            "low": {
              "value": 8.6,
              "code": "mg/dL",
              "system": "http://unitsofmeasure.org"
            }
          },
          {
            "high": {
              "value": 10.4,
              "code": "mg/dL",
              "system": "http://unitsofmeasure.org"
            }
          }
        ],
        "text": {
          "status": "generated",
          "div": "<div xmlns=\"http://www.w3.org/1999/xhtml\"><table class=\"hl7__eu__lab__report\"><tr><th>Test</th><th>16-Apr-2016</th><th>Reference&#xA0;Range</th><th>Unit</th></tr><tr><td>Calcium [Mass/volume] in Blood</td><td>8.9</td><td>8.6 - 10.4</td><td></td><td>mg/dL</td></tr></table></div>"
        },
        "status": "final",
        "subject": {
          "reference": "urn:uuid:0c7efb45-db54-466c-91a2-ba4aad3bb205",
          "display": "Iva Kratochvílová"
        },
        "effectiveDateTime": "2016-04-16T14:24:29Z",
        "specimen": {
          "reference": "urn:uuid:21d1da3c-8e10-4bfd-89b4-b89d03cc4cbe"
        }
      }
    },
    {
      "fullUrl": "urn:uuid:ae5f36ca-7014-489c-9855-d98049911109",
      "resource": {
        "resourceType": "Observation",
        "id": "ae5f36ca-7014-489c-9855-d98049911109",
        "meta": {
          "profile": [
            "http://hl7.eu/fhir/laboratory/StructureDefinition/Observation-resultslab-eu-lab"
          ]
        },
        "performer": [
          {
            "display": "The Central European Lab"
          }
        ],
        "category": [
          {
            "coding": [
              {
                "system": "http://terminology.hl7.org/CodeSystem/observation-category",
                "code": "laboratory"
              }
            ]
          }
        ],
        "code": {
          "coding": [
            {
              "code": "2947-0",
              "system": "http://loinc.org",
              "display": "Sodium [Moles/volume] in Blood"
            }
          ],
          "text": "Sodium [Moles/volume] in Blood"
        },
        "valueQuantity": {
          "system": "http://unitsofmeasure.org",
          "value": 139,
          "unit": "mmol/L",
          "code": "mmol/L"
        },
        "referenceRange": [
          {
            "low": {
              "value": 135,
              "code": "mmol/L",
              "system": "http://unitsofmeasure.org"
            }
          },
          {
            "high": {
              "value": 145,
              "code": "mmol/L",
              "system": "http://unitsofmeasure.org"
            }
          }
        ],
        "text": {
          "status": "generated",
          "div": "<div xmlns=\"http://www.w3.org/1999/xhtml\"><table class=\"hl7__eu__lab__report\"><tr><th>Test</th><th>16-Apr-2016</th><th>Reference&#xA0;Range</th><th>Unit</th></tr><tr><td>Sodium [Moles/volume] in Blood</td><td>139.0</td><td>135 - 145</td><td></td><td>mmol/L</td></tr></table></div>"
        },
        "status": "final",
        "subject": {
          "reference": "urn:uuid:0c7efb45-db54-466c-91a2-ba4aad3bb205",
          "display": "Iva Kratochvílová"
        },
        "effectiveDateTime": "2016-04-16T14:24:29Z",
        "specimen": {
          "reference": "urn:uuid:21d1da3c-8e10-4bfd-89b4-b89d03cc4cbe"
        }
      }
    },
    {
      "fullUrl": "urn:uuid:8e1e5ae5-2a1c-4667-a484-771b6c963028",
      "resource": {
        "resourceType": "Observation",
        "id": "8e1e5ae5-2a1c-4667-a484-771b6c963028",
        "meta": {
          "profile": [
            "http://hl7.eu/fhir/laboratory/StructureDefinition/Observation-resultslab-eu-lab"
          ]
        },
        "performer": [
          {
            "display": "The Central European Lab"
          }
        ],
        "category": [
          {
            "coding": [
              {
                "system": "http://terminology.hl7.org/CodeSystem/observation-category",
                "code": "laboratory"
              }
            ]
          }
        ],
        "code": {
          "coding": [
            {
              "code": "6298-4",
              "system": "http://loinc.org",
              "display": "Potassium [Moles/volume] in Blood"
            }
          ],
          "text": "Potassium [Moles/volume] in Blood"
        },
        "valueQuantity": {
          "system": "http://unitsofmeasure.org",
          "value": 4.9,
          "unit": "mmol/L",
          "code": "mmol/L"
        },
        "referenceRange": [
          {
            "low": {
              "value": 3.5,
              "code": "mmol/L",
              "system": "http://unitsofmeasure.org"
            }
          },
          {
            "high": {
              "value": 5.1,
              "code": "mmol/L",
              "system": "http://unitsofmeasure.org"
            }
          }
        ],
        "text": {
          "status": "generated",
          "div": "<div xmlns=\"http://www.w3.org/1999/xhtml\"><table class=\"hl7__eu__lab__report\"><tr><th>Test</th><th>16-Apr-2016</th><th>Reference&#xA0;Range</th><th>Unit</th></tr><tr><td>Potassium [Moles/volume] in Blood</td><td>4.9</td><td>3.5 - 5.1</td><td></td><td>mmol/L</td></tr></table></div>"
        },
        "status": "final",
        "subject": {
          "reference": "urn:uuid:0c7efb45-db54-466c-91a2-ba4aad3bb205",
          "display": "Iva Kratochvílová"
        },
        "effectiveDateTime": "2016-04-16T14:24:29Z",
        "specimen": {
          "reference": "urn:uuid:21d1da3c-8e10-4bfd-89b4-b89d03cc4cbe"
        }
      }
    },
    {
      "fullUrl": "urn:uuid:a27c119f-8d39-477c-92b3-72aeebbc9c6c",
      "resource": {
        "resourceType": "Observation",
        "id": "a27c119f-8d39-477c-92b3-72aeebbc9c6c",
        "meta": {
          "profile": [
            "http://hl7.eu/fhir/laboratory/StructureDefinition/Observation-resultslab-eu-lab"
          ]
        },
        "performer": [
          {
            "display": "The Central European Lab"
          }
        ],
        "category": [
          {
            "coding": [
              {
                "system": "http://terminology.hl7.org/CodeSystem/observation-category",
                "code": "laboratory"
              }
            ]
          }
        ],
        "code": {
          "coding": [
            {
              "code": "2069-3",
              "system": "http://loinc.org",
              "display": "Chloride [Moles/volume] in Blood"
            }
          ],
          "text": "Chloride [Moles/volume] in Blood"
        },
        "valueQuantity": {
          "system": "http://unitsofmeasure.org",
          "value": 103,
          "unit": "mmol/L",
          "code": "mmol/L"
        },
        "referenceRange": [
          {
            "low": {
              "value": 98,
              "code": "mmol/L",
              "system": "http://unitsofmeasure.org"
            }
          },
          {
            "high": {
              "value": 110,
              "code": "mmol/L",
              "system": "http://unitsofmeasure.org"
            }
          }
        ],
        "text": {
          "status": "generated",
          "div": "<div xmlns=\"http://www.w3.org/1999/xhtml\"><table class=\"hl7__eu__lab__report\"><tr><th>Test</th><th>16-Apr-2016</th><th>Reference&#xA0;Range</th><th>Unit</th></tr><tr><td>Chloride [Moles/volume] in Blood</td><td>103.0</td><td>98 - 110</td><td></td><td>mmol/L</td></tr></table></div>"
        },
        "status": "final",
        "subject": {
          "reference": "urn:uuid:0c7efb45-db54-466c-91a2-ba4aad3bb205",
          "display": "Iva Kratochvílová"
        },
        "effectiveDateTime": "2016-04-16T14:24:29Z",
        "specimen": {
          "reference": "urn:uuid:21d1da3c-8e10-4bfd-89b4-b89d03cc4cbe"
        }
      }
    },
    {
      "fullUrl": "urn:uuid:1eeb6cb7-62cf-473f-89e7-853b148bfb38",
      "resource": {
        "resourceType": "Observation",
        "id": "1eeb6cb7-62cf-473f-89e7-853b148bfb38",
        "meta": {
          "profile": [
            "http://hl7.eu/fhir/laboratory/StructureDefinition/Observation-resultslab-eu-lab"
          ]
        },
        "performer": [
          {
            "display": "The Central European Lab"
          }
        ],
        "category": [
          {
            "coding": [
              {
                "system": "http://terminology.hl7.org/CodeSystem/observation-category",
                "code": "laboratory"
              }
            ]
          }
        ],
        "code": {
          "coding": [
            {
              "code": "20565-8",
              "system": "http://loinc.org",
              "display": "Carbon dioxide, total [Moles/volume] in Blood"
            }
          ],
          "text": "Carbon dioxide, total [Moles/volume] in Blood"
        },
        "valueQuantity": {
          "system": "http://unitsofmeasure.org",
          "value": 24.2,
          "unit": "mmol/L",
          "code": "mmol/L"
        },
        "referenceRange": [
          {
            "low": {
              "value": 22,
              "code": "mmol/L",
              "system": "http://unitsofmeasure.org"
            }
          },
          {
            "high": {
              "value": 29,
              "code": "mmol/L",
              "system": "http://unitsofmeasure.org"
            }
          }
        ],
        "text": {
          "status": "generated",
          "div": "<div xmlns=\"http://www.w3.org/1999/xhtml\"><table class=\"hl7__eu__lab__report\"><tr><th>Test</th><th>16-Apr-2016</th><th>Reference&#xA0;Range</th><th>Unit</th></tr><tr><td>Carbon dioxide, total [Moles/volume] in Blood</td><td>24.2</td><td>22 - 29</td><td></td><td>mmol/L</td></tr></table></div>"
        },
        "status": "final",
        "subject": {
          "reference": "urn:uuid:0c7efb45-db54-466c-91a2-ba4aad3bb205",
          "display": "Iva Kratochvílová"
        },
        "effectiveDateTime": "2016-04-16T14:24:29Z",
        "specimen": {
          "reference": "urn:uuid:21d1da3c-8e10-4bfd-89b4-b89d03cc4cbe"
        }
      }
    },
    {
      "fullUrl": "urn:uuid:8669234e-7cb2-4a52-9743-7157be6802a8",
      "resource": {
        "resourceType": "Observation",
        "id": "8669234e-7cb2-4a52-9743-7157be6802a8",
        "meta": {
          "profile": [
            "http://hl7.eu/fhir/laboratory/StructureDefinition/Observation-resultslab-eu-lab"
          ]
        },
        "performer": [
          {
            "display": "The Central European Lab"
          }
        ],
        "category": [
          {
            "coding": [
              {
                "system": "http://terminology.hl7.org/CodeSystem/observation-category",
                "code": "laboratory"
              }
            ]
          }
        ],
        "code": {
          "coding": [
            {
              "code": "2885-2",
              "system": "http://loinc.org",
              "display": "Protein [Mass/volume] in Serum or Plasma"
            }
          ],
          "text": "Protein [Mass/volume] in Serum or Plasma"
        },
        "valueQuantity": {
          "system": "http://unitsofmeasure.org",
          "value": 7.8,
          "unit": "g/dL",
          "code": "g/dL"
        },
        "referenceRange": [
          {
            "low": {
              "value": 6.6,
              "code": "g/dL",
              "system": "http://unitsofmeasure.org"
            }
          },
          {
            "high": {
              "value": 8.3,
              "code": "g/dL",
              "system": "http://unitsofmeasure.org"
            }
          }
        ],
        "text": {
          "status": "generated",
          "div": "<div xmlns=\"http://www.w3.org/1999/xhtml\"><table class=\"hl7__eu__lab__report\"><tr><th>Test</th><th>16-Apr-2016</th><th>Reference&#xA0;Range</th><th>Unit</th></tr><tr><td>Protein [Mass/volume] in Serum or Plasma</td><td>7.8</td><td>6.6 - 8.3</td><td></td><td>g/dL</td></tr></table></div>"
        },
        "status": "final",
        "subject": {
          "reference": "urn:uuid:0c7efb45-db54-466c-91a2-ba4aad3bb205",
          "display": "Iva Kratochvílová"
        },
        "effectiveDateTime": "2016-04-16T14:24:29Z",
        "specimen": {
          "reference": "urn:uuid:01fe9977-b628-44a6-9065-906f6f8af8c1"
        }
      }
    },
    {
      "fullUrl": "urn:uuid:e4ba758d-7810-44ab-9ee2-e067437751ab",
      "resource": {
        "resourceType": "Observation",
        "id": "e4ba758d-7810-44ab-9ee2-e067437751ab",
        "meta": {
          "profile": [
            "http://hl7.eu/fhir/laboratory/StructureDefinition/Observation-resultslab-eu-lab"
          ]
        },
        "performer": [
          {
            "display": "The Central European Lab"
          }
        ],
        "category": [
          {
            "coding": [
              {
                "system": "http://terminology.hl7.org/CodeSystem/observation-category",
                "code": "laboratory"
              }
            ]
          }
        ],
        "code": {
          "coding": [
            {
              "code": "1751-7",
              "system": "http://loinc.org",
              "display": "Albumin [Mass/volume] in Serum or Plasma"
            }
          ],
          "text": "Albumin [Mass/volume] in Serum or Plasma"
        },
        "valueQuantity": {
          "system": "http://unitsofmeasure.org",
          "value": 4.3,
          "unit": "g/dL",
          "code": "g/dL"
        },
        "referenceRange": [
          {
            "low": {
              "value": 3.5,
              "code": "g/dL",
              "system": "http://unitsofmeasure.org"
            }
          },
          {
            "high": {
              "value": 5,
              "code": "g/dL",
              "system": "http://unitsofmeasure.org"
            }
          }
        ],
        "text": {
          "status": "generated",
          "div": "<div xmlns=\"http://www.w3.org/1999/xhtml\"><table class=\"hl7__eu__lab__report\"><tr><th>Test</th><th>16-Apr-2016</th><th>Reference&#xA0;Range</th><th>Unit</th></tr><tr><td>Albumin [Mass/volume] in Serum or Plasma</td><td>4.3</td><td>3.5 - 5</td><td></td><td>g/dL</td></tr></table></div>"
        },
        "status": "final",
        "subject": {
          "reference": "urn:uuid:0c7efb45-db54-466c-91a2-ba4aad3bb205",
          "display": "Iva Kratochvílová"
        },
        "effectiveDateTime": "2016-04-16T14:24:29Z",
        "specimen": {
          "reference": "urn:uuid:01fe9977-b628-44a6-9065-906f6f8af8c1"
        }
      }
    },
    {
      "fullUrl": "urn:uuid:702b9ebb-0a02-4a83-8f55-04b4367cb024",
      "resource": {
        "resourceType": "Observation",
        "id": "702b9ebb-0a02-4a83-8f55-04b4367cb024",
        "meta": {
          "profile": [
            "http://hl7.eu/fhir/laboratory/StructureDefinition/Observation-resultslab-eu-lab"
          ]
        },
        "performer": [
          {
            "display": "The Central European Lab"
          }
        ],
        "category": [
          {
            "coding": [
              {
                "system": "http://terminology.hl7.org/CodeSystem/observation-category",
                "code": "laboratory"
              }
            ]
          }
        ],
        "code": {
          "coding": [
            {
              "code": "10834-0",
              "system": "http://loinc.org",
              "display": "Globulin [Mass/volume] in Serum by calculation"
            }
          ],
          "text": "Globulin [Mass/volume] in Serum by calculation"
        },
        "valueQuantity": {
          "system": "http://unitsofmeasure.org",
          "value": 2.1,
          "unit": "g/L",
          "code": "g/L"
        },
        "referenceRange": [
          {
            "low": {
              "value": 2,
              "code": "g/L",
              "system": "http://unitsofmeasure.org"
            }
          },
          {
            "high": {
              "value": 3.5,
              "code": "g/L",
              "system": "http://unitsofmeasure.org"
            }
          }
        ],
        "text": {
          "status": "generated",
          "div": "<div xmlns=\"http://www.w3.org/1999/xhtml\"><table class=\"hl7__eu__lab__report\"><tr><th>Test</th><th>16-Apr-2016</th><th>Reference&#xA0;Range</th><th>Unit</th></tr><tr><td>Globulin [Mass/volume] in Serum by calculation</td><td>2.1</td><td>2 - 3.5</td><td></td><td>g/L</td></tr></table></div>"
        },
        "status": "final",
        "subject": {
          "reference": "urn:uuid:0c7efb45-db54-466c-91a2-ba4aad3bb205",
          "display": "Iva Kratochvílová"
        },
        "effectiveDateTime": "2016-04-16T14:24:29Z",
        "specimen": {
          "reference": "urn:uuid:f3bdb665-7c35-4a47-909d-2efa4502f983"
        }
      }
    },
    {
      "fullUrl": "urn:uuid:5a5673cd-f227-4303-8c44-3b60142d3f12",
      "resource": {
        "resourceType": "Observation",
        "id": "5a5673cd-f227-4303-8c44-3b60142d3f12",
        "meta": {
          "profile": [
            "http://hl7.eu/fhir/laboratory/StructureDefinition/Observation-resultslab-eu-lab"
          ]
        },
        "performer": [
          {
            "display": "The Central European Lab"
          }
        ],
        "category": [
          {
            "coding": [
              {
                "system": "http://terminology.hl7.org/CodeSystem/observation-category",
                "code": "laboratory"
              }
            ]
          }
        ],
        "code": {
          "coding": [
            {
              "code": "1975-2",
              "system": "http://loinc.org",
              "display": "Bilirubin.total [Mass/volume] in Serum or Plasma"
            }
          ],
          "text": "Bilirubin.total [Mass/volume] in Serum or Plasma"
        },
        "valueQuantity": {
          "system": "http://unitsofmeasure.org",
          "value": 0.2,
          "unit": "mg/dL",
          "code": "mg/dL"
        },
        "referenceRange": [
          {
            "low": {
              "value": 0.3,
              "code": "mg/dL",
              "system": "http://unitsofmeasure.org"
            }
          },
          {
            "high": {
              "value": 1.2,
              "code": "mg/dL",
              "system": "http://unitsofmeasure.org"
            }
          }
        ],
        "interpretation": [
          {
            "coding": [
              {
                "code": "L",
                "system": "http://terminology.hl7.org/CodeSystem/v3-ObservationInterpretation",
                "display": "Low"
              }
            ]
          }
        ],
        "text": {
          "status": "generated",
          "div": "<div xmlns=\"http://www.w3.org/1999/xhtml\"><table class=\"hl7__eu__lab__report\"><tr><th>Test</th><th>16-Apr-2016</th><th>Reference&#xA0;Range</th><th>Unit</th></tr><tr><td>Bilirubin.total [Mass/volume] in Serum or Plasma</td><td>0.2</td><td>0.3 - 1.2</td><td>L</td><td>mg/dL</td></tr></table></div>"
        },
        "status": "final",
        "subject": {
          "reference": "urn:uuid:0c7efb45-db54-466c-91a2-ba4aad3bb205",
          "display": "Iva Kratochvílová"
        },
        "effectiveDateTime": "2016-04-16T14:24:29Z",
        "specimen": {
          "reference": "urn:uuid:01fe9977-b628-44a6-9065-906f6f8af8c1"
        }
      }
    },
    {
      "fullUrl": "urn:uuid:89ada17f-fd20-47cc-9967-30394a962454",
      "resource": {
        "resourceType": "Observation",
        "id": "89ada17f-fd20-47cc-9967-30394a962454",
        "meta": {
          "profile": [
            "http://hl7.eu/fhir/laboratory/StructureDefinition/Observation-resultslab-eu-lab"
          ]
        },
        "performer": [
          {
            "display": "The Central European Lab"
          }
        ],
        "category": [
          {
            "coding": [
              {
                "system": "http://terminology.hl7.org/CodeSystem/observation-category",
                "code": "laboratory"
              }
            ]
          }
        ],
        "code": {
          "coding": [
            {
              "code": "6768-6",
              "system": "http://loinc.org",
              "display": "Alkaline phosphatase [Enzymatic activity/volume] in Serum or Plasma"
            }
          ],
          "text": "Alkaline phosphatase [Enzymatic activity/volume] in Serum or Plasma"
        },
        "valueQuantity": {
          "system": "http://unitsofmeasure.org",
          "value": 62.1,
          "unit": "U/L",
          "code": "U/L"
        },
        "referenceRange": [
          {
            "low": {
              "value": 39,
              "code": "U/L",
              "system": "http://unitsofmeasure.org"
            }
          },
          {
            "high": {
              "value": 141,
              "code": "U/L",
              "system": "http://unitsofmeasure.org"
            }
          }
        ],
        "text": {
          "status": "generated",
          "div": "<div xmlns=\"http://www.w3.org/1999/xhtml\"><table class=\"hl7__eu__lab__report\"><tr><th>Test</th><th>16-Apr-2016</th><th>Reference&#xA0;Range</th><th>Unit</th></tr><tr><td>Alkaline phosphatase [Enzymatic activity/volume] in Serum or Plasma</td><td>62.1</td><td>39 - 141</td><td></td><td>U/L</td></tr></table></div>"
        },
        "status": "final",
        "subject": {
          "reference": "urn:uuid:0c7efb45-db54-466c-91a2-ba4aad3bb205",
          "display": "Iva Kratochvílová"
        },
        "effectiveDateTime": "2016-04-16T14:24:29Z",
        "specimen": {
          "reference": "urn:uuid:01fe9977-b628-44a6-9065-906f6f8af8c1"
        }
      }
    },
    {
      "fullUrl": "urn:uuid:1dddcff1-54cf-4a34-8653-d2ff588540f8",
      "resource": {
        "resourceType": "Observation",
        "id": "1dddcff1-54cf-4a34-8653-d2ff588540f8",
        "meta": {
          "profile": [
            "http://hl7.eu/fhir/laboratory/StructureDefinition/Observation-resultslab-eu-lab"
          ]
        },
        "performer": [
          {
            "display": "The Central European Lab"
          }
        ],
        "category": [
          {
            "coding": [
              {
                "system": "http://terminology.hl7.org/CodeSystem/observation-category",
                "code": "laboratory"
              }
            ]
          }
        ],
        "code": {
          "coding": [
            {
              "code": "1742-6",
              "system": "http://loinc.org",
              "display": "Alanine aminotransferase [Enzymatic activity/volume] in Serum or Plasma"
            }
          ],
          "text": "Alanine aminotransferase [Enzymatic activity/volume] in Serum or Plasma"
        },
        "valueQuantity": {
          "system": "http://unitsofmeasure.org",
          "value": 36,
          "unit": "U/L",
          "code": "U/L"
        },
        "referenceRange": [
          {
            "low": {
              "value": 7,
              "code": "U/L",
              "system": "http://unitsofmeasure.org"
            }
          },
          {
            "high": {
              "value": 40,
              "code": "U/L",
              "system": "http://unitsofmeasure.org"
            }
          }
        ],
        "text": {
          "status": "generated",
          "div": "<div xmlns=\"http://www.w3.org/1999/xhtml\"><table class=\"hl7__eu__lab__report\"><tr><th>Test</th><th>16-Apr-2016</th><th>Reference&#xA0;Range</th><th>Unit</th></tr><tr><td>Alanine aminotransferase [Enzymatic activity/volume] in Serum or Plasma</td><td>36.0</td><td>7 - 40</td><td></td><td>U/L</td></tr></table></div>"
        },
        "status": "final",
        "subject": {
          "reference": "urn:uuid:0c7efb45-db54-466c-91a2-ba4aad3bb205",
          "display": "Iva Kratochvílová"
        },
        "effectiveDateTime": "2016-04-16T14:24:29Z",
        "specimen": {
          "reference": "urn:uuid:01fe9977-b628-44a6-9065-906f6f8af8c1"
        }
      }
    },
    {
      "fullUrl": "urn:uuid:ebf6cf18-1f8c-404c-81d1-e18d85a3931c",
      "resource": {
        "resourceType": "Observation",
        "id": "ebf6cf18-1f8c-404c-81d1-e18d85a3931c",
        "meta": {
          "profile": [
            "http://hl7.eu/fhir/laboratory/StructureDefinition/Observation-resultslab-eu-lab"
          ]
        },
        "performer": [
          {
            "display": "The Central European Lab"
          }
        ],
        "category": [
          {
            "coding": [
              {
                "system": "http://terminology.hl7.org/CodeSystem/observation-category",
                "code": "laboratory"
              }
            ]
          }
        ],
        "code": {
          "coding": [
            {
              "code": "1920-8",
              "system": "http://loinc.org",
              "display": "Aspartate aminotransferase [Enzymatic activity/volume] in Serum or Plasma"
            }
          ],
          "text": "Aspartate aminotransferase [Enzymatic activity/volume] in Serum or Plasma"
        },
        "valueQuantity": {
          "system": "http://unitsofmeasure.org",
          "value": 11.8,
          "unit": "U/L",
          "code": "U/L"
        },
        "referenceRange": [
          {
            "low": {
              "value": 10,
              "code": "U/L",
              "system": "http://unitsofmeasure.org"
            }
          },
          {
            "high": {
              "value": 32,
              "code": "U/L",
              "system": "http://unitsofmeasure.org"
            }
          }
        ],
        "text": {
          "status": "generated",
          "div": "<div xmlns=\"http://www.w3.org/1999/xhtml\"><table class=\"hl7__eu__lab__report\"><tr><th>Test</th><th>16-Apr-2016</th><th>Reference&#xA0;Range</th><th>Unit</th></tr><tr><td>Aspartate aminotransferase [Enzymatic activity/volume] in Serum or Plasma</td><td>11.8</td><td>10 - 32</td><td></td><td>U/L</td></tr></table></div>"
        },
        "status": "final",
        "subject": {
          "reference": "urn:uuid:0c7efb45-db54-466c-91a2-ba4aad3bb205",
          "display": "Iva Kratochvílová"
        },
        "effectiveDateTime": "2016-04-16T14:24:29Z",
        "specimen": {
          "reference": "urn:uuid:01fe9977-b628-44a6-9065-906f6f8af8c1"
        }
      }
    },
    {
      "fullUrl": "urn:uuid:6017ae85-6dd8-47d0-b5be-bc0308db1e7c",
      "resource": {
        "resourceType": "Observation",
        "id": "6017ae85-6dd8-47d0-b5be-bc0308db1e7c",
        "meta": {
          "profile": [
            "http://hl7.eu/fhir/laboratory/StructureDefinition/Observation-resultslab-eu-lab"
          ]
        },
        "performer": [
          {
            "display": "The Central European Lab"
          }
        ],
        "category": [
          {
            "coding": [
              {
                "system": "http://terminology.hl7.org/CodeSystem/observation-category",
                "code": "laboratory"
              }
            ]
          }
        ],
        "code": {
          "coding": [
            {
              "code": "5767-9",
              "system": "http://loinc.org",
              "display": "Appearance of Urine"
            }
          ],
          "text": "Appearance of Urine"
        },
        "text": {
          "status": "generated",
          "div": "<div xmlns=\"http://www.w3.org/1999/xhtml\"><table class=\"hl7__eu__lab__report\"><tr><th>Test</th><th>16-Apr-2016</th><th>Reference&#xA0;Range</th><th>Unit</th></tr><tr><td>Appearance of Urine</td></tr></table></div>"
        },
        "status": "final",
        "subject": {
          "reference": "urn:uuid:0c7efb45-db54-466c-91a2-ba4aad3bb205",
          "display": "Iva Kratochvílová"
        },
        "effectiveDateTime": "2016-04-16T14:24:29Z",
        "specimen": {
          "reference": "urn:uuid:1362aba7-cf98-4ca7-b8ff-fdbdaefa0c85"
        }
      }
    },
    {
      "fullUrl": "urn:uuid:8f7f5a94-9a56-4a4c-87a2-ada6cb2ff524",
      "resource": {
        "resourceType": "Observation",
        "id": "8f7f5a94-9a56-4a4c-87a2-ada6cb2ff524",
        "meta": {
          "profile": [
            "http://hl7.eu/fhir/laboratory/StructureDefinition/Observation-resultslab-eu-lab"
          ]
        },
        "performer": [
          {
            "display": "The Central European Lab"
          }
        ],
        "category": [
          {
            "coding": [
              {
                "system": "http://terminology.hl7.org/CodeSystem/observation-category",
                "code": "laboratory"
              }
            ]
          }
        ],
        "code": {
          "coding": [
            {
              "code": "34533-0",
              "system": "http://loinc.org",
              "display": "Odor of Urine"
            }
          ],
          "text": "Odor of Urine"
        },
        "text": {
          "status": "generated",
          "div": "<div xmlns=\"http://www.w3.org/1999/xhtml\"><table class=\"hl7__eu__lab__report\"><tr><th>Test</th><th>16-Apr-2016</th><th>Reference&#xA0;Range</th><th>Unit</th></tr><tr><td>Odor of Urine</td></tr></table></div>"
        },
        "status": "final",
        "subject": {
          "reference": "urn:uuid:0c7efb45-db54-466c-91a2-ba4aad3bb205",
          "display": "Iva Kratochvílová"
        },
        "effectiveDateTime": "2016-04-16T14:24:29Z",
        "specimen": {
          "reference": "urn:uuid:1362aba7-cf98-4ca7-b8ff-fdbdaefa0c85"
        }
      }
    },
    {
      "fullUrl": "urn:uuid:17f4a02d-ccf1-4f11-832d-5dd98bfcd768",
      "resource": {
        "resourceType": "Observation",
        "id": "17f4a02d-ccf1-4f11-832d-5dd98bfcd768",
        "meta": {
          "profile": [
            "http://hl7.eu/fhir/laboratory/StructureDefinition/Observation-resultslab-eu-lab"
          ]
        },
        "performer": [
          {
            "display": "The Central European Lab"
          }
        ],
        "category": [
          {
            "coding": [
              {
                "system": "http://terminology.hl7.org/CodeSystem/observation-category",
                "code": "laboratory"
              }
            ]
          }
        ],
        "code": {
          "coding": [
            {
              "code": "32167-9",
              "system": "http://loinc.org",
              "display": "Clarity of Urine"
            }
          ],
          "text": "Clarity of Urine"
        },
        "text": {
          "status": "generated",
          "div": "<div xmlns=\"http://www.w3.org/1999/xhtml\"><table class=\"hl7__eu__lab__report\"><tr><th>Test</th><th>16-Apr-2016</th><th>Reference&#xA0;Range</th><th>Unit</th></tr><tr><td>Clarity of Urine</td></tr></table></div>"
        },
        "status": "final",
        "subject": {
          "reference": "urn:uuid:0c7efb45-db54-466c-91a2-ba4aad3bb205",
          "display": "Iva Kratochvílová"
        },
        "effectiveDateTime": "2016-04-16T14:24:29Z",
        "specimen": {
          "reference": "urn:uuid:1362aba7-cf98-4ca7-b8ff-fdbdaefa0c85"
        }
      }
    },
    {
      "fullUrl": "urn:uuid:3889e329-59f4-48d4-a56c-25c68d2bd72a",
      "resource": {
        "resourceType": "Observation",
        "id": "3889e329-59f4-48d4-a56c-25c68d2bd72a",
        "meta": {
          "profile": [
            "http://hl7.eu/fhir/laboratory/StructureDefinition/Observation-resultslab-eu-lab"
          ]
        },
        "performer": [
          {
            "display": "The Central European Lab"
          }
        ],
        "category": [
          {
            "coding": [
              {
                "system": "http://terminology.hl7.org/CodeSystem/observation-category",
                "code": "laboratory"
              }
            ]
          }
        ],
        "code": {
          "coding": [
            {
              "code": "5778-6",
              "system": "http://loinc.org",
              "display": "Color of Urine"
            }
          ],
          "text": "Color of Urine"
        },
        "text": {
          "status": "generated",
          "div": "<div xmlns=\"http://www.w3.org/1999/xhtml\"><table class=\"hl7__eu__lab__report\"><tr><th>Test</th><th>16-Apr-2016</th><th>Reference&#xA0;Range</th><th>Unit</th></tr><tr><td>Color of Urine</td></tr></table></div>"
        },
        "status": "final",
        "subject": {
          "reference": "urn:uuid:0c7efb45-db54-466c-91a2-ba4aad3bb205",
          "display": "Iva Kratochvílová"
        },
        "effectiveDateTime": "2016-04-16T14:24:29Z",
        "specimen": {
          "reference": "urn:uuid:1362aba7-cf98-4ca7-b8ff-fdbdaefa0c85"
        }
      }
    },
    {
      "fullUrl": "urn:uuid:ad415b8b-f0a2-417e-aee5-b878ce368bdb",
      "resource": {
        "resourceType": "Observation",
        "id": "ad415b8b-f0a2-417e-aee5-b878ce368bdb",
        "meta": {
          "profile": [
            "http://hl7.eu/fhir/laboratory/StructureDefinition/Observation-resultslab-eu-lab"
          ]
        },
        "performer": [
          {
            "display": "The Central European Lab"
          }
        ],
        "category": [
          {
            "coding": [
              {
                "system": "http://terminology.hl7.org/CodeSystem/observation-category",
                "code": "laboratory"
              }
            ]
          }
        ],
        "code": {
          "coding": [
            {
              "code": "5792-7",
              "system": "http://loinc.org",
              "display": "Glucose [Mass/volume] in Urine by Test strip"
            }
          ],
          "text": "Glucose [Mass/volume] in Urine by Test strip"
        },
        "valueQuantity": {
          "system": "http://unitsofmeasure.org",
          "value": 2.3,
          "unit": "mg/dL",
          "code": "mg/dL"
        },
        "referenceRange": [
          {
            "low": {
              "value": 0,
              "code": "mg/dL",
              "system": "http://unitsofmeasure.org"
            }
          },
          {
            "high": {
              "value": 0.8,
              "code": "mg/dL",
              "system": "http://unitsofmeasure.org"
            }
          }
        ],
        "interpretation": [
          {
            "coding": [
              {
                "code": "H",
                "system": "http://terminology.hl7.org/CodeSystem/v3-ObservationInterpretation",
                "display": "High"
              }
            ]
          }
        ],
        "text": {
          "status": "generated",
          "div": "<div xmlns=\"http://www.w3.org/1999/xhtml\"><table class=\"hl7__eu__lab__report\"><tr><th>Test</th><th>16-Apr-2016</th><th>Reference&#xA0;Range</th><th>Unit</th></tr><tr><td>Glucose [Mass/volume] in Urine by Test strip</td><td>2.3</td><td>0 - 0.8</td><td>H</td><td>mg/dL</td></tr></table></div>"
        },
        "status": "final",
        "subject": {
          "reference": "urn:uuid:0c7efb45-db54-466c-91a2-ba4aad3bb205",
          "display": "Iva Kratochvílová"
        },
        "effectiveDateTime": "2016-04-16T14:24:29Z",
        "specimen": {
          "reference": "urn:uuid:1362aba7-cf98-4ca7-b8ff-fdbdaefa0c85"
        }
      }
    },
    {
      "fullUrl": "urn:uuid:dbf5b76a-d54c-43b1-9bad-8085f71ac11b",
      "resource": {
        "resourceType": "Observation",
        "id": "dbf5b76a-d54c-43b1-9bad-8085f71ac11b",
        "meta": {
          "profile": [
            "http://hl7.eu/fhir/laboratory/StructureDefinition/Observation-resultslab-eu-lab"
          ]
        },
        "performer": [
          {
            "display": "The Central European Lab"
          }
        ],
        "category": [
          {
            "coding": [
              {
                "system": "http://terminology.hl7.org/CodeSystem/observation-category",
                "code": "laboratory"
              }
            ]
          }
        ],
        "code": {
          "coding": [
            {
              "code": "25428-4",
              "system": "http://loinc.org",
              "display": "Glucose [Presence] in Urine by Test strip"
            }
          ],
          "text": "Glucose [Presence] in Urine by Test strip"
        },
        "text": {
          "status": "generated",
          "div": "<div xmlns=\"http://www.w3.org/1999/xhtml\"><table class=\"hl7__eu__lab__report\"><tr><th>Test</th><th>16-Apr-2016</th><th>Reference&#xA0;Range</th><th>Unit</th></tr><tr><td>Glucose [Presence] in Urine by Test strip</td></tr></table></div>"
        },
        "status": "final",
        "subject": {
          "reference": "urn:uuid:0c7efb45-db54-466c-91a2-ba4aad3bb205",
          "display": "Iva Kratochvílová"
        },
        "effectiveDateTime": "2016-04-16T14:24:29Z",
        "specimen": {
          "reference": "urn:uuid:1362aba7-cf98-4ca7-b8ff-fdbdaefa0c85"
        }
      }
    },
    {
      "fullUrl": "urn:uuid:c7867185-374b-445f-ae5e-df873d480ef5",
      "resource": {
        "resourceType": "Observation",
        "id": "c7867185-374b-445f-ae5e-df873d480ef5",
        "meta": {
          "profile": [
            "http://hl7.eu/fhir/laboratory/StructureDefinition/Observation-resultslab-eu-lab"
          ]
        },
        "performer": [
          {
            "display": "The Central European Lab"
          }
        ],
        "category": [
          {
            "coding": [
              {
                "system": "http://terminology.hl7.org/CodeSystem/observation-category",
                "code": "laboratory"
              }
            ]
          }
        ],
        "code": {
          "coding": [
            {
              "code": "20505-4",
              "system": "http://loinc.org",
              "display": "Bilirubin.total [Mass/volume] in Urine by Test strip"
            }
          ],
          "text": "Bilirubin.total [Mass/volume] in Urine by Test strip"
        },
        "valueQuantity": {
          "system": "http://unitsofmeasure.org",
          "value": 1.5,
          "unit": "mg/dL",
          "code": "mg/dL"
        },
        "referenceRange": [
          {
            "low": {
              "value": 0,
              "code": "mg/dL",
              "system": "http://unitsofmeasure.org"
            }
          },
          {
            "high": {
              "value": 1,
              "code": "mg/dL",
              "system": "http://unitsofmeasure.org"
            }
          }
        ],
        "interpretation": [
          {
            "coding": [
              {
                "code": "H",
                "system": "http://terminology.hl7.org/CodeSystem/v3-ObservationInterpretation",
                "display": "High"
              }
            ]
          }
        ],
        "text": {
          "status": "generated",
          "div": "<div xmlns=\"http://www.w3.org/1999/xhtml\"><table class=\"hl7__eu__lab__report\"><tr><th>Test</th><th>16-Apr-2016</th><th>Reference&#xA0;Range</th><th>Unit</th></tr><tr><td>Bilirubin.total [Mass/volume] in Urine by Test strip</td><td>1.5</td><td>0 - 1</td><td>H</td><td>mg/dL</td></tr></table></div>"
        },
        "status": "final",
        "subject": {
          "reference": "urn:uuid:0c7efb45-db54-466c-91a2-ba4aad3bb205",
          "display": "Iva Kratochvílová"
        },
        "effectiveDateTime": "2016-04-16T14:24:29Z",
        "specimen": {
          "reference": "urn:uuid:1362aba7-cf98-4ca7-b8ff-fdbdaefa0c85"
        }
      }
    },
    {
      "fullUrl": "urn:uuid:aafc4b28-44ce-4746-9afa-ec13c9d8a57b",
      "resource": {
        "resourceType": "Observation",
        "id": "aafc4b28-44ce-4746-9afa-ec13c9d8a57b",
        "meta": {
          "profile": [
            "http://hl7.eu/fhir/laboratory/StructureDefinition/Observation-resultslab-eu-lab"
          ]
        },
        "performer": [
          {
            "display": "The Central European Lab"
          }
        ],
        "category": [
          {
            "coding": [
              {
                "system": "http://terminology.hl7.org/CodeSystem/observation-category",
                "code": "laboratory"
              }
            ]
          }
        ],
        "code": {
          "coding": [
            {
              "code": "5770-3",
              "system": "http://loinc.org",
              "display": "Bilirubin.total [Presence] in Urine by Test strip"
            }
          ],
          "text": "Bilirubin.total [Presence] in Urine by Test strip"
        },
        "text": {
          "status": "generated",
          "div": "<div xmlns=\"http://www.w3.org/1999/xhtml\"><table class=\"hl7__eu__lab__report\"><tr><th>Test</th><th>16-Apr-2016</th><th>Reference&#xA0;Range</th><th>Unit</th></tr><tr><td>Bilirubin.total [Presence] in Urine by Test strip</td></tr></table></div>"
        },
        "status": "final",
        "subject": {
          "reference": "urn:uuid:0c7efb45-db54-466c-91a2-ba4aad3bb205",
          "display": "Iva Kratochvílová"
        },
        "effectiveDateTime": "2016-04-16T14:24:29Z",
        "specimen": {
          "reference": "urn:uuid:1362aba7-cf98-4ca7-b8ff-fdbdaefa0c85"
        }
      }
    },
    {
      "fullUrl": "urn:uuid:8c18f65a-3492-4fda-87f6-34d50445690e",
      "resource": {
        "resourceType": "Observation",
        "id": "8c18f65a-3492-4fda-87f6-34d50445690e",
        "meta": {
          "profile": [
            "http://hl7.eu/fhir/laboratory/StructureDefinition/Observation-resultslab-eu-lab"
          ]
        },
        "performer": [
          {
            "display": "The Central European Lab"
          }
        ],
        "category": [
          {
            "coding": [
              {
                "system": "http://terminology.hl7.org/CodeSystem/observation-category",
                "code": "laboratory"
              }
            ]
          }
        ],
        "code": {
          "coding": [
            {
              "code": "5797-6",
              "system": "http://loinc.org",
              "display": "Ketones [Mass/volume] in Urine by Test strip"
            }
          ],
          "text": "Ketones [Mass/volume] in Urine by Test strip"
        },
        "valueQuantity": {
          "system": "http://unitsofmeasure.org",
          "value": 15.1,
          "unit": "mg/dL",
          "code": "mg/dL"
        },
        "referenceRange": [
          {
            "low": {
              "value": 0,
              "code": "mg/dL",
              "system": "http://unitsofmeasure.org"
            }
          },
          {
            "high": {
              "value": 4,
              "code": "mg/dL",
              "system": "http://unitsofmeasure.org"
            }
          }
        ],
        "interpretation": [
          {
            "coding": [
              {
                "code": "H",
                "system": "http://terminology.hl7.org/CodeSystem/v3-ObservationInterpretation",
                "display": "High"
              }
            ]
          }
        ],
        "text": {
          "status": "generated",
          "div": "<div xmlns=\"http://www.w3.org/1999/xhtml\"><table class=\"hl7__eu__lab__report\"><tr><th>Test</th><th>16-Apr-2016</th><th>Reference&#xA0;Range</th><th>Unit</th></tr><tr><td>Ketones [Mass/volume] in Urine by Test strip</td><td>15.1</td><td>0 - 4</td><td>H</td><td>mg/dL</td></tr></table></div>"
        },
        "status": "final",
        "subject": {
          "reference": "urn:uuid:0c7efb45-db54-466c-91a2-ba4aad3bb205",
          "display": "Iva Kratochvílová"
        },
        "effectiveDateTime": "2016-04-16T14:24:29Z",
        "specimen": {
          "reference": "urn:uuid:1362aba7-cf98-4ca7-b8ff-fdbdaefa0c85"
        }
      }
    },
    {
      "fullUrl": "urn:uuid:217b463e-a173-4d25-9641-5237c91157d0",
      "resource": {
        "resourceType": "Observation",
        "id": "217b463e-a173-4d25-9641-5237c91157d0",
        "meta": {
          "profile": [
            "http://hl7.eu/fhir/laboratory/StructureDefinition/Observation-resultslab-eu-lab"
          ]
        },
        "performer": [
          {
            "display": "The Central European Lab"
          }
        ],
        "category": [
          {
            "coding": [
              {
                "system": "http://terminology.hl7.org/CodeSystem/observation-category",
                "code": "laboratory"
              }
            ]
          }
        ],
        "code": {
          "coding": [
            {
              "code": "2514-8",
              "system": "http://loinc.org",
              "display": "Ketones [Presence] in Urine by Test strip"
            }
          ],
          "text": "Ketones [Presence] in Urine by Test strip"
        },
        "text": {
          "status": "generated",
          "div": "<div xmlns=\"http://www.w3.org/1999/xhtml\"><table class=\"hl7__eu__lab__report\"><tr><th>Test</th><th>16-Apr-2016</th><th>Reference&#xA0;Range</th><th>Unit</th></tr><tr><td>Ketones [Presence] in Urine by Test strip</td></tr></table></div>"
        },
        "status": "final",
        "subject": {
          "reference": "urn:uuid:0c7efb45-db54-466c-91a2-ba4aad3bb205",
          "display": "Iva Kratochvílová"
        },
        "effectiveDateTime": "2016-04-16T14:24:29Z",
        "specimen": {
          "reference": "urn:uuid:1362aba7-cf98-4ca7-b8ff-fdbdaefa0c85"
        }
      }
    },
    {
      "fullUrl": "urn:uuid:9a39c59f-a135-4840-8d45-6f428a7d139c",
      "resource": {
        "resourceType": "Observation",
        "id": "9a39c59f-a135-4840-8d45-6f428a7d139c",
        "meta": {
          "profile": [
            "http://hl7.eu/fhir/laboratory/StructureDefinition/Observation-resultslab-eu-lab"
          ]
        },
        "performer": [
          {
            "display": "The Central European Lab"
          }
        ],
        "category": [
          {
            "coding": [
              {
                "system": "http://terminology.hl7.org/CodeSystem/observation-category",
                "code": "laboratory"
              }
            ]
          }
        ],
        "code": {
          "coding": [
            {
              "code": "5811-5",
              "system": "http://loinc.org",
              "display": "Specific gravity of Urine by Test strip"
            }
          ],
          "text": "Specific gravity of Urine by Test strip"
        },
        "valueQuantity": {
          "system": "http://unitsofmeasure.org",
          "value": 1,
          "unit": "{nominal}",
          "code": "{nominal}"
        },
        "referenceRange": [
          {
            "low": {
              "value": 1.005,
              "code": "g/mL",
              "system": "http://unitsofmeasure.org"
            }
          },
          {
            "high": {
              "value": 1.03,
              "code": "g/mL",
              "system": "http://unitsofmeasure.org"
            }
          }
        ],
        "interpretation": [
          {
            "coding": [
              {
                "code": "L",
                "system": "http://terminology.hl7.org/CodeSystem/v3-ObservationInterpretation",
                "display": "Low"
              }
            ]
          }
        ],
        "text": {
          "status": "generated",
          "div": "<div xmlns=\"http://www.w3.org/1999/xhtml\"><table class=\"hl7__eu__lab__report\"><tr><th>Test</th><th>16-Apr-2016</th><th>Reference&#xA0;Range</th><th>Unit</th></tr><tr><td>Specific gravity of Urine by Test strip</td><td>1.0</td><td>1.005 - 1.03</td><td>L</td><td>{nominal}</td></tr></table></div>"
        },
        "status": "final",
        "subject": {
          "reference": "urn:uuid:0c7efb45-db54-466c-91a2-ba4aad3bb205",
          "display": "Iva Kratochvílová"
        },
        "effectiveDateTime": "2016-04-16T14:24:29Z",
        "specimen": {
          "reference": "urn:uuid:1362aba7-cf98-4ca7-b8ff-fdbdaefa0c85"
        }
      }
    },
    {
      "fullUrl": "urn:uuid:4a0fcae8-b980-4f20-af17-6ad21424110e",
      "resource": {
        "resourceType": "Observation",
        "id": "4a0fcae8-b980-4f20-af17-6ad21424110e",
        "meta": {
          "profile": [
            "http://hl7.eu/fhir/laboratory/StructureDefinition/Observation-resultslab-eu-lab"
          ]
        },
        "performer": [
          {
            "display": "The Central European Lab"
          }
        ],
        "category": [
          {
            "coding": [
              {
                "system": "http://terminology.hl7.org/CodeSystem/observation-category",
                "code": "laboratory"
              }
            ]
          }
        ],
        "code": {
          "coding": [
            {
              "code": "5803-2",
              "system": "http://loinc.org",
              "display": "pH of Urine by Test strip"
            }
          ],
          "text": "pH of Urine by Test strip"
        },
        "valueQuantity": {
          "system": "http://unitsofmeasure.org",
          "value": 7,
          "unit": "pH",
          "code": "pH"
        },
        "referenceRange": [
          {
            "low": {
              "value": 4.5,
              "code": "pH",
              "system": "http://unitsofmeasure.org"
            }
          },
          {
            "high": {
              "value": 7,
              "code": "pH",
              "system": "http://unitsofmeasure.org"
            }
          }
        ],
        "text": {
          "status": "generated",
          "div": "<div xmlns=\"http://www.w3.org/1999/xhtml\"><table class=\"hl7__eu__lab__report\"><tr><th>Test</th><th>16-Apr-2016</th><th>Reference&#xA0;Range</th><th>Unit</th></tr><tr><td>pH of Urine by Test strip</td><td>7.0</td><td>4.5 - 7</td><td></td><td>pH</td></tr></table></div>"
        },
        "status": "final",
        "subject": {
          "reference": "urn:uuid:0c7efb45-db54-466c-91a2-ba4aad3bb205",
          "display": "Iva Kratochvílová"
        },
        "effectiveDateTime": "2016-04-16T14:24:29Z",
        "specimen": {
          "reference": "urn:uuid:1362aba7-cf98-4ca7-b8ff-fdbdaefa0c85"
        }
      }
    },
    {
      "fullUrl": "urn:uuid:35dcce2b-a9d8-4956-a3d9-69eb4bceef63",
      "resource": {
        "resourceType": "Observation",
        "id": "35dcce2b-a9d8-4956-a3d9-69eb4bceef63",
        "meta": {
          "profile": [
            "http://hl7.eu/fhir/laboratory/StructureDefinition/Observation-resultslab-eu-lab"
          ]
        },
        "performer": [
          {
            "display": "The Central European Lab"
          }
        ],
        "category": [
          {
            "coding": [
              {
                "system": "http://terminology.hl7.org/CodeSystem/observation-category",
                "code": "laboratory"
              }
            ]
          }
        ],
        "code": {
          "coding": [
            {
              "code": "5804-0",
              "system": "http://loinc.org",
              "display": "Protein [Mass/volume] in Urine by Test strip"
            }
          ],
          "text": "Protein [Mass/volume] in Urine by Test strip"
        },
        "valueQuantity": {
          "system": "http://unitsofmeasure.org",
          "value": 387,
          "unit": "mg/dL",
          "code": "mg/dL"
        },
        "referenceRange": [
          {
            "low": {
              "value": 0,
              "code": "mg/dL",
              "system": "http://unitsofmeasure.org"
            }
          },
          {
            "high": {
              "value": 145,
              "code": "mg/dL",
              "system": "http://unitsofmeasure.org"
            }
          }
        ],
        "interpretation": [
          {
            "coding": [
              {
                "code": "H",
                "system": "http://terminology.hl7.org/CodeSystem/v3-ObservationInterpretation",
                "display": "High"
              }
            ]
          }
        ],
        "text": {
          "status": "generated",
          "div": "<div xmlns=\"http://www.w3.org/1999/xhtml\"><table class=\"hl7__eu__lab__report\"><tr><th>Test</th><th>16-Apr-2016</th><th>Reference&#xA0;Range</th><th>Unit</th></tr><tr><td>Protein [Mass/volume] in Urine by Test strip</td><td>387.0</td><td>0 - 145</td><td>H</td><td>mg/dL</td></tr></table></div>"
        },
        "status": "final",
        "subject": {
          "reference": "urn:uuid:0c7efb45-db54-466c-91a2-ba4aad3bb205",
          "display": "Iva Kratochvílová"
        },
        "effectiveDateTime": "2016-04-16T14:24:29Z",
        "specimen": {
          "reference": "urn:uuid:1362aba7-cf98-4ca7-b8ff-fdbdaefa0c85"
        }
      }
    },
    {
      "fullUrl": "urn:uuid:96e0535e-2d5a-4570-8064-a19d8caa0ed4",
      "resource": {
        "resourceType": "Observation",
        "id": "96e0535e-2d5a-4570-8064-a19d8caa0ed4",
        "meta": {
          "profile": [
            "http://hl7.eu/fhir/laboratory/StructureDefinition/Observation-resultslab-eu-lab"
          ]
        },
        "performer": [
          {
            "display": "The Central European Lab"
          }
        ],
        "category": [
          {
            "coding": [
              {
                "system": "http://terminology.hl7.org/CodeSystem/observation-category",
                "code": "laboratory"
              }
            ]
          }
        ],
        "code": {
          "coding": [
            {
              "code": "20454-5",
              "system": "http://loinc.org",
              "display": "Protein [Presence] in Urine by Test strip"
            }
          ],
          "text": "Protein [Presence] in Urine by Test strip"
        },
        "text": {
          "status": "generated",
          "div": "<div xmlns=\"http://www.w3.org/1999/xhtml\"><table class=\"hl7__eu__lab__report\"><tr><th>Test</th><th>16-Apr-2016</th><th>Reference&#xA0;Range</th><th>Unit</th></tr><tr><td>Protein [Presence] in Urine by Test strip</td></tr></table></div>"
        },
        "status": "final",
        "subject": {
          "reference": "urn:uuid:0c7efb45-db54-466c-91a2-ba4aad3bb205",
          "display": "Iva Kratochvílová"
        },
        "effectiveDateTime": "2016-04-16T14:24:29Z",
        "specimen": {
          "reference": "urn:uuid:1362aba7-cf98-4ca7-b8ff-fdbdaefa0c85"
        }
      }
    },
    {
      "fullUrl": "urn:uuid:301b9120-f70e-4ed2-84d6-2cebbb91d613",
      "resource": {
        "resourceType": "Observation",
        "id": "301b9120-f70e-4ed2-84d6-2cebbb91d613",
        "meta": {
          "profile": [
            "http://hl7.eu/fhir/laboratory/StructureDefinition/Observation-resultslab-eu-lab"
          ]
        },
        "performer": [
          {
            "display": "The Central European Lab"
          }
        ],
        "category": [
          {
            "coding": [
              {
                "system": "http://terminology.hl7.org/CodeSystem/observation-category",
                "code": "laboratory"
              }
            ]
          }
        ],
        "code": {
          "coding": [
            {
              "code": "5802-4",
              "system": "http://loinc.org",
              "display": "Nitrite [Presence] in Urine by Test strip"
            }
          ],
          "text": "Nitrite [Presence] in Urine by Test strip"
        },
        "text": {
          "status": "generated",
          "div": "<div xmlns=\"http://www.w3.org/1999/xhtml\"><table class=\"hl7__eu__lab__report\"><tr><th>Test</th><th>16-Apr-2016</th><th>Reference&#xA0;Range</th><th>Unit</th></tr><tr><td>Nitrite [Presence] in Urine by Test strip</td></tr></table></div>"
        },
        "status": "final",
        "subject": {
          "reference": "urn:uuid:0c7efb45-db54-466c-91a2-ba4aad3bb205",
          "display": "Iva Kratochvílová"
        },
        "effectiveDateTime": "2016-04-16T14:24:29Z",
        "specimen": {
          "reference": "urn:uuid:1362aba7-cf98-4ca7-b8ff-fdbdaefa0c85"
        }
      }
    },
    {
      "fullUrl": "urn:uuid:19391d03-c79d-4339-97a9-f76a7dbc1e87",
      "resource": {
        "resourceType": "Observation",
        "id": "19391d03-c79d-4339-97a9-f76a7dbc1e87",
        "meta": {
          "profile": [
            "http://hl7.eu/fhir/laboratory/StructureDefinition/Observation-resultslab-eu-lab"
          ]
        },
        "performer": [
          {
            "display": "The Central European Lab"
          }
        ],
        "category": [
          {
            "coding": [
              {
                "system": "http://terminology.hl7.org/CodeSystem/observation-category",
                "code": "laboratory"
              }
            ]
          }
        ],
        "code": {
          "coding": [
            {
              "code": "5794-3",
              "system": "http://loinc.org",
              "display": "Hemoglobin [Presence] in Urine by Test strip"
            }
          ],
          "text": "Hemoglobin [Presence] in Urine by Test strip"
        },
        "text": {
          "status": "generated",
          "div": "<div xmlns=\"http://www.w3.org/1999/xhtml\"><table class=\"hl7__eu__lab__report\"><tr><th>Test</th><th>16-Apr-2016</th><th>Reference&#xA0;Range</th><th>Unit</th></tr><tr><td>Hemoglobin [Presence] in Urine by Test strip</td></tr></table></div>"
        },
        "status": "final",
        "subject": {
          "reference": "urn:uuid:0c7efb45-db54-466c-91a2-ba4aad3bb205",
          "display": "Iva Kratochvílová"
        },
        "effectiveDateTime": "2016-04-16T14:24:29Z",
        "specimen": {
          "reference": "urn:uuid:1362aba7-cf98-4ca7-b8ff-fdbdaefa0c85"
        }
      }
    },
    {
      "fullUrl": "urn:uuid:0c17ec06-0ece-4f88-8ad5-674c2ff06404",
      "resource": {
        "resourceType": "Observation",
        "id": "0c17ec06-0ece-4f88-8ad5-674c2ff06404",
        "meta": {
          "profile": [
            "http://hl7.eu/fhir/laboratory/StructureDefinition/Observation-resultslab-eu-lab"
          ]
        },
        "performer": [
          {
            "display": "The Central European Lab"
          }
        ],
        "category": [
          {
            "coding": [
              {
                "system": "http://terminology.hl7.org/CodeSystem/observation-category",
                "code": "laboratory"
              }
            ]
          }
        ],
        "code": {
          "coding": [
            {
              "code": "5799-2",
              "system": "http://loinc.org",
              "display": "Leukocyte esterase [Presence] in Urine by Test strip"
            }
          ],
          "text": "Leukocyte esterase [Presence] in Urine by Test strip"
        },
        "text": {
          "status": "generated",
          "div": "<div xmlns=\"http://www.w3.org/1999/xhtml\"><table class=\"hl7__eu__lab__report\"><tr><th>Test</th><th>16-Apr-2016</th><th>Reference&#xA0;Range</th><th>Unit</th></tr><tr><td>Leukocyte esterase [Presence] in Urine by Test strip</td></tr></table></div>"
        },
        "status": "final",
        "subject": {
          "reference": "urn:uuid:0c7efb45-db54-466c-91a2-ba4aad3bb205",
          "display": "Iva Kratochvílová"
        },
        "effectiveDateTime": "2016-04-16T14:24:29Z",
        "specimen": {
          "reference": "urn:uuid:1362aba7-cf98-4ca7-b8ff-fdbdaefa0c85"
        }
      }
    },
    {
      "fullUrl": "urn:uuid:99cf1125-bdd9-488e-8220-22e6985d2200",
      "resource": {
        "resourceType": "Device",
        "id": "99cf1125-bdd9-488e-8220-22e6985d2200",
        "deviceName": [
          {
            "name": "SYNDERAI Synthetic Generator",
            "type": "manufacturer-name"
          }
        ],
        "version": [
          {
            "value": "5.0"
          }
        ],
        "text": {
          "status": "generated",
          "div": "<div xmlns=\"http://www.w3.org/1999/xhtml\">SYNDERAI Synthetic Generator v5.0</div>"
        },
        "status": "active\"",
        "distinctIdentifier": "synderai-generator-50",
        "manufacturer": "SYNDERAI Project"
      }
    },
    {
      "fullUrl": "urn:uuid:e0353115-c213-47e4-b87a-e4d676dd52a4",
      "resource": {
        "resourceType": "Provenance",
        "id": "e0353115-c213-47e4-b87a-e4d676dd52a4",
        "target": [
          {
            "reference": "Patient/0c7efb45-db54-466c-91a2-ba4aad3bb205"
          },
          {
            "reference": "Bundle/9704b23d-d12d-4054-95e3-e63ea87993e6"
          },
          {
            "reference": "Composition/9d57c635-bf7b-48cd-8af0-0cdc1a6c534b"
          },
          {
            "reference": "PractitionerRole/8f431a2e-42a4-40b4-a3ff-fb00357d2bef"
          },
          {
            "reference": "Practitioner/c1475393-566a-4fbb-867b-069ffa8312d6"
          },
          {
            "reference": "PractitionerRole/59a7d3a5-4dcf-4232-832e-f52fbc2e222c"
          },
          {
            "reference": "Organization/f53a3344-5e03-44f4-a268-279909c1f1bd"
          }
        ],
        "activity": {
          "text": "Synthetic Example Data Generation"
        },
        "policy": [
          "https://synderai.net/synderai-synthetic-data-policy"
        ],
        "agent": [
          {
            "type": {
              "text": "author"
            },
            "who": {
              "reference": "Device/99cf1125-bdd9-488e-8220-22e6985d2200"
            }
          }
        ],
        "reason": [
          {
            "text": "Interoperability Testing and Training (non-clinical use)"
          }
        ],
        "text": {
          "status": "generated",
          "div": "<div xmlns=\"http://www.w3.org/1999/xhtml\">Provenance for SYNDERAI Synthetic Example Data Resource</div>"
        },
        "recorded": "2016-04-16T16:24:29Z"
      }
    },
    {
      "fullUrl": "urn:uuid:8f431a2e-42a4-40b4-a3ff-fb00357d2bef",
      "resource": {
        "resourceType": "PractitionerRole",
        "id": "8f431a2e-42a4-40b4-a3ff-fb00357d2bef",
        "meta": {
          "profile": [
            "http://hl7.eu/fhir/base/StructureDefinition/practitionerRole-eu"
          ]
        },
        "text": {
          "status": "generated",
          "div": "<div xmlns=\"http://www.w3.org/1999/xhtml\">Laboratory Role Id: 8f431a2e-42a4-40b4-a3ff-fb00357d2bef</div>"
        },
        "practitioner": {
          "reference": "urn:uuid:c1475393-566a-4fbb-867b-069ffa8312d6"
        }
      }
    },
    {
      "fullUrl": "urn:uuid:c1475393-566a-4fbb-867b-069ffa8312d6",
      "resource": {
        "resourceType": "Practitioner",
        "id": "c1475393-566a-4fbb-867b-069ffa8312d6",
        "meta": {
          "profile": [
            "http://hl7.eu/fhir/base/StructureDefinition/practitioner-eu"
          ]
        },
        "identifier": [
          {
            "assigner": {
              "display": "HL7 Europe"
            },
            "system": "urn:oid:2.16.840.1.113883.2.51.999",
            "value": "a0c939ce-d9f5-4729-8bf1-af0b17591de0"
          }
        ],
        "name": [
          {
            "prefix": [
              "dr"
            ],
            "given": [
              "Ex"
            ],
            "family": "Ample"
          }
        ],
        "address": [
          {
            "line": [
              "Laboratoire Central Européenne",
              "Boulevard du Jardin Botanique 32"
            ],
            "postalCode": "1000",
            "city": "Brussels",
            "country": "Belgium"
          }
        ],
        "text": {
          "status": "generated",
          "div": "<div xmlns=\"http://www.w3.org/1999/xhtml\">Laboratory: Laboratoire Central Européenne, 1000 Brussels, Belgium</div>"
        }
      }
    }
  ],
  "type": "document",
  "timestamp": "2016-04-16T16:24:29Z"
}
