{
  "resourceType": "Bundle",
  "id": "886e0a34-fbb5-4bcd-ab2e-db17a64c85cf",
  "meta": {
    "profile": [
      "http://hl7.eu/fhir/laboratory/StructureDefinition/Bundle-eu-lab"
    ]
  },
  "identifier": {
    "assigner": {
      "display": "HL7 Europe"
    },
    "system": "urn:oid:2.16.840.1.113883.2.51.999",
    "value": "6ee5d191-ea2a-4155-b247-59daa7ffc6ba"
  },
  "entry": [
    {
      "fullUrl": "urn:uuid:55e45f41-626e-46d0-8512-0c5040638be9",
      "resource": {
        "resourceType": "Composition",
        "id": "55e45f41-626e-46d0-8512-0c5040638be9",
        "meta": {
          "profile": [
            "http://hl7.eu/fhir/laboratory/StructureDefinition/Composition-eu-lab"
          ]
        },
        "identifier": {
          "assigner": {
            "display": "HL7 Europe"
          },
          "system": "urn:oid:2.16.840.1.113883.2.51.999",
          "value": "15babe54-d209-4abf-870c-40d474f9fe30"
        },
        "author": [
          {
            "reference": "urn:uuid:05d30d30-f3de-4989-9944-36b122fa9822"
          }
        ],
        "category": [
          {
            "coding": [
              {
                "code": "26436-6",
                "system": "http://loinc.org",
                "display": "Laboratory studies (set)"
              }
            ]
          }
        ],
        "type": {
          "coding": [
            {
              "code": "11502-2",
              "system": "http://loinc.org",
              "display": "Laboratory report"
            }
          ],
          "text": "Laboratory Report"
        },
        "section": [
          {
            "code": {
              "coding": [
                {
                  "code": "26436-6",
                  "system": "http://loinc.org",
                  "display": "Laboratory studies (set)"
                }
              ],
              "text": "Laboratory studies"
            },
            "section": [
              {
                "code": {
                  "coding": [
                    {
                      "code": "$18723-7",
                      "system": "http://loinc.org",
                      "display": "Hematology studies (set)"
                    }
                  ],
                  "text": "Hematology"
                },
                "entry": [
                  {
                    "reference": "urn:uuid:0cc2d18c-cba3-45ed-a2a8-3441cec128f2"
                  },
                  {
                    "reference": "urn:uuid:953293a6-0279-4dd8-acc6-a256717c237e"
                  },
                  {
                    "reference": "urn:uuid:f99b872d-8fd7-4b7c-b9b5-195d619710d6"
                  },
                  {
                    "reference": "urn:uuid:35c0ab62-5b4b-4ea8-8a63-3ece674f5936"
                  },
                  {
                    "reference": "urn:uuid:5e8ffd47-415e-4b2c-9a4a-cb2e7d2439f3"
                  },
                  {
                    "reference": "urn:uuid:dd1ddd0a-68c1-44eb-b868-21bdfb5a4d3c"
                  },
                  {
                    "reference": "urn:uuid:268f08e3-10df-4f19-b368-5eac033670d9"
                  },
                  {
                    "reference": "urn:uuid:29972591-df04-4431-b731-74dc794d4079"
                  },
                  {
                    "reference": "urn:uuid:39ae44d0-4a9a-43b1-a9a7-3b2c24284759"
                  }
                ],
                "text": {
                  "status": "generated",
                  "div": "<div xmlns=\"http://www.w3.org/1999/xhtml\"><h3>Hematology</h3><table class=\"hl7__eu__lab__report\"><thead><tr><th>Test</th><th>18-JUN-2017</th><th>Reference&#xA0;Range</th><th>Unit</th></tr></thead><tbody><tr><td>Leukocytes [#/volume] in Blood by Automated count</td><td>4.8</td><td>4 - 11</td><td>10*3/uL</td></tr><tr><td>Erythrocytes [#/volume] in Blood by Automated count</td><td><strong>3.8 L</strong></td><td>4.2 - 5.8</td><td>10*6/uL</td></tr><tr><td>Hemoglobin [Mass/volume] in Blood</td><td><strong>16.1 H</strong></td><td>12 - 16</td><td>g/dL</td></tr><tr><td>Hematocrit [Volume Fraction] of Blood by Automated count</td><td>47.5</td><td>36 - 48</td><td>%</td></tr><tr><td>MCV [Entitic volume] by Automated count</td><td>92.9</td><td>78 - 98</td><td>fL</td></tr><tr><td>MCH [Entitic mass] by Automated count</td><td>28.5</td><td>27 - 34.5</td><td>pg</td></tr><tr><td>MCHC [Mass/volume] by Automated count</td><td>31.9</td><td>31.5 - 35.5</td><td>g/dL</td></tr><tr><td>Erythrocyte distribution width [Ratio] by Automated count</td><td>12.9</td><td>11.5 - 16</td><td>%</td></tr><tr><td>Platelets [#/volume] in Blood by Automated count</td><td>270.4</td><td>150 - 350</td><td>10*3/uL</td></tr></tbody></table></div>"
                },
                "title": "Hematology"
              },
              {
                "code": {
                  "coding": [
                    {
                      "code": "$18719-5",
                      "system": "http://loinc.org",
                      "display": "Chemistry studies (set)"
                    }
                  ],
                  "text": "Chemistry"
                },
                "entry": [
                  {
                    "reference": "urn:uuid:651f22e8-13ce-4c27-984a-c845f821a19a"
                  },
                  {
                    "reference": "urn:uuid:6b723366-769c-4025-8537-ff884d7e00cb"
                  },
                  {
                    "reference": "urn:uuid:ae3c3672-1c20-4c95-83cf-d8a2957bb89c"
                  },
                  {
                    "reference": "urn:uuid:d73f7ee1-01a7-4f8b-99f8-f3c0b7c0e2c0"
                  },
                  {
                    "reference": "urn:uuid:029fbdf7-02af-4823-aefa-6e7fdeec6d5c"
                  },
                  {
                    "reference": "urn:uuid:75c21e44-fedb-4c81-9abc-e8cb1eb13cc7"
                  },
                  {
                    "reference": "urn:uuid:7d7f1fe1-34bd-4126-8a33-8e4c32eb5774"
                  },
                  {
                    "reference": "urn:uuid:a8e797cb-4eb0-4f38-8ae5-d34416602df2"
                  },
                  {
                    "reference": "urn:uuid:4af02ff3-af73-4b1c-b8fd-3612354f7732"
                  },
                  {
                    "reference": "urn:uuid:10676f04-d4c8-47f6-a225-10778039ef85"
                  },
                  {
                    "reference": "urn:uuid:80809d87-9dcb-4982-a95a-96ffd3eaabeb"
                  },
                  {
                    "reference": "urn:uuid:a548babb-8445-4f2a-b632-8bb658c79d3e"
                  },
                  {
                    "reference": "urn:uuid:d9e2ec07-7007-4600-a10f-7f3ecd450671"
                  },
                  {
                    "reference": "urn:uuid:6639304a-6b60-41c9-9c06-d3a0443e3854"
                  },
                  {
                    "reference": "urn:uuid:bc3c5c62-27ad-4b5a-8966-f67ea3964655"
                  },
                  {
                    "reference": "urn:uuid:7f8e7328-4002-4a30-a772-22a9706c7d81"
                  },
                  {
                    "reference": "urn:uuid:54f30793-cf09-4140-af4b-81bc1bdad129"
                  },
                  {
                    "reference": "urn:uuid:83a8dd0d-e638-44b6-ade1-e8dadb35719b"
                  },
                  {
                    "reference": "urn:uuid:c699c0eb-2140-49dc-af3c-5d8ed201b0bf"
                  },
                  {
                    "reference": "urn:uuid:dc4e3c2d-e89e-4676-867e-df4eafef6c98"
                  },
                  {
                    "reference": "urn:uuid:648117e7-b656-45bd-a807-cebe64e25dba"
                  },
                  {
                    "reference": "urn:uuid:9416be87-ad46-4c9f-be47-22e7baa9c32b"
                  },
                  {
                    "reference": "urn:uuid:03eafe66-1416-4624-a109-7911e04e11be"
                  },
                  {
                    "reference": "urn:uuid:0be1ed72-70c6-447a-949f-461b6c70511d"
                  },
                  {
                    "reference": "urn:uuid:1b2416bf-ac81-45bf-82a0-ff4ee8a1d256"
                  }
                ],
                "text": {
                  "status": "generated",
                  "div": "<div xmlns=\"http://www.w3.org/1999/xhtml\"><h3>Chemistry</h3><table class=\"hl7__eu__lab__report\"><thead><tr><th>Test</th><th>18-JUN-2017</th><th>Reference&#xA0;Range</th><th>Unit</th></tr></thead><tbody><tr><td>Glucose [Mass/volume] in Serum or Plasma</td><td>83.3</td><td>70 - 140</td><td>mg/dL</td></tr><tr><td>Urea nitrogen [Mass/volume] in Serum or Plasma</td><td>16.7</td><td>7 - 25</td><td>mg/dL</td></tr><tr><td>Creatinine [Mass/volume] in Serum or Plasma</td><td><strong>2.7 H</strong></td><td>0.6 - 1.1</td><td>mg/dL</td></tr><tr><td>Calcium [Mass/volume] in Serum or Plasma</td><td>10.2</td><td>8.5 - 10.4</td><td>mg/dL</td></tr><tr><td>Sodium [Moles/volume] in Serum or Plasma</td><td>142.6</td><td>135 - 145</td><td>mmol/L</td></tr><tr><td>Potassium [Moles/volume] in Serum or Plasma</td><td>4.0</td><td>3.5 - 5.3</td><td>mmol/L</td></tr><tr><td>Chloride [Moles/volume] in Serum or Plasma</td><td>105.7</td><td>98 - 108</td><td>mmol/L</td></tr><tr><td>Carbon dioxide, total [Moles/volume] in Serum or Plasma</td><td>25.6</td><td>22 - 29</td><td>mmol/L</td></tr><tr><td>Protein [Mass/volume] in Serum or Plasma</td><td>8.2</td><td>6 - 8.3</td><td>g/dL</td></tr><tr><td>Albumin [Mass/volume] in Serum or Plasma</td><td>4.0</td><td>3.5 - 5.5</td><td>g/dL</td></tr><tr><td>Bilirubin.total [Mass/volume] in Serum or Plasma</td><td><strong>9.6 H</strong></td><td>0.3 - 1.2</td><td>mg/dL</td></tr><tr><td>Alkaline phosphatase [Enzymatic activity/volume] in Serum or Plasma</td><td>84.6</td><td>35 - 270</td><td>U/L</td></tr><tr><td>Alanine aminotransferase [Enzymatic activity/volume] in Serum or Plasma</td><td>17.4</td><td>7 - 60</td><td>U/L</td></tr><tr><td>Aspartate aminotransferase [Enzymatic activity/volume] in Serum or Plasma</td><td>33.8</td><td>10 - 40</td><td>U/L</td></tr><tr><td>Magnesium [Mass/volume] in Serum or Plasma</td><td>2.2</td><td>1.6 - 2.3</td><td>mg/dL</td></tr><tr><td>Phosphate [Mass/volume] in Serum or Plasma</td><td>4.0</td><td>2.5 - 4.5</td><td>mg/dL</td></tr><tr><td>pH of Arterial blood</td><td><strong>7.2 L</strong></td><td>7.35 - 7.45</td><td>[pH]</td></tr><tr><td>Carbon dioxide [Partial pressure] in Arterial blood</td><td>38.9</td><td>38 - 48</td><td>mm[Hg]</td></tr><tr><td>Oxygen [Partial pressure] in Arterial blood</td><td>84.8</td><td>75 - 100</td><td>mm[Hg]</td></tr><tr><td>Bicarbonate [Moles/volume] in Arterial blood</td><td>24.9</td><td>22 - 31</td><td>mmol/L</td></tr><tr><td>Oxygen saturation in Arterial blood</td><td><strong>94.0 L</strong></td><td>95 - 100</td><td>%</td></tr><tr><td>Cholesterol [Mass/volume] in Serum or Plasma</td><td>159.4</td><td>125 - 200</td><td>mg/dL</td></tr><tr><td>Triglyceride [Mass/volume] in Serum or Plasma</td><td>126.3</td><td>0 - 150</td><td>mg/dL</td></tr><tr><td>Cholesterol in LDL [Mass/volume] in Serum or Plasma by Direct assay</td><td>79.3</td><td>0 - 130</td><td>mg/dL</td></tr><tr><td>Cholesterol in HDL [Mass/volume] in Serum or Plasma</td><td>54.9</td><td>50 - 100</td><td>mg/dL</td></tr></tbody></table></div>"
                },
                "title": "Chemistry"
              },
              {
                "code": {
                  "coding": [
                    {
                      "code": "$18720-3",
                      "system": "http://loinc.org",
                      "display": "Coagulation studies (set)"
                    }
                  ],
                  "text": "Coagulation"
                },
                "entry": [
                  {
                    "reference": "urn:uuid:8b19c743-7560-4177-9600-999bd23cb140"
                  },
                  {
                    "reference": "urn:uuid:a30d2a98-7fb0-4d48-a0dd-cbcbeff08233"
                  },
                  {
                    "reference": "urn:uuid:b739bd1c-0e6f-4162-9f8c-27f8325de091"
                  }
                ],
                "text": {
                  "status": "generated",
                  "div": "<div xmlns=\"http://www.w3.org/1999/xhtml\"><h3>Coagulation</h3><table class=\"hl7__eu__lab__report\"><thead><tr><th>Test</th><th>18-JUN-2017</th><th>Reference&#xA0;Range</th><th>Unit</th></tr></thead><tbody><tr><td>Prothrombin time (PT)</td><td><strong>10.6 L</strong></td><td>11 - 15</td><td>s</td></tr><tr><td>INR in Platelet poor plasma by Coagulation assay</td><td>0.9</td><td>0.9 - 3</td><td>{INR}</td></tr><tr><td>aPTT in Blood by Coagulation assay</td><td>32.5</td><td>25 - 40</td><td>s</td></tr></tbody></table></div>"
                },
                "title": "Coagulation"
              }
            ],
            "title": "Laboratory Report"
          },
          {
            "text": {
              "status": "generated",
              "div": "<div xmlns=\"http://www.w3.org/1999/xhtml\"><h3>Annotation</h3><table class=\"hl7__eu__lab__report\"><tr><th>Conclusion and Recommendations based on this report and previous findings known to us</th></tr><tr><td>The patient shows mild normocytic anemia (low erythrocytes, high hemoglobin), significant hyperbilirubinemia, and markedly elevated creatinine, suggesting possible renal dysfunction and hemolysis or liver dysfunction. Arterial blood gas indicates acidemia and mild hypoxemia. Other parameters, including electrolytes, liver enzymes, and coagulation, are within normal limits. Further clinical correlation and investigation of renal and hepatic function are recommended.</td></tr></table></div>"
            },
            "code": {
              "coding": [
                {
                  "system": "http://loinc.org",
                  "code": "48767-8",
                  "display": "Annotation comment"
                }
              ]
            },
            "title": "Annotation comment"
          }
        ],
        "status": "final",
        "subject": {
          "reference": "urn:uuid:fd98e9dc-dbed-45ce-a556-f1c2aca19c38",
          "display": "Magdolna Balog"
        },
        "date": "2017-06-18T16:51:24Z",
        "title": "Laboratory Report",
        "confidentiality": "N"
      }
    },
    {
      "fullUrl": "urn:uuid:13677415-499f-4ac1-b846-cf9e8b4413bf",
      "resource": {
        "resourceType": "DiagnosticReport",
        "id": "13677415-499f-4ac1-b846-cf9e8b4413bf",
        "meta": {
          "profile": [
            "http://hl7.eu/fhir/laboratory/StructureDefinition/DiagnosticReport-eu-lab"
          ]
        },
        "identifier": [
          {
            "assigner": {
              "display": "HL7 Europe"
            },
            "system": "urn:oid:2.16.840.1.113883.2.51.999",
            "value": "7bcba768-3029-4b90-9359-6b4326a5b1e0"
          }
        ],
        "extension": [
          {
            "url": "http://hl7.org/fhir/5.0/StructureDefinition/extension-DiagnosticReport.composition",
            "valueReference": {
              "reference": "urn:uuid:15babe54-d209-4abf-870c-40d474f9fe30"
            }
          }
        ],
        "category": [
          {
            "coding": [
              {
                "code": "26436-6",
                "system": "http://loinc.org",
                "display": "Laboratory studies (set)"
              }
            ]
          }
        ],
        "specimen": [
          {
            "reference": "urn:uuid:fe1344b1-e257-4468-a0d6-8d995f84f83f"
          },
          {
            "reference": "urn:uuid:fe1344b1-e257-4468-a0d6-8d995f84f83f"
          },
          {
            "reference": "urn:uuid:7f506f0d-506b-463b-bfa7-7bc7364e2862"
          },
          {
            "reference": "urn:uuid:fed3b471-318d-4c3d-be4b-18b551089921"
          },
          {
            "reference": "urn:uuid:6be03e29-855d-49ec-9285-236674205a84"
          }
        ],
        "result": [
          {
            "reference": "urn:uuid:0cc2d18c-cba3-45ed-a2a8-3441cec128f2"
          },
          {
            "reference": "urn:uuid:953293a6-0279-4dd8-acc6-a256717c237e"
          },
          {
            "reference": "urn:uuid:f99b872d-8fd7-4b7c-b9b5-195d619710d6"
          },
          {
            "reference": "urn:uuid:35c0ab62-5b4b-4ea8-8a63-3ece674f5936"
          },
          {
            "reference": "urn:uuid:5e8ffd47-415e-4b2c-9a4a-cb2e7d2439f3"
          },
          {
            "reference": "urn:uuid:dd1ddd0a-68c1-44eb-b868-21bdfb5a4d3c"
          },
          {
            "reference": "urn:uuid:268f08e3-10df-4f19-b368-5eac033670d9"
          },
          {
            "reference": "urn:uuid:29972591-df04-4431-b731-74dc794d4079"
          },
          {
            "reference": "urn:uuid:39ae44d0-4a9a-43b1-a9a7-3b2c24284759"
          },
          {
            "reference": "urn:uuid:651f22e8-13ce-4c27-984a-c845f821a19a"
          },
          {
            "reference": "urn:uuid:6b723366-769c-4025-8537-ff884d7e00cb"
          },
          {
            "reference": "urn:uuid:ae3c3672-1c20-4c95-83cf-d8a2957bb89c"
          },
          {
            "reference": "urn:uuid:d73f7ee1-01a7-4f8b-99f8-f3c0b7c0e2c0"
          },
          {
            "reference": "urn:uuid:029fbdf7-02af-4823-aefa-6e7fdeec6d5c"
          },
          {
            "reference": "urn:uuid:75c21e44-fedb-4c81-9abc-e8cb1eb13cc7"
          },
          {
            "reference": "urn:uuid:7d7f1fe1-34bd-4126-8a33-8e4c32eb5774"
          },
          {
            "reference": "urn:uuid:a8e797cb-4eb0-4f38-8ae5-d34416602df2"
          },
          {
            "reference": "urn:uuid:4af02ff3-af73-4b1c-b8fd-3612354f7732"
          },
          {
            "reference": "urn:uuid:10676f04-d4c8-47f6-a225-10778039ef85"
          },
          {
            "reference": "urn:uuid:80809d87-9dcb-4982-a95a-96ffd3eaabeb"
          },
          {
            "reference": "urn:uuid:a548babb-8445-4f2a-b632-8bb658c79d3e"
          },
          {
            "reference": "urn:uuid:d9e2ec07-7007-4600-a10f-7f3ecd450671"
          },
          {
            "reference": "urn:uuid:6639304a-6b60-41c9-9c06-d3a0443e3854"
          },
          {
            "reference": "urn:uuid:bc3c5c62-27ad-4b5a-8966-f67ea3964655"
          },
          {
            "reference": "urn:uuid:7f8e7328-4002-4a30-a772-22a9706c7d81"
          },
          {
            "reference": "urn:uuid:8b19c743-7560-4177-9600-999bd23cb140"
          },
          {
            "reference": "urn:uuid:a30d2a98-7fb0-4d48-a0dd-cbcbeff08233"
          },
          {
            "reference": "urn:uuid:b739bd1c-0e6f-4162-9f8c-27f8325de091"
          },
          {
            "reference": "urn:uuid:54f30793-cf09-4140-af4b-81bc1bdad129"
          },
          {
            "reference": "urn:uuid:83a8dd0d-e638-44b6-ade1-e8dadb35719b"
          },
          {
            "reference": "urn:uuid:c699c0eb-2140-49dc-af3c-5d8ed201b0bf"
          },
          {
            "reference": "urn:uuid:dc4e3c2d-e89e-4676-867e-df4eafef6c98"
          },
          {
            "reference": "urn:uuid:648117e7-b656-45bd-a807-cebe64e25dba"
          },
          {
            "reference": "urn:uuid:9416be87-ad46-4c9f-be47-22e7baa9c32b"
          },
          {
            "reference": "urn:uuid:03eafe66-1416-4624-a109-7911e04e11be"
          },
          {
            "reference": "urn:uuid:0be1ed72-70c6-447a-949f-461b6c70511d"
          },
          {
            "reference": "urn:uuid:1b2416bf-ac81-45bf-82a0-ff4ee8a1d256"
          }
        ],
        "status": "registered",
        "code": {
          "coding": [
            {
              "code": "11502-2",
              "system": "http://loinc.org",
              "display": "Laboratory report"
            }
          ]
        },
        "subject": {
          "reference": "urn:uuid:fd98e9dc-dbed-45ce-a556-f1c2aca19c38",
          "display": "Magdolna Balog"
        }
      }
    },
    {
      "fullUrl": "urn:uuid:fd98e9dc-dbed-45ce-a556-f1c2aca19c38",
      "resource": {
        "resourceType": "Patient",
        "id": "fd98e9dc-dbed-45ce-a556-f1c2aca19c38",
        "meta": {
          "security": [
            {
              "system": "http://terminology.hl7.org/CodeSystem/v3-ActReason",
              "code": "HTEST"
            },
            {
              "system": "http://terminology.hl7.org/CodeSystem/v3-ActReason",
              "code": "TRAIN"
            }
          ],
          "tag": [
            {
              "system": "https://synderai.net/fhir/CodeSystem/tags",
              "code": "synthetic",
              "display": "SYNDERAI Synthetic data"
            }
          ],
          "profile": [
            "http://hl7.eu/fhir/base/StructureDefinition/patient-eu-core"
          ]
        },
        "identifier": [
          {
            "type": {
              "coding": [
                {
                  "code": "PT",
                  "system": "http://terminology.hl7.org/CodeSystem/v2-0203"
                }
              ]
            },
            "system": "http://ec.europa.eu/identifier/eci",
            "value": "2437-386280-4"
          },
          {
            "type": {
              "coding": [
                {
                  "code": "MR",
                  "system": "http://terminology.hl7.org/CodeSystem/v2-0203"
                }
              ]
            },
            "system": "http://local.setting.eu/identifier",
            "value": "1d8dc8c5-3a85-b1b5-4101-cca776d0be28"
          }
        ],
        "name": [
          {
            "family": "Balog"
          },
          {
            "given": [
              "Magdolna"
            ]
          },
          {
            "text": "Magdolna Balog"
          }
        ],
        "address": [
          {
            "line": [
              "Ady endre utca 160."
            ],
            "use": "home",
            "type": "physical",
            "postalCode": "3989",
            "city": "Némethídfa",
            "country": "Hungary"
          }
        ],
        "telecom": [
          {
            "system": "phone",
            "value": "+36 46 091-2914"
          }
        ],
        "extension": [
          {
            "url": "http://hl7.org/fhir/StructureDefinition/patient-nationality",
            "valueCodeableConcept": {
              "coding": [
                {
                  "code": "HU",
                  "system": "http://hl7.org/fhir/ValueSet/country"
                }
              ]
            }
          }
        ],
        "text": {
          "status": "generated",
          "div": "<div xmlns=\"http://www.w3.org/1999/xhtml\"><table class=\"hl7__ips\"><tr><td>Magdolna Balog</td><td>female</td><td>21-May-1946</td></tr></table></div>"
        },
        "gender": "female",
        "birthDate": "1946-05-21"
      }
    },
    {
      "fullUrl": "urn:uuid:4e3883eb-4a35-40fc-b8a3-4e8304920222",
      "resource": {
        "resourceType": "ServiceRequest",
        "id": "4e3883eb-4a35-40fc-b8a3-4e8304920222",
        "meta": {
          "profile": [
            "http://hl7.eu/fhir/laboratory/StructureDefinition/ServiceRequest-eu-lab"
          ]
        },
        "identifier": [
          {
            "system": "http://example.org",
            "value": "f55b6f7c-151f-4021-83f0-aef804e16a6e"
          }
        ],
        "specimen": [
          {
            "reference": "urn:uuid:fe1344b1-e257-4468-a0d6-8d995f84f83f"
          },
          {
            "reference": "urn:uuid:7f506f0d-506b-463b-bfa7-7bc7364e2862"
          },
          {
            "reference": "urn:uuid:fed3b471-318d-4c3d-be4b-18b551089921"
          },
          {
            "reference": "urn:uuid:6be03e29-855d-49ec-9285-236674205a84"
          }
        ],
        "reasonCode": [
          {
            "coding": [
              {
                "code": "26929004",
                "system": "http://snomed.info/sct",
                "display": "Alzheimer&#039;s disease"
              }
            ]
          },
          {
            "coding": [
              {
                "code": "414545008",
                "system": "http://snomed.info/sct",
                "display": "Ischemic heart disease"
              }
            ]
          },
          {
            "coding": [
              {
                "code": "49436004",
                "system": "http://snomed.info/sct",
                "display": "Atrial fibrillation"
              }
            ]
          },
          {
            "coding": [
              {
                "code": "64859006",
                "system": "http://snomed.info/sct",
                "display": "Osteoporosis"
              }
            ]
          },
          {
            "coding": [
              {
                "code": "15777000",
                "system": "http://snomed.info/sct",
                "display": "Prediabetes"
              }
            ]
          },
          {
            "coding": [
              {
                "code": "271737000",
                "system": "http://snomed.info/sct",
                "display": "Anemia"
              }
            ]
          }
        ],
        "status": "active",
        "intent": "order",
        "code": {
          "coding": [
            {
              "code": "108252007",
              "system": "http://snomed.info/sct",
              "display": "Laboratory procedure"
            }
          ]
        },
        "subject": {
          "reference": "urn:uuid:fd98e9dc-dbed-45ce-a556-f1c2aca19c38",
          "display": "Magdolna Balog"
        },
        "requester": {
          "reference": "urn:uuid:292e2b48-e454-4c7e-bf3d-2ffed8a15dc9"
        }
      }
    },
    {
      "fullUrl": "urn:uuid:292e2b48-e454-4c7e-bf3d-2ffed8a15dc9",
      "resource": {
        "resourceType": "PractitionerRole",
        "id": "292e2b48-e454-4c7e-bf3d-2ffed8a15dc9",
        "meta": {
          "profile": [
            "http://hl7.eu/fhir/base/StructureDefinition/practitionerRole-eu"
          ]
        },
        "text": {
          "status": "generated",
          "div": "<div xmlns=\"http://www.w3.org/1999/xhtml\">Provider Role Id: 292e2b48-e454-4c7e-bf3d-2ffed8a15dc9</div>"
        },
        "organization": {
          "reference": "urn:uuid:a22bbc5c-81e0-4c06-ab26-5f6ce83c6fec"
        }
      }
    },
    {
      "fullUrl": "urn:uuid:a22bbc5c-81e0-4c06-ab26-5f6ce83c6fec",
      "resource": {
        "resourceType": "Organization",
        "id": "a22bbc5c-81e0-4c06-ab26-5f6ce83c6fec",
        "meta": {
          "profile": [
            "http://hl7.eu/fhir/base/StructureDefinition/organization-eu"
          ]
        },
        "identifier": [
          {
            "assigner": {
              "display": "HL7 Europe"
            },
            "system": "urn:oid:2.16.840.1.113883.2.51.999",
            "value": "f887e671-e267-43b9-8463-6d8efedc14ee"
          }
        ],
        "address": [
          {
            "line": [
              "Csabai kapu 9-11"
            ],
            "city": "Miskolc",
            "postalCode": "3529",
            "country": "Hungary"
          }
        ],
        "text": {
          "status": "generated",
          "div": "<div xmlns=\"http://www.w3.org/1999/xhtml\">Provider Organization: Semmelweis Ignác Egészségügyi Központ és Egyetemi Oktató Kórház</div>"
        },
        "name": "Semmelweis Ignác Egészségügyi Központ és Egyetemi Oktató Kórház"
      }
    },
    {
      "fullUrl": "urn:uuid:fe1344b1-e257-4468-a0d6-8d995f84f83f",
      "resource": {
        "resourceType": "Specimen",
        "id": "fe1344b1-e257-4468-a0d6-8d995f84f83f",
        "meta": {
          "profile": [
            "http://hl7.eu/fhir/laboratory/StructureDefinition/Specimen-eu-lab"
          ]
        },
        "collection": {
          "collectedDateTime": "2017-06-18"
        },
        "text": {
          "status": "generated",
          "div": "<div xmlns=\"http://www.w3.org/1999/xhtml\"><table class=\"hl7__eu__lab__report\"><tr><th>Specimen</th><th>Collection Date</th></tr><tr><td>Whole blood specimen (specimen)</td><td><span class=\"nb\">18-Jun-2017</span></td></tr></table></div>"
        },
        "type": {
          "coding": [
            {
              "code": "258580003",
              "system": "http://snomed.info/sct",
              "display": "Whole blood specimen (specimen)"
            }
          ]
        }
      }
    },
    {
      "fullUrl": "urn:uuid:fe1344b1-e257-4468-a0d6-8d995f84f83f",
      "resource": {
        "resourceType": "Specimen",
        "id": "fe1344b1-e257-4468-a0d6-8d995f84f83f",
        "meta": {
          "profile": [
            "http://hl7.eu/fhir/laboratory/StructureDefinition/Specimen-eu-lab"
          ]
        },
        "collection": {
          "collectedDateTime": "2017-06-18"
        },
        "text": {
          "status": "generated",
          "div": "<div xmlns=\"http://www.w3.org/1999/xhtml\"><table class=\"hl7__eu__lab__report\"><tr><th>Specimen</th><th>Collection Date</th></tr><tr><td>Whole blood specimen (specimen)</td><td><span class=\"nb\">18-Jun-2017</span></td></tr></table></div>"
        },
        "type": {
          "coding": [
            {
              "code": "258580003",
              "system": "http://snomed.info/sct",
              "display": "Whole blood specimen (specimen)"
            }
          ]
        }
      }
    },
    {
      "fullUrl": "urn:uuid:7f506f0d-506b-463b-bfa7-7bc7364e2862",
      "resource": {
        "resourceType": "Specimen",
        "id": "7f506f0d-506b-463b-bfa7-7bc7364e2862",
        "meta": {
          "profile": [
            "http://hl7.eu/fhir/laboratory/StructureDefinition/Specimen-eu-lab"
          ]
        },
        "collection": {
          "collectedDateTime": "2017-06-18"
        },
        "text": {
          "status": "generated",
          "div": "<div xmlns=\"http://www.w3.org/1999/xhtml\"><table class=\"hl7__eu__lab__report\"><tr><th>Specimen</th><th>Collection Date</th></tr><tr><td>Acellular blood (serum or plasma) specimen</td><td><span class=\"nb\">18-Jun-2017</span></td></tr></table></div>"
        },
        "type": {
          "coding": [
            {
              "code": "122592007",
              "system": "http://snomed.info/sct",
              "display": "Acellular blood (serum or plasma) specimen"
            }
          ]
        }
      }
    },
    {
      "fullUrl": "urn:uuid:fed3b471-318d-4c3d-be4b-18b551089921",
      "resource": {
        "resourceType": "Specimen",
        "id": "fed3b471-318d-4c3d-be4b-18b551089921",
        "meta": {
          "profile": [
            "http://hl7.eu/fhir/laboratory/StructureDefinition/Specimen-eu-lab"
          ]
        },
        "collection": {
          "collectedDateTime": "2017-06-18"
        },
        "text": {
          "status": "generated",
          "div": "<div xmlns=\"http://www.w3.org/1999/xhtml\"><table class=\"hl7__eu__lab__report\"><tr><th>Specimen</th><th>Collection Date</th></tr><tr><td>Platelet poor plasma specimen</td><td><span class=\"nb\">18-Jun-2017</span></td></tr></table></div>"
        },
        "type": {
          "coding": [
            {
              "code": "119362004",
              "system": "http://snomed.info/sct",
              "display": "Platelet poor plasma specimen"
            }
          ]
        }
      }
    },
    {
      "fullUrl": "urn:uuid:6be03e29-855d-49ec-9285-236674205a84",
      "resource": {
        "resourceType": "Specimen",
        "id": "6be03e29-855d-49ec-9285-236674205a84",
        "meta": {
          "profile": [
            "http://hl7.eu/fhir/laboratory/StructureDefinition/Specimen-eu-lab"
          ]
        },
        "collection": {
          "collectedDateTime": "2017-06-18"
        },
        "text": {
          "status": "generated",
          "div": "<div xmlns=\"http://www.w3.org/1999/xhtml\"><table class=\"hl7__eu__lab__report\"><tr><th>Specimen</th><th>Collection Date</th></tr><tr><td>Arterial blood specimen</td><td><span class=\"nb\">18-Jun-2017</span></td></tr></table></div>"
        },
        "type": {
          "coding": [
            {
              "code": "122552005",
              "system": "http://snomed.info/sct",
              "display": "Arterial blood specimen"
            }
          ]
        }
      }
    },
    {
      "fullUrl": "urn:uuid:0cc2d18c-cba3-45ed-a2a8-3441cec128f2",
      "resource": {
        "resourceType": "Observation",
        "id": "0cc2d18c-cba3-45ed-a2a8-3441cec128f2",
        "meta": {
          "profile": [
            "http://hl7.eu/fhir/laboratory/StructureDefinition/Observation-resultslab-eu-lab"
          ]
        },
        "performer": [
          {
            "display": "The Central European Lab"
          }
        ],
        "category": [
          {
            "coding": [
              {
                "system": "http://terminology.hl7.org/CodeSystem/observation-category",
                "code": "laboratory"
              }
            ]
          }
        ],
        "code": {
          "coding": [
            {
              "code": "6690-2",
              "system": "http://loinc.org",
              "display": "Leukocytes [#/volume] in Blood by Automated count"
            }
          ],
          "text": "Leukocytes [#/volume] in Blood by Automated count"
        },
        "valueQuantity": {
          "system": "http://unitsofmeasure.org",
          "value": 4.8,
          "unit": "10*3/uL",
          "code": "10*3/uL"
        },
        "referenceRange": [
          {
            "low": {
              "value": 4,
              "code": "10*3/uL",
              "system": "http://unitsofmeasure.org"
            }
          },
          {
            "high": {
              "value": 11,
              "code": "10*3/uL",
              "system": "http://unitsofmeasure.org"
            }
          }
        ],
        "text": {
          "status": "generated",
          "div": "<div xmlns=\"http://www.w3.org/1999/xhtml\"><table class=\"hl7__eu__lab__report\"><tr><th>Test</th><th>18-Jun-2017</th><th>Reference&#xA0;Range</th><th>Unit</th></tr><tr><td>Leukocytes [#/volume] in Blood by Automated count</td><td>4.8</td><td>4 - 11</td><td></td><td>10*3/uL</td></tr></table></div>"
        },
        "status": "final",
        "subject": {
          "reference": "urn:uuid:fd98e9dc-dbed-45ce-a556-f1c2aca19c38",
          "display": "Magdolna Balog"
        },
        "effectiveDateTime": "2017-06-18T14:51:24Z",
        "specimen": {
          "reference": "urn:uuid:fe1344b1-e257-4468-a0d6-8d995f84f83f"
        }
      }
    },
    {
      "fullUrl": "urn:uuid:953293a6-0279-4dd8-acc6-a256717c237e",
      "resource": {
        "resourceType": "Observation",
        "id": "953293a6-0279-4dd8-acc6-a256717c237e",
        "meta": {
          "profile": [
            "http://hl7.eu/fhir/laboratory/StructureDefinition/Observation-resultslab-eu-lab"
          ]
        },
        "performer": [
          {
            "display": "The Central European Lab"
          }
        ],
        "category": [
          {
            "coding": [
              {
                "system": "http://terminology.hl7.org/CodeSystem/observation-category",
                "code": "laboratory"
              }
            ]
          }
        ],
        "code": {
          "coding": [
            {
              "code": "789-8",
              "system": "http://loinc.org",
              "display": "Erythrocytes [#/volume] in Blood by Automated count"
            }
          ],
          "text": "Erythrocytes [#/volume] in Blood by Automated count"
        },
        "valueQuantity": {
          "system": "http://unitsofmeasure.org",
          "value": 3.8,
          "unit": "10*6/uL",
          "code": "10*6/uL"
        },
        "referenceRange": [
          {
            "low": {
              "value": 4.2,
              "code": "10*6/uL",
              "system": "http://unitsofmeasure.org"
            }
          },
          {
            "high": {
              "value": 5.8,
              "code": "10*6/uL",
              "system": "http://unitsofmeasure.org"
            }
          }
        ],
        "interpretation": [
          {
            "coding": [
              {
                "code": "L",
                "system": "http://terminology.hl7.org/CodeSystem/v3-ObservationInterpretation",
                "display": "Low"
              }
            ]
          }
        ],
        "text": {
          "status": "generated",
          "div": "<div xmlns=\"http://www.w3.org/1999/xhtml\"><table class=\"hl7__eu__lab__report\"><tr><th>Test</th><th>18-Jun-2017</th><th>Reference&#xA0;Range</th><th>Unit</th></tr><tr><td>Erythrocytes [#/volume] in Blood by Automated count</td><td>3.8</td><td>4.2 - 5.8</td><td>L</td><td>10*6/uL</td></tr></table></div>"
        },
        "status": "final",
        "subject": {
          "reference": "urn:uuid:fd98e9dc-dbed-45ce-a556-f1c2aca19c38",
          "display": "Magdolna Balog"
        },
        "effectiveDateTime": "2017-06-18T14:51:24Z",
        "specimen": {
          "reference": "urn:uuid:fe1344b1-e257-4468-a0d6-8d995f84f83f"
        }
      }
    },
    {
      "fullUrl": "urn:uuid:f99b872d-8fd7-4b7c-b9b5-195d619710d6",
      "resource": {
        "resourceType": "Observation",
        "id": "f99b872d-8fd7-4b7c-b9b5-195d619710d6",
        "meta": {
          "profile": [
            "http://hl7.eu/fhir/laboratory/StructureDefinition/Observation-resultslab-eu-lab"
          ]
        },
        "performer": [
          {
            "display": "The Central European Lab"
          }
        ],
        "category": [
          {
            "coding": [
              {
                "system": "http://terminology.hl7.org/CodeSystem/observation-category",
                "code": "laboratory"
              }
            ]
          }
        ],
        "code": {
          "coding": [
            {
              "code": "718-7",
              "system": "http://loinc.org",
              "display": "Hemoglobin [Mass/volume] in Blood"
            }
          ],
          "text": "Hemoglobin [Mass/volume] in Blood"
        },
        "valueQuantity": {
          "system": "http://unitsofmeasure.org",
          "value": 16.1,
          "unit": "g/dL",
          "code": "g/dL"
        },
        "referenceRange": [
          {
            "low": {
              "value": 12,
              "code": "g/dL",
              "system": "http://unitsofmeasure.org"
            }
          },
          {
            "high": {
              "value": 16,
              "code": "g/dL",
              "system": "http://unitsofmeasure.org"
            }
          }
        ],
        "interpretation": [
          {
            "coding": [
              {
                "code": "H",
                "system": "http://terminology.hl7.org/CodeSystem/v3-ObservationInterpretation",
                "display": "High"
              }
            ]
          }
        ],
        "text": {
          "status": "generated",
          "div": "<div xmlns=\"http://www.w3.org/1999/xhtml\"><table class=\"hl7__eu__lab__report\"><tr><th>Test</th><th>18-Jun-2017</th><th>Reference&#xA0;Range</th><th>Unit</th></tr><tr><td>Hemoglobin [Mass/volume] in Blood</td><td>16.1</td><td>12 - 16</td><td>H</td><td>g/dL</td></tr></table></div>"
        },
        "status": "final",
        "subject": {
          "reference": "urn:uuid:fd98e9dc-dbed-45ce-a556-f1c2aca19c38",
          "display": "Magdolna Balog"
        },
        "effectiveDateTime": "2017-06-18T14:51:24Z",
        "specimen": {
          "reference": "urn:uuid:fe1344b1-e257-4468-a0d6-8d995f84f83f"
        }
      }
    },
    {
      "fullUrl": "urn:uuid:35c0ab62-5b4b-4ea8-8a63-3ece674f5936",
      "resource": {
        "resourceType": "Observation",
        "id": "35c0ab62-5b4b-4ea8-8a63-3ece674f5936",
        "meta": {
          "profile": [
            "http://hl7.eu/fhir/laboratory/StructureDefinition/Observation-resultslab-eu-lab"
          ]
        },
        "performer": [
          {
            "display": "The Central European Lab"
          }
        ],
        "category": [
          {
            "coding": [
              {
                "system": "http://terminology.hl7.org/CodeSystem/observation-category",
                "code": "laboratory"
              }
            ]
          }
        ],
        "code": {
          "coding": [
            {
              "code": "4544-3",
              "system": "http://loinc.org",
              "display": "Hematocrit [Volume Fraction] of Blood by Automated count"
            }
          ],
          "text": "Hematocrit [Volume Fraction] of Blood by Automated count"
        },
        "valueQuantity": {
          "system": "http://unitsofmeasure.org",
          "value": 47.5,
          "unit": "%",
          "code": "%"
        },
        "referenceRange": [
          {
            "low": {
              "value": 36,
              "code": "%",
              "system": "http://unitsofmeasure.org"
            }
          },
          {
            "high": {
              "value": 48,
              "code": "%",
              "system": "http://unitsofmeasure.org"
            }
          }
        ],
        "text": {
          "status": "generated",
          "div": "<div xmlns=\"http://www.w3.org/1999/xhtml\"><table class=\"hl7__eu__lab__report\"><tr><th>Test</th><th>18-Jun-2017</th><th>Reference&#xA0;Range</th><th>Unit</th></tr><tr><td>Hematocrit [Volume Fraction] of Blood by Automated count</td><td>47.5</td><td>36 - 48</td><td></td><td>%</td></tr></table></div>"
        },
        "status": "final",
        "subject": {
          "reference": "urn:uuid:fd98e9dc-dbed-45ce-a556-f1c2aca19c38",
          "display": "Magdolna Balog"
        },
        "effectiveDateTime": "2017-06-18T14:51:24Z",
        "specimen": {
          "reference": "urn:uuid:fe1344b1-e257-4468-a0d6-8d995f84f83f"
        }
      }
    },
    {
      "fullUrl": "urn:uuid:5e8ffd47-415e-4b2c-9a4a-cb2e7d2439f3",
      "resource": {
        "resourceType": "Observation",
        "id": "5e8ffd47-415e-4b2c-9a4a-cb2e7d2439f3",
        "meta": {
          "profile": [
            "http://hl7.eu/fhir/laboratory/StructureDefinition/Observation-resultslab-eu-lab"
          ]
        },
        "performer": [
          {
            "display": "The Central European Lab"
          }
        ],
        "category": [
          {
            "coding": [
              {
                "system": "http://terminology.hl7.org/CodeSystem/observation-category",
                "code": "laboratory"
              }
            ]
          }
        ],
        "code": {
          "coding": [
            {
              "code": "787-2",
              "system": "http://loinc.org",
              "display": "MCV [Entitic volume] by Automated count"
            }
          ],
          "text": "MCV [Entitic volume] by Automated count"
        },
        "valueQuantity": {
          "system": "http://unitsofmeasure.org",
          "value": 92.9,
          "unit": "fL",
          "code": "fL"
        },
        "referenceRange": [
          {
            "low": {
              "value": 78,
              "code": "fL",
              "system": "http://unitsofmeasure.org"
            }
          },
          {
            "high": {
              "value": 98,
              "code": "fL",
              "system": "http://unitsofmeasure.org"
            }
          }
        ],
        "text": {
          "status": "generated",
          "div": "<div xmlns=\"http://www.w3.org/1999/xhtml\"><table class=\"hl7__eu__lab__report\"><tr><th>Test</th><th>18-Jun-2017</th><th>Reference&#xA0;Range</th><th>Unit</th></tr><tr><td>MCV [Entitic volume] by Automated count</td><td>92.9</td><td>78 - 98</td><td></td><td>fL</td></tr></table></div>"
        },
        "status": "final",
        "subject": {
          "reference": "urn:uuid:fd98e9dc-dbed-45ce-a556-f1c2aca19c38",
          "display": "Magdolna Balog"
        },
        "effectiveDateTime": "2017-06-18T14:51:24Z",
        "specimen": {
          "reference": "urn:uuid:fe1344b1-e257-4468-a0d6-8d995f84f83f"
        }
      }
    },
    {
      "fullUrl": "urn:uuid:dd1ddd0a-68c1-44eb-b868-21bdfb5a4d3c",
      "resource": {
        "resourceType": "Observation",
        "id": "dd1ddd0a-68c1-44eb-b868-21bdfb5a4d3c",
        "meta": {
          "profile": [
            "http://hl7.eu/fhir/laboratory/StructureDefinition/Observation-resultslab-eu-lab"
          ]
        },
        "performer": [
          {
            "display": "The Central European Lab"
          }
        ],
        "category": [
          {
            "coding": [
              {
                "system": "http://terminology.hl7.org/CodeSystem/observation-category",
                "code": "laboratory"
              }
            ]
          }
        ],
        "code": {
          "coding": [
            {
              "code": "785-6",
              "system": "http://loinc.org",
              "display": "MCH [Entitic mass] by Automated count"
            }
          ],
          "text": "MCH [Entitic mass] by Automated count"
        },
        "valueQuantity": {
          "system": "http://unitsofmeasure.org",
          "value": 28.5,
          "unit": "pg",
          "code": "pg"
        },
        "referenceRange": [
          {
            "low": {
              "value": 27,
              "code": "pg",
              "system": "http://unitsofmeasure.org"
            }
          },
          {
            "high": {
              "value": 34.5,
              "code": "pg",
              "system": "http://unitsofmeasure.org"
            }
          }
        ],
        "text": {
          "status": "generated",
          "div": "<div xmlns=\"http://www.w3.org/1999/xhtml\"><table class=\"hl7__eu__lab__report\"><tr><th>Test</th><th>18-Jun-2017</th><th>Reference&#xA0;Range</th><th>Unit</th></tr><tr><td>MCH [Entitic mass] by Automated count</td><td>28.5</td><td>27 - 34.5</td><td></td><td>pg</td></tr></table></div>"
        },
        "status": "final",
        "subject": {
          "reference": "urn:uuid:fd98e9dc-dbed-45ce-a556-f1c2aca19c38",
          "display": "Magdolna Balog"
        },
        "effectiveDateTime": "2017-06-18T14:51:24Z",
        "specimen": {
          "reference": "urn:uuid:fe1344b1-e257-4468-a0d6-8d995f84f83f"
        }
      }
    },
    {
      "fullUrl": "urn:uuid:268f08e3-10df-4f19-b368-5eac033670d9",
      "resource": {
        "resourceType": "Observation",
        "id": "268f08e3-10df-4f19-b368-5eac033670d9",
        "meta": {
          "profile": [
            "http://hl7.eu/fhir/laboratory/StructureDefinition/Observation-resultslab-eu-lab"
          ]
        },
        "performer": [
          {
            "display": "The Central European Lab"
          }
        ],
        "category": [
          {
            "coding": [
              {
                "system": "http://terminology.hl7.org/CodeSystem/observation-category",
                "code": "laboratory"
              }
            ]
          }
        ],
        "code": {
          "coding": [
            {
              "code": "786-4",
              "system": "http://loinc.org",
              "display": "MCHC [Mass/volume] by Automated count"
            }
          ],
          "text": "MCHC [Mass/volume] by Automated count"
        },
        "valueQuantity": {
          "system": "http://unitsofmeasure.org",
          "value": 31.9,
          "unit": "g/dL",
          "code": "g/dL"
        },
        "referenceRange": [
          {
            "low": {
              "value": 31.5,
              "code": "g/dL",
              "system": "http://unitsofmeasure.org"
            }
          },
          {
            "high": {
              "value": 35.5,
              "code": "g/dL",
              "system": "http://unitsofmeasure.org"
            }
          }
        ],
        "text": {
          "status": "generated",
          "div": "<div xmlns=\"http://www.w3.org/1999/xhtml\"><table class=\"hl7__eu__lab__report\"><tr><th>Test</th><th>18-Jun-2017</th><th>Reference&#xA0;Range</th><th>Unit</th></tr><tr><td>MCHC [Mass/volume] by Automated count</td><td>31.9</td><td>31.5 - 35.5</td><td></td><td>g/dL</td></tr></table></div>"
        },
        "status": "final",
        "subject": {
          "reference": "urn:uuid:fd98e9dc-dbed-45ce-a556-f1c2aca19c38",
          "display": "Magdolna Balog"
        },
        "effectiveDateTime": "2017-06-18T14:51:24Z",
        "specimen": {
          "reference": "urn:uuid:fe1344b1-e257-4468-a0d6-8d995f84f83f"
        }
      }
    },
    {
      "fullUrl": "urn:uuid:29972591-df04-4431-b731-74dc794d4079",
      "resource": {
        "resourceType": "Observation",
        "id": "29972591-df04-4431-b731-74dc794d4079",
        "meta": {
          "profile": [
            "http://hl7.eu/fhir/laboratory/StructureDefinition/Observation-resultslab-eu-lab"
          ]
        },
        "performer": [
          {
            "display": "The Central European Lab"
          }
        ],
        "category": [
          {
            "coding": [
              {
                "system": "http://terminology.hl7.org/CodeSystem/observation-category",
                "code": "laboratory"
              }
            ]
          }
        ],
        "code": {
          "coding": [
            {
              "code": "788-0",
              "system": "http://loinc.org",
              "display": "Erythrocyte distribution width [Ratio] by Automated count"
            }
          ],
          "text": "Erythrocyte distribution width [Ratio] by Automated count"
        },
        "valueQuantity": {
          "system": "http://unitsofmeasure.org",
          "value": 12.9,
          "unit": "%",
          "code": "%"
        },
        "referenceRange": [
          {
            "low": {
              "value": 11.5,
              "code": "%",
              "system": "http://unitsofmeasure.org"
            }
          },
          {
            "high": {
              "value": 16,
              "code": "%",
              "system": "http://unitsofmeasure.org"
            }
          }
        ],
        "text": {
          "status": "generated",
          "div": "<div xmlns=\"http://www.w3.org/1999/xhtml\"><table class=\"hl7__eu__lab__report\"><tr><th>Test</th><th>18-Jun-2017</th><th>Reference&#xA0;Range</th><th>Unit</th></tr><tr><td>Erythrocyte distribution width [Ratio] by Automated count</td><td>12.9</td><td>11.5 - 16</td><td></td><td>%</td></tr></table></div>"
        },
        "status": "final",
        "subject": {
          "reference": "urn:uuid:fd98e9dc-dbed-45ce-a556-f1c2aca19c38",
          "display": "Magdolna Balog"
        },
        "effectiveDateTime": "2017-06-18T14:51:24Z",
        "specimen": {
          "reference": "urn:uuid:fe1344b1-e257-4468-a0d6-8d995f84f83f"
        }
      }
    },
    {
      "fullUrl": "urn:uuid:39ae44d0-4a9a-43b1-a9a7-3b2c24284759",
      "resource": {
        "resourceType": "Observation",
        "id": "39ae44d0-4a9a-43b1-a9a7-3b2c24284759",
        "meta": {
          "profile": [
            "http://hl7.eu/fhir/laboratory/StructureDefinition/Observation-resultslab-eu-lab"
          ]
        },
        "performer": [
          {
            "display": "The Central European Lab"
          }
        ],
        "category": [
          {
            "coding": [
              {
                "system": "http://terminology.hl7.org/CodeSystem/observation-category",
                "code": "laboratory"
              }
            ]
          }
        ],
        "code": {
          "coding": [
            {
              "code": "777-3",
              "system": "http://loinc.org",
              "display": "Platelets [#/volume] in Blood by Automated count"
            }
          ],
          "text": "Platelets [#/volume] in Blood by Automated count"
        },
        "valueQuantity": {
          "system": "http://unitsofmeasure.org",
          "value": 270.4,
          "unit": "10*3/uL",
          "code": "10*3/uL"
        },
        "referenceRange": [
          {
            "low": {
              "value": 150,
              "code": "10*3/uL",
              "system": "http://unitsofmeasure.org"
            }
          },
          {
            "high": {
              "value": 350,
              "code": "10*3/uL",
              "system": "http://unitsofmeasure.org"
            }
          }
        ],
        "text": {
          "status": "generated",
          "div": "<div xmlns=\"http://www.w3.org/1999/xhtml\"><table class=\"hl7__eu__lab__report\"><tr><th>Test</th><th>18-Jun-2017</th><th>Reference&#xA0;Range</th><th>Unit</th></tr><tr><td>Platelets [#/volume] in Blood by Automated count</td><td>270.4</td><td>150 - 350</td><td></td><td>10*3/uL</td></tr></table></div>"
        },
        "status": "final",
        "subject": {
          "reference": "urn:uuid:fd98e9dc-dbed-45ce-a556-f1c2aca19c38",
          "display": "Magdolna Balog"
        },
        "effectiveDateTime": "2017-06-18T14:51:24Z",
        "specimen": {
          "reference": "urn:uuid:fe1344b1-e257-4468-a0d6-8d995f84f83f"
        }
      }
    },
    {
      "fullUrl": "urn:uuid:651f22e8-13ce-4c27-984a-c845f821a19a",
      "resource": {
        "resourceType": "Observation",
        "id": "651f22e8-13ce-4c27-984a-c845f821a19a",
        "meta": {
          "profile": [
            "http://hl7.eu/fhir/laboratory/StructureDefinition/Observation-resultslab-eu-lab"
          ]
        },
        "performer": [
          {
            "display": "The Central European Lab"
          }
        ],
        "category": [
          {
            "coding": [
              {
                "system": "http://terminology.hl7.org/CodeSystem/observation-category",
                "code": "laboratory"
              }
            ]
          }
        ],
        "code": {
          "coding": [
            {
              "code": "2345-7",
              "system": "http://loinc.org",
              "display": "Glucose [Mass/volume] in Serum or Plasma"
            }
          ],
          "text": "Glucose [Mass/volume] in Serum or Plasma"
        },
        "valueQuantity": {
          "system": "http://unitsofmeasure.org",
          "value": 83.3,
          "unit": "mg/dL",
          "code": "mg/dL"
        },
        "referenceRange": [
          {
            "low": {
              "value": 70,
              "code": "mg/dL",
              "system": "http://unitsofmeasure.org"
            }
          },
          {
            "high": {
              "value": 140,
              "code": "mg/dL",
              "system": "http://unitsofmeasure.org"
            }
          }
        ],
        "text": {
          "status": "generated",
          "div": "<div xmlns=\"http://www.w3.org/1999/xhtml\"><table class=\"hl7__eu__lab__report\"><tr><th>Test</th><th>18-Jun-2017</th><th>Reference&#xA0;Range</th><th>Unit</th></tr><tr><td>Glucose [Mass/volume] in Serum or Plasma</td><td>83.3</td><td>70 - 140</td><td></td><td>mg/dL</td></tr></table></div>"
        },
        "status": "final",
        "subject": {
          "reference": "urn:uuid:fd98e9dc-dbed-45ce-a556-f1c2aca19c38",
          "display": "Magdolna Balog"
        },
        "effectiveDateTime": "2017-06-18T14:51:24Z",
        "specimen": {
          "reference": "urn:uuid:7f506f0d-506b-463b-bfa7-7bc7364e2862"
        }
      }
    },
    {
      "fullUrl": "urn:uuid:6b723366-769c-4025-8537-ff884d7e00cb",
      "resource": {
        "resourceType": "Observation",
        "id": "6b723366-769c-4025-8537-ff884d7e00cb",
        "meta": {
          "profile": [
            "http://hl7.eu/fhir/laboratory/StructureDefinition/Observation-resultslab-eu-lab"
          ]
        },
        "performer": [
          {
            "display": "The Central European Lab"
          }
        ],
        "category": [
          {
            "coding": [
              {
                "system": "http://terminology.hl7.org/CodeSystem/observation-category",
                "code": "laboratory"
              }
            ]
          }
        ],
        "code": {
          "coding": [
            {
              "code": "3094-0",
              "system": "http://loinc.org",
              "display": "Urea nitrogen [Mass/volume] in Serum or Plasma"
            }
          ],
          "text": "Urea nitrogen [Mass/volume] in Serum or Plasma"
        },
        "valueQuantity": {
          "system": "http://unitsofmeasure.org",
          "value": 16.7,
          "unit": "mg/dL",
          "code": "mg/dL"
        },
        "referenceRange": [
          {
            "low": {
              "value": 7,
              "code": "mg/dL",
              "system": "http://unitsofmeasure.org"
            }
          },
          {
            "high": {
              "value": 25,
              "code": "mg/dL",
              "system": "http://unitsofmeasure.org"
            }
          }
        ],
        "text": {
          "status": "generated",
          "div": "<div xmlns=\"http://www.w3.org/1999/xhtml\"><table class=\"hl7__eu__lab__report\"><tr><th>Test</th><th>18-Jun-2017</th><th>Reference&#xA0;Range</th><th>Unit</th></tr><tr><td>Urea nitrogen [Mass/volume] in Serum or Plasma</td><td>16.7</td><td>7 - 25</td><td></td><td>mg/dL</td></tr></table></div>"
        },
        "status": "final",
        "subject": {
          "reference": "urn:uuid:fd98e9dc-dbed-45ce-a556-f1c2aca19c38",
          "display": "Magdolna Balog"
        },
        "effectiveDateTime": "2017-06-18T14:51:24Z",
        "specimen": {
          "reference": "urn:uuid:7f506f0d-506b-463b-bfa7-7bc7364e2862"
        }
      }
    },
    {
      "fullUrl": "urn:uuid:ae3c3672-1c20-4c95-83cf-d8a2957bb89c",
      "resource": {
        "resourceType": "Observation",
        "id": "ae3c3672-1c20-4c95-83cf-d8a2957bb89c",
        "meta": {
          "profile": [
            "http://hl7.eu/fhir/laboratory/StructureDefinition/Observation-resultslab-eu-lab"
          ]
        },
        "performer": [
          {
            "display": "The Central European Lab"
          }
        ],
        "category": [
          {
            "coding": [
              {
                "system": "http://terminology.hl7.org/CodeSystem/observation-category",
                "code": "laboratory"
              }
            ]
          }
        ],
        "code": {
          "coding": [
            {
              "code": "2160-0",
              "system": "http://loinc.org",
              "display": "Creatinine [Mass/volume] in Serum or Plasma"
            }
          ],
          "text": "Creatinine [Mass/volume] in Serum or Plasma"
        },
        "valueQuantity": {
          "system": "http://unitsofmeasure.org",
          "value": 2.7,
          "unit": "mg/dL",
          "code": "mg/dL"
        },
        "referenceRange": [
          {
            "low": {
              "value": 0.6,
              "code": "mg/dL",
              "system": "http://unitsofmeasure.org"
            }
          },
          {
            "high": {
              "value": 1.1,
              "code": "mg/dL",
              "system": "http://unitsofmeasure.org"
            }
          }
        ],
        "interpretation": [
          {
            "coding": [
              {
                "code": "H",
                "system": "http://terminology.hl7.org/CodeSystem/v3-ObservationInterpretation",
                "display": "High"
              }
            ]
          }
        ],
        "text": {
          "status": "generated",
          "div": "<div xmlns=\"http://www.w3.org/1999/xhtml\"><table class=\"hl7__eu__lab__report\"><tr><th>Test</th><th>18-Jun-2017</th><th>Reference&#xA0;Range</th><th>Unit</th></tr><tr><td>Creatinine [Mass/volume] in Serum or Plasma</td><td>2.7</td><td>0.6 - 1.1</td><td>H</td><td>mg/dL</td></tr></table></div>"
        },
        "status": "final",
        "subject": {
          "reference": "urn:uuid:fd98e9dc-dbed-45ce-a556-f1c2aca19c38",
          "display": "Magdolna Balog"
        },
        "effectiveDateTime": "2017-06-18T14:51:24Z",
        "specimen": {
          "reference": "urn:uuid:7f506f0d-506b-463b-bfa7-7bc7364e2862"
        }
      }
    },
    {
      "fullUrl": "urn:uuid:d73f7ee1-01a7-4f8b-99f8-f3c0b7c0e2c0",
      "resource": {
        "resourceType": "Observation",
        "id": "d73f7ee1-01a7-4f8b-99f8-f3c0b7c0e2c0",
        "meta": {
          "profile": [
            "http://hl7.eu/fhir/laboratory/StructureDefinition/Observation-resultslab-eu-lab"
          ]
        },
        "performer": [
          {
            "display": "The Central European Lab"
          }
        ],
        "category": [
          {
            "coding": [
              {
                "system": "http://terminology.hl7.org/CodeSystem/observation-category",
                "code": "laboratory"
              }
            ]
          }
        ],
        "code": {
          "coding": [
            {
              "code": "17861-6",
              "system": "http://loinc.org",
              "display": "Calcium [Mass/volume] in Serum or Plasma"
            }
          ],
          "text": "Calcium [Mass/volume] in Serum or Plasma"
        },
        "valueQuantity": {
          "system": "http://unitsofmeasure.org",
          "value": 10.2,
          "unit": "mg/dL",
          "code": "mg/dL"
        },
        "referenceRange": [
          {
            "low": {
              "value": 8.5,
              "code": "mg/dL",
              "system": "http://unitsofmeasure.org"
            }
          },
          {
            "high": {
              "value": 10.4,
              "code": "mg/dL",
              "system": "http://unitsofmeasure.org"
            }
          }
        ],
        "text": {
          "status": "generated",
          "div": "<div xmlns=\"http://www.w3.org/1999/xhtml\"><table class=\"hl7__eu__lab__report\"><tr><th>Test</th><th>18-Jun-2017</th><th>Reference&#xA0;Range</th><th>Unit</th></tr><tr><td>Calcium [Mass/volume] in Serum or Plasma</td><td>10.2</td><td>8.5 - 10.4</td><td></td><td>mg/dL</td></tr></table></div>"
        },
        "status": "final",
        "subject": {
          "reference": "urn:uuid:fd98e9dc-dbed-45ce-a556-f1c2aca19c38",
          "display": "Magdolna Balog"
        },
        "effectiveDateTime": "2017-06-18T14:51:24Z",
        "specimen": {
          "reference": "urn:uuid:7f506f0d-506b-463b-bfa7-7bc7364e2862"
        }
      }
    },
    {
      "fullUrl": "urn:uuid:029fbdf7-02af-4823-aefa-6e7fdeec6d5c",
      "resource": {
        "resourceType": "Observation",
        "id": "029fbdf7-02af-4823-aefa-6e7fdeec6d5c",
        "meta": {
          "profile": [
            "http://hl7.eu/fhir/laboratory/StructureDefinition/Observation-resultslab-eu-lab"
          ]
        },
        "performer": [
          {
            "display": "The Central European Lab"
          }
        ],
        "category": [
          {
            "coding": [
              {
                "system": "http://terminology.hl7.org/CodeSystem/observation-category",
                "code": "laboratory"
              }
            ]
          }
        ],
        "code": {
          "coding": [
            {
              "code": "2951-2",
              "system": "http://loinc.org",
              "display": "Sodium [Moles/volume] in Serum or Plasma"
            }
          ],
          "text": "Sodium [Moles/volume] in Serum or Plasma"
        },
        "valueQuantity": {
          "system": "http://unitsofmeasure.org",
          "value": 142.6,
          "unit": "mmol/L",
          "code": "mmol/L"
        },
        "referenceRange": [
          {
            "low": {
              "value": 135,
              "code": "mmol/L",
              "system": "http://unitsofmeasure.org"
            }
          },
          {
            "high": {
              "value": 145,
              "code": "mmol/L",
              "system": "http://unitsofmeasure.org"
            }
          }
        ],
        "text": {
          "status": "generated",
          "div": "<div xmlns=\"http://www.w3.org/1999/xhtml\"><table class=\"hl7__eu__lab__report\"><tr><th>Test</th><th>18-Jun-2017</th><th>Reference&#xA0;Range</th><th>Unit</th></tr><tr><td>Sodium [Moles/volume] in Serum or Plasma</td><td>142.6</td><td>135 - 145</td><td></td><td>mmol/L</td></tr></table></div>"
        },
        "status": "final",
        "subject": {
          "reference": "urn:uuid:fd98e9dc-dbed-45ce-a556-f1c2aca19c38",
          "display": "Magdolna Balog"
        },
        "effectiveDateTime": "2017-06-18T14:51:24Z",
        "specimen": {
          "reference": "urn:uuid:7f506f0d-506b-463b-bfa7-7bc7364e2862"
        }
      }
    },
    {
      "fullUrl": "urn:uuid:75c21e44-fedb-4c81-9abc-e8cb1eb13cc7",
      "resource": {
        "resourceType": "Observation",
        "id": "75c21e44-fedb-4c81-9abc-e8cb1eb13cc7",
        "meta": {
          "profile": [
            "http://hl7.eu/fhir/laboratory/StructureDefinition/Observation-resultslab-eu-lab"
          ]
        },
        "performer": [
          {
            "display": "The Central European Lab"
          }
        ],
        "category": [
          {
            "coding": [
              {
                "system": "http://terminology.hl7.org/CodeSystem/observation-category",
                "code": "laboratory"
              }
            ]
          }
        ],
        "code": {
          "coding": [
            {
              "code": "2823-3",
              "system": "http://loinc.org",
              "display": "Potassium [Moles/volume] in Serum or Plasma"
            }
          ],
          "text": "Potassium [Moles/volume] in Serum or Plasma"
        },
        "valueQuantity": {
          "system": "http://unitsofmeasure.org",
          "value": 4,
          "unit": "mmol/L",
          "code": "mmol/L"
        },
        "referenceRange": [
          {
            "low": {
              "value": 3.5,
              "code": "mmol/L",
              "system": "http://unitsofmeasure.org"
            }
          },
          {
            "high": {
              "value": 5.3,
              "code": "mmol/L",
              "system": "http://unitsofmeasure.org"
            }
          }
        ],
        "text": {
          "status": "generated",
          "div": "<div xmlns=\"http://www.w3.org/1999/xhtml\"><table class=\"hl7__eu__lab__report\"><tr><th>Test</th><th>18-Jun-2017</th><th>Reference&#xA0;Range</th><th>Unit</th></tr><tr><td>Potassium [Moles/volume] in Serum or Plasma</td><td>4.0</td><td>3.5 - 5.3</td><td></td><td>mmol/L</td></tr></table></div>"
        },
        "status": "final",
        "subject": {
          "reference": "urn:uuid:fd98e9dc-dbed-45ce-a556-f1c2aca19c38",
          "display": "Magdolna Balog"
        },
        "effectiveDateTime": "2017-06-18T14:51:24Z",
        "specimen": {
          "reference": "urn:uuid:7f506f0d-506b-463b-bfa7-7bc7364e2862"
        }
      }
    },
    {
      "fullUrl": "urn:uuid:7d7f1fe1-34bd-4126-8a33-8e4c32eb5774",
      "resource": {
        "resourceType": "Observation",
        "id": "7d7f1fe1-34bd-4126-8a33-8e4c32eb5774",
        "meta": {
          "profile": [
            "http://hl7.eu/fhir/laboratory/StructureDefinition/Observation-resultslab-eu-lab"
          ]
        },
        "performer": [
          {
            "display": "The Central European Lab"
          }
        ],
        "category": [
          {
            "coding": [
              {
                "system": "http://terminology.hl7.org/CodeSystem/observation-category",
                "code": "laboratory"
              }
            ]
          }
        ],
        "code": {
          "coding": [
            {
              "code": "2075-0",
              "system": "http://loinc.org",
              "display": "Chloride [Moles/volume] in Serum or Plasma"
            }
          ],
          "text": "Chloride [Moles/volume] in Serum or Plasma"
        },
        "valueQuantity": {
          "system": "http://unitsofmeasure.org",
          "value": 105.7,
          "unit": "mmol/L",
          "code": "mmol/L"
        },
        "referenceRange": [
          {
            "low": {
              "value": 98,
              "code": "mmol/L",
              "system": "http://unitsofmeasure.org"
            }
          },
          {
            "high": {
              "value": 108,
              "code": "mmol/L",
              "system": "http://unitsofmeasure.org"
            }
          }
        ],
        "text": {
          "status": "generated",
          "div": "<div xmlns=\"http://www.w3.org/1999/xhtml\"><table class=\"hl7__eu__lab__report\"><tr><th>Test</th><th>18-Jun-2017</th><th>Reference&#xA0;Range</th><th>Unit</th></tr><tr><td>Chloride [Moles/volume] in Serum or Plasma</td><td>105.7</td><td>98 - 108</td><td></td><td>mmol/L</td></tr></table></div>"
        },
        "status": "final",
        "subject": {
          "reference": "urn:uuid:fd98e9dc-dbed-45ce-a556-f1c2aca19c38",
          "display": "Magdolna Balog"
        },
        "effectiveDateTime": "2017-06-18T14:51:24Z",
        "specimen": {
          "reference": "urn:uuid:7f506f0d-506b-463b-bfa7-7bc7364e2862"
        }
      }
    },
    {
      "fullUrl": "urn:uuid:a8e797cb-4eb0-4f38-8ae5-d34416602df2",
      "resource": {
        "resourceType": "Observation",
        "id": "a8e797cb-4eb0-4f38-8ae5-d34416602df2",
        "meta": {
          "profile": [
            "http://hl7.eu/fhir/laboratory/StructureDefinition/Observation-resultslab-eu-lab"
          ]
        },
        "performer": [
          {
            "display": "The Central European Lab"
          }
        ],
        "category": [
          {
            "coding": [
              {
                "system": "http://terminology.hl7.org/CodeSystem/observation-category",
                "code": "laboratory"
              }
            ]
          }
        ],
        "code": {
          "coding": [
            {
              "code": "2028-9",
              "system": "http://loinc.org",
              "display": "Carbon dioxide, total [Moles/volume] in Serum or Plasma"
            }
          ],
          "text": "Carbon dioxide, total [Moles/volume] in Serum or Plasma"
        },
        "valueQuantity": {
          "system": "http://unitsofmeasure.org",
          "value": 25.6,
          "unit": "mmol/L",
          "code": "mmol/L"
        },
        "referenceRange": [
          {
            "low": {
              "value": 22,
              "code": "mmol/L",
              "system": "http://unitsofmeasure.org"
            }
          },
          {
            "high": {
              "value": 29,
              "code": "mmol/L",
              "system": "http://unitsofmeasure.org"
            }
          }
        ],
        "text": {
          "status": "generated",
          "div": "<div xmlns=\"http://www.w3.org/1999/xhtml\"><table class=\"hl7__eu__lab__report\"><tr><th>Test</th><th>18-Jun-2017</th><th>Reference&#xA0;Range</th><th>Unit</th></tr><tr><td>Carbon dioxide, total [Moles/volume] in Serum or Plasma</td><td>25.6</td><td>22 - 29</td><td></td><td>mmol/L</td></tr></table></div>"
        },
        "status": "final",
        "subject": {
          "reference": "urn:uuid:fd98e9dc-dbed-45ce-a556-f1c2aca19c38",
          "display": "Magdolna Balog"
        },
        "effectiveDateTime": "2017-06-18T14:51:24Z",
        "specimen": {
          "reference": "urn:uuid:7f506f0d-506b-463b-bfa7-7bc7364e2862"
        }
      }
    },
    {
      "fullUrl": "urn:uuid:4af02ff3-af73-4b1c-b8fd-3612354f7732",
      "resource": {
        "resourceType": "Observation",
        "id": "4af02ff3-af73-4b1c-b8fd-3612354f7732",
        "meta": {
          "profile": [
            "http://hl7.eu/fhir/laboratory/StructureDefinition/Observation-resultslab-eu-lab"
          ]
        },
        "performer": [
          {
            "display": "The Central European Lab"
          }
        ],
        "category": [
          {
            "coding": [
              {
                "system": "http://terminology.hl7.org/CodeSystem/observation-category",
                "code": "laboratory"
              }
            ]
          }
        ],
        "code": {
          "coding": [
            {
              "code": "2885-2",
              "system": "http://loinc.org",
              "display": "Protein [Mass/volume] in Serum or Plasma"
            }
          ],
          "text": "Protein [Mass/volume] in Serum or Plasma"
        },
        "valueQuantity": {
          "system": "http://unitsofmeasure.org",
          "value": 8.2,
          "unit": "g/dL",
          "code": "g/dL"
        },
        "referenceRange": [
          {
            "low": {
              "value": 6,
              "code": "g/dL",
              "system": "http://unitsofmeasure.org"
            }
          },
          {
            "high": {
              "value": 8.3,
              "code": "g/dL",
              "system": "http://unitsofmeasure.org"
            }
          }
        ],
        "text": {
          "status": "generated",
          "div": "<div xmlns=\"http://www.w3.org/1999/xhtml\"><table class=\"hl7__eu__lab__report\"><tr><th>Test</th><th>18-Jun-2017</th><th>Reference&#xA0;Range</th><th>Unit</th></tr><tr><td>Protein [Mass/volume] in Serum or Plasma</td><td>8.2</td><td>6 - 8.3</td><td></td><td>g/dL</td></tr></table></div>"
        },
        "status": "final",
        "subject": {
          "reference": "urn:uuid:fd98e9dc-dbed-45ce-a556-f1c2aca19c38",
          "display": "Magdolna Balog"
        },
        "effectiveDateTime": "2017-06-18T14:51:24Z",
        "specimen": {
          "reference": "urn:uuid:7f506f0d-506b-463b-bfa7-7bc7364e2862"
        }
      }
    },
    {
      "fullUrl": "urn:uuid:10676f04-d4c8-47f6-a225-10778039ef85",
      "resource": {
        "resourceType": "Observation",
        "id": "10676f04-d4c8-47f6-a225-10778039ef85",
        "meta": {
          "profile": [
            "http://hl7.eu/fhir/laboratory/StructureDefinition/Observation-resultslab-eu-lab"
          ]
        },
        "performer": [
          {
            "display": "The Central European Lab"
          }
        ],
        "category": [
          {
            "coding": [
              {
                "system": "http://terminology.hl7.org/CodeSystem/observation-category",
                "code": "laboratory"
              }
            ]
          }
        ],
        "code": {
          "coding": [
            {
              "code": "1751-7",
              "system": "http://loinc.org",
              "display": "Albumin [Mass/volume] in Serum or Plasma"
            }
          ],
          "text": "Albumin [Mass/volume] in Serum or Plasma"
        },
        "valueQuantity": {
          "system": "http://unitsofmeasure.org",
          "value": 4,
          "unit": "g/dL",
          "code": "g/dL"
        },
        "referenceRange": [
          {
            "low": {
              "value": 3.5,
              "code": "g/dL",
              "system": "http://unitsofmeasure.org"
            }
          },
          {
            "high": {
              "value": 5.5,
              "code": "g/dL",
              "system": "http://unitsofmeasure.org"
            }
          }
        ],
        "text": {
          "status": "generated",
          "div": "<div xmlns=\"http://www.w3.org/1999/xhtml\"><table class=\"hl7__eu__lab__report\"><tr><th>Test</th><th>18-Jun-2017</th><th>Reference&#xA0;Range</th><th>Unit</th></tr><tr><td>Albumin [Mass/volume] in Serum or Plasma</td><td>4.0</td><td>3.5 - 5.5</td><td></td><td>g/dL</td></tr></table></div>"
        },
        "status": "final",
        "subject": {
          "reference": "urn:uuid:fd98e9dc-dbed-45ce-a556-f1c2aca19c38",
          "display": "Magdolna Balog"
        },
        "effectiveDateTime": "2017-06-18T14:51:24Z",
        "specimen": {
          "reference": "urn:uuid:7f506f0d-506b-463b-bfa7-7bc7364e2862"
        }
      }
    },
    {
      "fullUrl": "urn:uuid:80809d87-9dcb-4982-a95a-96ffd3eaabeb",
      "resource": {
        "resourceType": "Observation",
        "id": "80809d87-9dcb-4982-a95a-96ffd3eaabeb",
        "meta": {
          "profile": [
            "http://hl7.eu/fhir/laboratory/StructureDefinition/Observation-resultslab-eu-lab"
          ]
        },
        "performer": [
          {
            "display": "The Central European Lab"
          }
        ],
        "category": [
          {
            "coding": [
              {
                "system": "http://terminology.hl7.org/CodeSystem/observation-category",
                "code": "laboratory"
              }
            ]
          }
        ],
        "code": {
          "coding": [
            {
              "code": "1975-2",
              "system": "http://loinc.org",
              "display": "Bilirubin.total [Mass/volume] in Serum or Plasma"
            }
          ],
          "text": "Bilirubin.total [Mass/volume] in Serum or Plasma"
        },
        "valueQuantity": {
          "system": "http://unitsofmeasure.org",
          "value": 9.6,
          "unit": "mg/dL",
          "code": "mg/dL"
        },
        "referenceRange": [
          {
            "low": {
              "value": 0.3,
              "code": "mg/dL",
              "system": "http://unitsofmeasure.org"
            }
          },
          {
            "high": {
              "value": 1.2,
              "code": "mg/dL",
              "system": "http://unitsofmeasure.org"
            }
          }
        ],
        "interpretation": [
          {
            "coding": [
              {
                "code": "H",
                "system": "http://terminology.hl7.org/CodeSystem/v3-ObservationInterpretation",
                "display": "High"
              }
            ]
          }
        ],
        "text": {
          "status": "generated",
          "div": "<div xmlns=\"http://www.w3.org/1999/xhtml\"><table class=\"hl7__eu__lab__report\"><tr><th>Test</th><th>18-Jun-2017</th><th>Reference&#xA0;Range</th><th>Unit</th></tr><tr><td>Bilirubin.total [Mass/volume] in Serum or Plasma</td><td>9.6</td><td>0.3 - 1.2</td><td>H</td><td>mg/dL</td></tr></table></div>"
        },
        "status": "final",
        "subject": {
          "reference": "urn:uuid:fd98e9dc-dbed-45ce-a556-f1c2aca19c38",
          "display": "Magdolna Balog"
        },
        "effectiveDateTime": "2017-06-18T14:51:24Z",
        "specimen": {
          "reference": "urn:uuid:7f506f0d-506b-463b-bfa7-7bc7364e2862"
        }
      }
    },
    {
      "fullUrl": "urn:uuid:a548babb-8445-4f2a-b632-8bb658c79d3e",
      "resource": {
        "resourceType": "Observation",
        "id": "a548babb-8445-4f2a-b632-8bb658c79d3e",
        "meta": {
          "profile": [
            "http://hl7.eu/fhir/laboratory/StructureDefinition/Observation-resultslab-eu-lab"
          ]
        },
        "performer": [
          {
            "display": "The Central European Lab"
          }
        ],
        "category": [
          {
            "coding": [
              {
                "system": "http://terminology.hl7.org/CodeSystem/observation-category",
                "code": "laboratory"
              }
            ]
          }
        ],
        "code": {
          "coding": [
            {
              "code": "6768-6",
              "system": "http://loinc.org",
              "display": "Alkaline phosphatase [Enzymatic activity/volume] in Serum or Plasma"
            }
          ],
          "text": "Alkaline phosphatase [Enzymatic activity/volume] in Serum or Plasma"
        },
        "valueQuantity": {
          "system": "http://unitsofmeasure.org",
          "value": 84.6,
          "unit": "U/L",
          "code": "U/L"
        },
        "referenceRange": [
          {
            "low": {
              "value": 35,
              "code": "U/L",
              "system": "http://unitsofmeasure.org"
            }
          },
          {
            "high": {
              "value": 270,
              "code": "U/L",
              "system": "http://unitsofmeasure.org"
            }
          }
        ],
        "text": {
          "status": "generated",
          "div": "<div xmlns=\"http://www.w3.org/1999/xhtml\"><table class=\"hl7__eu__lab__report\"><tr><th>Test</th><th>18-Jun-2017</th><th>Reference&#xA0;Range</th><th>Unit</th></tr><tr><td>Alkaline phosphatase [Enzymatic activity/volume] in Serum or Plasma</td><td>84.6</td><td>35 - 270</td><td></td><td>U/L</td></tr></table></div>"
        },
        "status": "final",
        "subject": {
          "reference": "urn:uuid:fd98e9dc-dbed-45ce-a556-f1c2aca19c38",
          "display": "Magdolna Balog"
        },
        "effectiveDateTime": "2017-06-18T14:51:24Z",
        "specimen": {
          "reference": "urn:uuid:7f506f0d-506b-463b-bfa7-7bc7364e2862"
        }
      }
    },
    {
      "fullUrl": "urn:uuid:d9e2ec07-7007-4600-a10f-7f3ecd450671",
      "resource": {
        "resourceType": "Observation",
        "id": "d9e2ec07-7007-4600-a10f-7f3ecd450671",
        "meta": {
          "profile": [
            "http://hl7.eu/fhir/laboratory/StructureDefinition/Observation-resultslab-eu-lab"
          ]
        },
        "performer": [
          {
            "display": "The Central European Lab"
          }
        ],
        "category": [
          {
            "coding": [
              {
                "system": "http://terminology.hl7.org/CodeSystem/observation-category",
                "code": "laboratory"
              }
            ]
          }
        ],
        "code": {
          "coding": [
            {
              "code": "1742-6",
              "system": "http://loinc.org",
              "display": "Alanine aminotransferase [Enzymatic activity/volume] in Serum or Plasma"
            }
          ],
          "text": "Alanine aminotransferase [Enzymatic activity/volume] in Serum or Plasma"
        },
        "valueQuantity": {
          "system": "http://unitsofmeasure.org",
          "value": 17.4,
          "unit": "U/L",
          "code": "U/L"
        },
        "referenceRange": [
          {
            "low": {
              "value": 7,
              "code": "U/L",
              "system": "http://unitsofmeasure.org"
            }
          },
          {
            "high": {
              "value": 60,
              "code": "U/L",
              "system": "http://unitsofmeasure.org"
            }
          }
        ],
        "text": {
          "status": "generated",
          "div": "<div xmlns=\"http://www.w3.org/1999/xhtml\"><table class=\"hl7__eu__lab__report\"><tr><th>Test</th><th>18-Jun-2017</th><th>Reference&#xA0;Range</th><th>Unit</th></tr><tr><td>Alanine aminotransferase [Enzymatic activity/volume] in Serum or Plasma</td><td>17.4</td><td>7 - 60</td><td></td><td>U/L</td></tr></table></div>"
        },
        "status": "final",
        "subject": {
          "reference": "urn:uuid:fd98e9dc-dbed-45ce-a556-f1c2aca19c38",
          "display": "Magdolna Balog"
        },
        "effectiveDateTime": "2017-06-18T14:51:24Z",
        "specimen": {
          "reference": "urn:uuid:7f506f0d-506b-463b-bfa7-7bc7364e2862"
        }
      }
    },
    {
      "fullUrl": "urn:uuid:6639304a-6b60-41c9-9c06-d3a0443e3854",
      "resource": {
        "resourceType": "Observation",
        "id": "6639304a-6b60-41c9-9c06-d3a0443e3854",
        "meta": {
          "profile": [
            "http://hl7.eu/fhir/laboratory/StructureDefinition/Observation-resultslab-eu-lab"
          ]
        },
        "performer": [
          {
            "display": "The Central European Lab"
          }
        ],
        "category": [
          {
            "coding": [
              {
                "system": "http://terminology.hl7.org/CodeSystem/observation-category",
                "code": "laboratory"
              }
            ]
          }
        ],
        "code": {
          "coding": [
            {
              "code": "1920-8",
              "system": "http://loinc.org",
              "display": "Aspartate aminotransferase [Enzymatic activity/volume] in Serum or Plasma"
            }
          ],
          "text": "Aspartate aminotransferase [Enzymatic activity/volume] in Serum or Plasma"
        },
        "valueQuantity": {
          "system": "http://unitsofmeasure.org",
          "value": 33.8,
          "unit": "U/L",
          "code": "U/L"
        },
        "referenceRange": [
          {
            "low": {
              "value": 10,
              "code": "U/L",
              "system": "http://unitsofmeasure.org"
            }
          },
          {
            "high": {
              "value": 40,
              "code": "U/L",
              "system": "http://unitsofmeasure.org"
            }
          }
        ],
        "text": {
          "status": "generated",
          "div": "<div xmlns=\"http://www.w3.org/1999/xhtml\"><table class=\"hl7__eu__lab__report\"><tr><th>Test</th><th>18-Jun-2017</th><th>Reference&#xA0;Range</th><th>Unit</th></tr><tr><td>Aspartate aminotransferase [Enzymatic activity/volume] in Serum or Plasma</td><td>33.8</td><td>10 - 40</td><td></td><td>U/L</td></tr></table></div>"
        },
        "status": "final",
        "subject": {
          "reference": "urn:uuid:fd98e9dc-dbed-45ce-a556-f1c2aca19c38",
          "display": "Magdolna Balog"
        },
        "effectiveDateTime": "2017-06-18T14:51:24Z",
        "specimen": {
          "reference": "urn:uuid:7f506f0d-506b-463b-bfa7-7bc7364e2862"
        }
      }
    },
    {
      "fullUrl": "urn:uuid:bc3c5c62-27ad-4b5a-8966-f67ea3964655",
      "resource": {
        "resourceType": "Observation",
        "id": "bc3c5c62-27ad-4b5a-8966-f67ea3964655",
        "meta": {
          "profile": [
            "http://hl7.eu/fhir/laboratory/StructureDefinition/Observation-resultslab-eu-lab"
          ]
        },
        "performer": [
          {
            "display": "The Central European Lab"
          }
        ],
        "category": [
          {
            "coding": [
              {
                "system": "http://terminology.hl7.org/CodeSystem/observation-category",
                "code": "laboratory"
              }
            ]
          }
        ],
        "code": {
          "coding": [
            {
              "code": "19123-9",
              "system": "http://loinc.org",
              "display": "Magnesium [Mass/volume] in Serum or Plasma"
            }
          ],
          "text": "Magnesium [Mass/volume] in Serum or Plasma"
        },
        "valueQuantity": {
          "system": "http://unitsofmeasure.org",
          "value": 2.2,
          "unit": "mg/dL",
          "code": "mg/dL"
        },
        "referenceRange": [
          {
            "low": {
              "value": 1.6,
              "code": "mg/dL",
              "system": "http://unitsofmeasure.org"
            }
          },
          {
            "high": {
              "value": 2.3,
              "code": "mg/dL",
              "system": "http://unitsofmeasure.org"
            }
          }
        ],
        "text": {
          "status": "generated",
          "div": "<div xmlns=\"http://www.w3.org/1999/xhtml\"><table class=\"hl7__eu__lab__report\"><tr><th>Test</th><th>18-Jun-2017</th><th>Reference&#xA0;Range</th><th>Unit</th></tr><tr><td>Magnesium [Mass/volume] in Serum or Plasma</td><td>2.2</td><td>1.6 - 2.3</td><td></td><td>mg/dL</td></tr></table></div>"
        },
        "status": "final",
        "subject": {
          "reference": "urn:uuid:fd98e9dc-dbed-45ce-a556-f1c2aca19c38",
          "display": "Magdolna Balog"
        },
        "effectiveDateTime": "2017-06-18T14:51:24Z",
        "specimen": {
          "reference": "urn:uuid:7f506f0d-506b-463b-bfa7-7bc7364e2862"
        }
      }
    },
    {
      "fullUrl": "urn:uuid:7f8e7328-4002-4a30-a772-22a9706c7d81",
      "resource": {
        "resourceType": "Observation",
        "id": "7f8e7328-4002-4a30-a772-22a9706c7d81",
        "meta": {
          "profile": [
            "http://hl7.eu/fhir/laboratory/StructureDefinition/Observation-resultslab-eu-lab"
          ]
        },
        "performer": [
          {
            "display": "The Central European Lab"
          }
        ],
        "category": [
          {
            "coding": [
              {
                "system": "http://terminology.hl7.org/CodeSystem/observation-category",
                "code": "laboratory"
              }
            ]
          }
        ],
        "code": {
          "coding": [
            {
              "code": "2777-1",
              "system": "http://loinc.org",
              "display": "Phosphate [Mass/volume] in Serum or Plasma"
            }
          ],
          "text": "Phosphate [Mass/volume] in Serum or Plasma"
        },
        "valueQuantity": {
          "system": "http://unitsofmeasure.org",
          "value": 4,
          "unit": "mg/dL",
          "code": "mg/dL"
        },
        "referenceRange": [
          {
            "low": {
              "value": 2.5,
              "code": "mg/dL",
              "system": "http://unitsofmeasure.org"
            }
          },
          {
            "high": {
              "value": 4.5,
              "code": "mg/dL",
              "system": "http://unitsofmeasure.org"
            }
          }
        ],
        "text": {
          "status": "generated",
          "div": "<div xmlns=\"http://www.w3.org/1999/xhtml\"><table class=\"hl7__eu__lab__report\"><tr><th>Test</th><th>18-Jun-2017</th><th>Reference&#xA0;Range</th><th>Unit</th></tr><tr><td>Phosphate [Mass/volume] in Serum or Plasma</td><td>4.0</td><td>2.5 - 4.5</td><td></td><td>mg/dL</td></tr></table></div>"
        },
        "status": "final",
        "subject": {
          "reference": "urn:uuid:fd98e9dc-dbed-45ce-a556-f1c2aca19c38",
          "display": "Magdolna Balog"
        },
        "effectiveDateTime": "2017-06-18T14:51:24Z",
        "specimen": {
          "reference": "urn:uuid:7f506f0d-506b-463b-bfa7-7bc7364e2862"
        }
      }
    },
    {
      "fullUrl": "urn:uuid:8b19c743-7560-4177-9600-999bd23cb140",
      "resource": {
        "resourceType": "Observation",
        "id": "8b19c743-7560-4177-9600-999bd23cb140",
        "meta": {
          "profile": [
            "http://hl7.eu/fhir/laboratory/StructureDefinition/Observation-resultslab-eu-lab"
          ]
        },
        "performer": [
          {
            "display": "The Central European Lab"
          }
        ],
        "category": [
          {
            "coding": [
              {
                "system": "http://terminology.hl7.org/CodeSystem/observation-category",
                "code": "laboratory"
              }
            ]
          }
        ],
        "code": {
          "coding": [
            {
              "code": "5902-2",
              "system": "http://loinc.org",
              "display": "Prothrombin time (PT)"
            }
          ],
          "text": "Prothrombin time (PT)"
        },
        "valueQuantity": {
          "system": "http://unitsofmeasure.org",
          "value": 10.6,
          "unit": "s",
          "code": "s"
        },
        "referenceRange": [
          {
            "low": {
              "value": 11,
              "code": "s",
              "system": "http://unitsofmeasure.org"
            }
          },
          {
            "high": {
              "value": 15,
              "code": "s",
              "system": "http://unitsofmeasure.org"
            }
          }
        ],
        "interpretation": [
          {
            "coding": [
              {
                "code": "L",
                "system": "http://terminology.hl7.org/CodeSystem/v3-ObservationInterpretation",
                "display": "Low"
              }
            ]
          }
        ],
        "text": {
          "status": "generated",
          "div": "<div xmlns=\"http://www.w3.org/1999/xhtml\"><table class=\"hl7__eu__lab__report\"><tr><th>Test</th><th>18-Jun-2017</th><th>Reference&#xA0;Range</th><th>Unit</th></tr><tr><td>Prothrombin time (PT)</td><td>10.6</td><td>11 - 15</td><td>L</td><td>s</td></tr></table></div>"
        },
        "status": "final",
        "subject": {
          "reference": "urn:uuid:fd98e9dc-dbed-45ce-a556-f1c2aca19c38",
          "display": "Magdolna Balog"
        },
        "effectiveDateTime": "2017-06-18T14:51:24Z",
        "specimen": {
          "reference": "urn:uuid:fed3b471-318d-4c3d-be4b-18b551089921"
        }
      }
    },
    {
      "fullUrl": "urn:uuid:a30d2a98-7fb0-4d48-a0dd-cbcbeff08233",
      "resource": {
        "resourceType": "Observation",
        "id": "a30d2a98-7fb0-4d48-a0dd-cbcbeff08233",
        "meta": {
          "profile": [
            "http://hl7.eu/fhir/laboratory/StructureDefinition/Observation-resultslab-eu-lab"
          ]
        },
        "performer": [
          {
            "display": "The Central European Lab"
          }
        ],
        "category": [
          {
            "coding": [
              {
                "system": "http://terminology.hl7.org/CodeSystem/observation-category",
                "code": "laboratory"
              }
            ]
          }
        ],
        "code": {
          "coding": [
            {
              "code": "6301-6",
              "system": "http://loinc.org",
              "display": "INR in Platelet poor plasma by Coagulation assay"
            }
          ],
          "text": "INR in Platelet poor plasma by Coagulation assay"
        },
        "valueQuantity": {
          "system": "http://unitsofmeasure.org",
          "value": 0.9,
          "unit": "{INR}",
          "code": "{INR}"
        },
        "referenceRange": [
          {
            "low": {
              "value": 0.9,
              "code": "INR",
              "system": "http://unitsofmeasure.org"
            }
          },
          {
            "high": {
              "value": 3,
              "code": "INR",
              "system": "http://unitsofmeasure.org"
            }
          }
        ],
        "text": {
          "status": "generated",
          "div": "<div xmlns=\"http://www.w3.org/1999/xhtml\"><table class=\"hl7__eu__lab__report\"><tr><th>Test</th><th>18-Jun-2017</th><th>Reference&#xA0;Range</th><th>Unit</th></tr><tr><td>INR in Platelet poor plasma by Coagulation assay</td><td>0.9</td><td>0.9 - 3</td><td></td><td>{INR}</td></tr></table></div>"
        },
        "status": "final",
        "subject": {
          "reference": "urn:uuid:fd98e9dc-dbed-45ce-a556-f1c2aca19c38",
          "display": "Magdolna Balog"
        },
        "effectiveDateTime": "2017-06-18T14:51:24Z",
        "specimen": {
          "reference": "urn:uuid:fed3b471-318d-4c3d-be4b-18b551089921"
        }
      }
    },
    {
      "fullUrl": "urn:uuid:b739bd1c-0e6f-4162-9f8c-27f8325de091",
      "resource": {
        "resourceType": "Observation",
        "id": "b739bd1c-0e6f-4162-9f8c-27f8325de091",
        "meta": {
          "profile": [
            "http://hl7.eu/fhir/laboratory/StructureDefinition/Observation-resultslab-eu-lab"
          ]
        },
        "performer": [
          {
            "display": "The Central European Lab"
          }
        ],
        "category": [
          {
            "coding": [
              {
                "system": "http://terminology.hl7.org/CodeSystem/observation-category",
                "code": "laboratory"
              }
            ]
          }
        ],
        "code": {
          "coding": [
            {
              "code": "3173-2",
              "system": "http://loinc.org",
              "display": "aPTT in Blood by Coagulation assay"
            }
          ],
          "text": "aPTT in Blood by Coagulation assay"
        },
        "valueQuantity": {
          "system": "http://unitsofmeasure.org",
          "value": 32.5,
          "unit": "s",
          "code": "s"
        },
        "referenceRange": [
          {
            "low": {
              "value": 25,
              "code": "seconds",
              "system": "http://unitsofmeasure.org"
            }
          },
          {
            "high": {
              "value": 40,
              "code": "seconds",
              "system": "http://unitsofmeasure.org"
            }
          }
        ],
        "text": {
          "status": "generated",
          "div": "<div xmlns=\"http://www.w3.org/1999/xhtml\"><table class=\"hl7__eu__lab__report\"><tr><th>Test</th><th>18-Jun-2017</th><th>Reference&#xA0;Range</th><th>Unit</th></tr><tr><td>aPTT in Blood by Coagulation assay</td><td>32.5</td><td>25 - 40</td><td></td><td>s</td></tr></table></div>"
        },
        "status": "final",
        "subject": {
          "reference": "urn:uuid:fd98e9dc-dbed-45ce-a556-f1c2aca19c38",
          "display": "Magdolna Balog"
        },
        "effectiveDateTime": "2017-06-18T14:51:24Z",
        "specimen": {
          "reference": "urn:uuid:fe1344b1-e257-4468-a0d6-8d995f84f83f"
        }
      }
    },
    {
      "fullUrl": "urn:uuid:54f30793-cf09-4140-af4b-81bc1bdad129",
      "resource": {
        "resourceType": "Observation",
        "id": "54f30793-cf09-4140-af4b-81bc1bdad129",
        "meta": {
          "profile": [
            "http://hl7.eu/fhir/laboratory/StructureDefinition/Observation-resultslab-eu-lab"
          ]
        },
        "performer": [
          {
            "display": "The Central European Lab"
          }
        ],
        "category": [
          {
            "coding": [
              {
                "system": "http://terminology.hl7.org/CodeSystem/observation-category",
                "code": "laboratory"
              }
            ]
          }
        ],
        "code": {
          "coding": [
            {
              "code": "2744-1",
              "system": "http://loinc.org",
              "display": "pH of Arterial blood"
            }
          ],
          "text": "pH of Arterial blood"
        },
        "valueQuantity": {
          "system": "http://unitsofmeasure.org",
          "value": 7.2,
          "unit": "[pH]",
          "code": "[pH]"
        },
        "referenceRange": [
          {
            "low": {
              "value": 7.35,
              "code": "pH",
              "system": "http://unitsofmeasure.org"
            }
          },
          {
            "high": {
              "value": 7.45,
              "code": "pH",
              "system": "http://unitsofmeasure.org"
            }
          }
        ],
        "interpretation": [
          {
            "coding": [
              {
                "code": "L",
                "system": "http://terminology.hl7.org/CodeSystem/v3-ObservationInterpretation",
                "display": "Low"
              }
            ]
          }
        ],
        "text": {
          "status": "generated",
          "div": "<div xmlns=\"http://www.w3.org/1999/xhtml\"><table class=\"hl7__eu__lab__report\"><tr><th>Test</th><th>18-Jun-2017</th><th>Reference&#xA0;Range</th><th>Unit</th></tr><tr><td>pH of Arterial blood</td><td>7.2</td><td>7.35 - 7.45</td><td>L</td><td>[pH]</td></tr></table></div>"
        },
        "status": "final",
        "subject": {
          "reference": "urn:uuid:fd98e9dc-dbed-45ce-a556-f1c2aca19c38",
          "display": "Magdolna Balog"
        },
        "effectiveDateTime": "2017-06-18T14:51:24Z",
        "specimen": {
          "reference": "urn:uuid:6be03e29-855d-49ec-9285-236674205a84"
        }
      }
    },
    {
      "fullUrl": "urn:uuid:83a8dd0d-e638-44b6-ade1-e8dadb35719b",
      "resource": {
        "resourceType": "Observation",
        "id": "83a8dd0d-e638-44b6-ade1-e8dadb35719b",
        "meta": {
          "profile": [
            "http://hl7.eu/fhir/laboratory/StructureDefinition/Observation-resultslab-eu-lab"
          ]
        },
        "performer": [
          {
            "display": "The Central European Lab"
          }
        ],
        "category": [
          {
            "coding": [
              {
                "system": "http://terminology.hl7.org/CodeSystem/observation-category",
                "code": "laboratory"
              }
            ]
          }
        ],
        "code": {
          "coding": [
            {
              "code": "2019-8",
              "system": "http://loinc.org",
              "display": "Carbon dioxide [Partial pressure] in Arterial blood"
            }
          ],
          "text": "Carbon dioxide [Partial pressure] in Arterial blood"
        },
        "valueQuantity": {
          "system": "http://unitsofmeasure.org",
          "value": 38.9,
          "unit": "mm[Hg]",
          "code": "mm[Hg]"
        },
        "referenceRange": [
          {
            "low": {
              "value": 38,
              "code": "mm[Hg]",
              "system": "http://unitsofmeasure.org"
            }
          },
          {
            "high": {
              "value": 48,
              "code": "mm[Hg]",
              "system": "http://unitsofmeasure.org"
            }
          }
        ],
        "text": {
          "status": "generated",
          "div": "<div xmlns=\"http://www.w3.org/1999/xhtml\"><table class=\"hl7__eu__lab__report\"><tr><th>Test</th><th>18-Jun-2017</th><th>Reference&#xA0;Range</th><th>Unit</th></tr><tr><td>Carbon dioxide [Partial pressure] in Arterial blood</td><td>38.9</td><td>38 - 48</td><td></td><td>mm[Hg]</td></tr></table></div>"
        },
        "status": "final",
        "subject": {
          "reference": "urn:uuid:fd98e9dc-dbed-45ce-a556-f1c2aca19c38",
          "display": "Magdolna Balog"
        },
        "effectiveDateTime": "2017-06-18T14:51:24Z",
        "specimen": {
          "reference": "urn:uuid:6be03e29-855d-49ec-9285-236674205a84"
        }
      }
    },
    {
      "fullUrl": "urn:uuid:c699c0eb-2140-49dc-af3c-5d8ed201b0bf",
      "resource": {
        "resourceType": "Observation",
        "id": "c699c0eb-2140-49dc-af3c-5d8ed201b0bf",
        "meta": {
          "profile": [
            "http://hl7.eu/fhir/laboratory/StructureDefinition/Observation-resultslab-eu-lab"
          ]
        },
        "performer": [
          {
            "display": "The Central European Lab"
          }
        ],
        "category": [
          {
            "coding": [
              {
                "system": "http://terminology.hl7.org/CodeSystem/observation-category",
                "code": "laboratory"
              }
            ]
          }
        ],
        "code": {
          "coding": [
            {
              "code": "2703-7",
              "system": "http://loinc.org",
              "display": "Oxygen [Partial pressure] in Arterial blood"
            }
          ],
          "text": "Oxygen [Partial pressure] in Arterial blood"
        },
        "valueQuantity": {
          "system": "http://unitsofmeasure.org",
          "value": 84.8,
          "unit": "mm[Hg]",
          "code": "mm[Hg]"
        },
        "referenceRange": [
          {
            "low": {
              "value": 75,
              "code": "mm[Hg]",
              "system": "http://unitsofmeasure.org"
            }
          },
          {
            "high": {
              "value": 100,
              "code": "mm[Hg]",
              "system": "http://unitsofmeasure.org"
            }
          }
        ],
        "text": {
          "status": "generated",
          "div": "<div xmlns=\"http://www.w3.org/1999/xhtml\"><table class=\"hl7__eu__lab__report\"><tr><th>Test</th><th>18-Jun-2017</th><th>Reference&#xA0;Range</th><th>Unit</th></tr><tr><td>Oxygen [Partial pressure] in Arterial blood</td><td>84.8</td><td>75 - 100</td><td></td><td>mm[Hg]</td></tr></table></div>"
        },
        "status": "final",
        "subject": {
          "reference": "urn:uuid:fd98e9dc-dbed-45ce-a556-f1c2aca19c38",
          "display": "Magdolna Balog"
        },
        "effectiveDateTime": "2017-06-18T14:51:24Z",
        "specimen": {
          "reference": "urn:uuid:6be03e29-855d-49ec-9285-236674205a84"
        }
      }
    },
    {
      "fullUrl": "urn:uuid:dc4e3c2d-e89e-4676-867e-df4eafef6c98",
      "resource": {
        "resourceType": "Observation",
        "id": "dc4e3c2d-e89e-4676-867e-df4eafef6c98",
        "meta": {
          "profile": [
            "http://hl7.eu/fhir/laboratory/StructureDefinition/Observation-resultslab-eu-lab"
          ]
        },
        "performer": [
          {
            "display": "The Central European Lab"
          }
        ],
        "category": [
          {
            "coding": [
              {
                "system": "http://terminology.hl7.org/CodeSystem/observation-category",
                "code": "laboratory"
              }
            ]
          }
        ],
        "code": {
          "coding": [
            {
              "code": "1960-4",
              "system": "http://loinc.org",
              "display": "Bicarbonate [Moles/volume] in Arterial blood"
            }
          ],
          "text": "Bicarbonate [Moles/volume] in Arterial blood"
        },
        "valueQuantity": {
          "system": "http://unitsofmeasure.org",
          "value": 24.9,
          "unit": "mmol/L",
          "code": "mmol/L"
        },
        "referenceRange": [
          {
            "low": {
              "value": 22,
              "code": "mmol/L",
              "system": "http://unitsofmeasure.org"
            }
          },
          {
            "high": {
              "value": 31,
              "code": "mmol/L",
              "system": "http://unitsofmeasure.org"
            }
          }
        ],
        "text": {
          "status": "generated",
          "div": "<div xmlns=\"http://www.w3.org/1999/xhtml\"><table class=\"hl7__eu__lab__report\"><tr><th>Test</th><th>18-Jun-2017</th><th>Reference&#xA0;Range</th><th>Unit</th></tr><tr><td>Bicarbonate [Moles/volume] in Arterial blood</td><td>24.9</td><td>22 - 31</td><td></td><td>mmol/L</td></tr></table></div>"
        },
        "status": "final",
        "subject": {
          "reference": "urn:uuid:fd98e9dc-dbed-45ce-a556-f1c2aca19c38",
          "display": "Magdolna Balog"
        },
        "effectiveDateTime": "2017-06-18T14:51:24Z",
        "specimen": {
          "reference": "urn:uuid:6be03e29-855d-49ec-9285-236674205a84"
        }
      }
    },
    {
      "fullUrl": "urn:uuid:648117e7-b656-45bd-a807-cebe64e25dba",
      "resource": {
        "resourceType": "Observation",
        "id": "648117e7-b656-45bd-a807-cebe64e25dba",
        "meta": {
          "profile": [
            "http://hl7.eu/fhir/laboratory/StructureDefinition/Observation-resultslab-eu-lab"
          ]
        },
        "performer": [
          {
            "display": "The Central European Lab"
          }
        ],
        "category": [
          {
            "coding": [
              {
                "system": "http://terminology.hl7.org/CodeSystem/observation-category",
                "code": "laboratory"
              }
            ]
          }
        ],
        "code": {
          "coding": [
            {
              "code": "2708-6",
              "system": "http://loinc.org",
              "display": "Oxygen saturation in Arterial blood"
            }
          ],
          "text": "Oxygen saturation in Arterial blood"
        },
        "valueQuantity": {
          "system": "http://unitsofmeasure.org",
          "value": 94,
          "unit": "%",
          "code": "%"
        },
        "referenceRange": [
          {
            "low": {
              "value": 95,
              "code": "%",
              "system": "http://unitsofmeasure.org"
            }
          },
          {
            "high": {
              "value": 100,
              "code": "%",
              "system": "http://unitsofmeasure.org"
            }
          }
        ],
        "interpretation": [
          {
            "coding": [
              {
                "code": "L",
                "system": "http://terminology.hl7.org/CodeSystem/v3-ObservationInterpretation",
                "display": "Low"
              }
            ]
          }
        ],
        "text": {
          "status": "generated",
          "div": "<div xmlns=\"http://www.w3.org/1999/xhtml\"><table class=\"hl7__eu__lab__report\"><tr><th>Test</th><th>18-Jun-2017</th><th>Reference&#xA0;Range</th><th>Unit</th></tr><tr><td>Oxygen saturation in Arterial blood</td><td>94.0</td><td>95 - 100</td><td>L</td><td>%</td></tr></table></div>"
        },
        "status": "final",
        "subject": {
          "reference": "urn:uuid:fd98e9dc-dbed-45ce-a556-f1c2aca19c38",
          "display": "Magdolna Balog"
        },
        "effectiveDateTime": "2017-06-18T14:51:24Z",
        "specimen": {
          "reference": "urn:uuid:6be03e29-855d-49ec-9285-236674205a84"
        }
      }
    },
    {
      "fullUrl": "urn:uuid:9416be87-ad46-4c9f-be47-22e7baa9c32b",
      "resource": {
        "resourceType": "Observation",
        "id": "9416be87-ad46-4c9f-be47-22e7baa9c32b",
        "meta": {
          "profile": [
            "http://hl7.eu/fhir/laboratory/StructureDefinition/Observation-resultslab-eu-lab"
          ]
        },
        "performer": [
          {
            "display": "The Central European Lab"
          }
        ],
        "category": [
          {
            "coding": [
              {
                "system": "http://terminology.hl7.org/CodeSystem/observation-category",
                "code": "laboratory"
              }
            ]
          }
        ],
        "code": {
          "coding": [
            {
              "code": "2093-3",
              "system": "http://loinc.org",
              "display": "Cholesterol [Mass/volume] in Serum or Plasma"
            }
          ],
          "text": "Cholesterol [Mass/volume] in Serum or Plasma"
        },
        "valueQuantity": {
          "system": "http://unitsofmeasure.org",
          "value": 159.4,
          "unit": "mg/dL",
          "code": "mg/dL"
        },
        "referenceRange": [
          {
            "low": {
              "value": 125,
              "code": "mg/dL",
              "system": "http://unitsofmeasure.org"
            }
          },
          {
            "high": {
              "value": 200,
              "code": "mg/dL",
              "system": "http://unitsofmeasure.org"
            }
          }
        ],
        "text": {
          "status": "generated",
          "div": "<div xmlns=\"http://www.w3.org/1999/xhtml\"><table class=\"hl7__eu__lab__report\"><tr><th>Test</th><th>18-Jun-2017</th><th>Reference&#xA0;Range</th><th>Unit</th></tr><tr><td>Cholesterol [Mass/volume] in Serum or Plasma</td><td>159.4</td><td>125 - 200</td><td></td><td>mg/dL</td></tr></table></div>"
        },
        "status": "final",
        "subject": {
          "reference": "urn:uuid:fd98e9dc-dbed-45ce-a556-f1c2aca19c38",
          "display": "Magdolna Balog"
        },
        "effectiveDateTime": "2017-06-18T14:51:24Z",
        "specimen": {
          "reference": "urn:uuid:7f506f0d-506b-463b-bfa7-7bc7364e2862"
        }
      }
    },
    {
      "fullUrl": "urn:uuid:03eafe66-1416-4624-a109-7911e04e11be",
      "resource": {
        "resourceType": "Observation",
        "id": "03eafe66-1416-4624-a109-7911e04e11be",
        "meta": {
          "profile": [
            "http://hl7.eu/fhir/laboratory/StructureDefinition/Observation-resultslab-eu-lab"
          ]
        },
        "performer": [
          {
            "display": "The Central European Lab"
          }
        ],
        "category": [
          {
            "coding": [
              {
                "system": "http://terminology.hl7.org/CodeSystem/observation-category",
                "code": "laboratory"
              }
            ]
          }
        ],
        "code": {
          "coding": [
            {
              "code": "2571-8",
              "system": "http://loinc.org",
              "display": "Triglyceride [Mass/volume] in Serum or Plasma"
            }
          ],
          "text": "Triglyceride [Mass/volume] in Serum or Plasma"
        },
        "valueQuantity": {
          "system": "http://unitsofmeasure.org",
          "value": 126.3,
          "unit": "mg/dL",
          "code": "mg/dL"
        },
        "referenceRange": [
          {
            "low": {
              "value": 0,
              "code": "mg/dL",
              "system": "http://unitsofmeasure.org"
            }
          },
          {
            "high": {
              "value": 150,
              "code": "mg/dL",
              "system": "http://unitsofmeasure.org"
            }
          }
        ],
        "text": {
          "status": "generated",
          "div": "<div xmlns=\"http://www.w3.org/1999/xhtml\"><table class=\"hl7__eu__lab__report\"><tr><th>Test</th><th>18-Jun-2017</th><th>Reference&#xA0;Range</th><th>Unit</th></tr><tr><td>Triglyceride [Mass/volume] in Serum or Plasma</td><td>126.3</td><td>0 - 150</td><td></td><td>mg/dL</td></tr></table></div>"
        },
        "status": "final",
        "subject": {
          "reference": "urn:uuid:fd98e9dc-dbed-45ce-a556-f1c2aca19c38",
          "display": "Magdolna Balog"
        },
        "effectiveDateTime": "2017-06-18T14:51:24Z",
        "specimen": {
          "reference": "urn:uuid:7f506f0d-506b-463b-bfa7-7bc7364e2862"
        }
      }
    },
    {
      "fullUrl": "urn:uuid:0be1ed72-70c6-447a-949f-461b6c70511d",
      "resource": {
        "resourceType": "Observation",
        "id": "0be1ed72-70c6-447a-949f-461b6c70511d",
        "meta": {
          "profile": [
            "http://hl7.eu/fhir/laboratory/StructureDefinition/Observation-resultslab-eu-lab"
          ]
        },
        "performer": [
          {
            "display": "The Central European Lab"
          }
        ],
        "category": [
          {
            "coding": [
              {
                "system": "http://terminology.hl7.org/CodeSystem/observation-category",
                "code": "laboratory"
              }
            ]
          }
        ],
        "code": {
          "coding": [
            {
              "code": "18262-6",
              "system": "http://loinc.org",
              "display": "Cholesterol in LDL [Mass/volume] in Serum or Plasma by Direct assay"
            }
          ],
          "text": "Cholesterol in LDL [Mass/volume] in Serum or Plasma by Direct assay"
        },
        "valueQuantity": {
          "system": "http://unitsofmeasure.org",
          "value": 79.3,
          "unit": "mg/dL",
          "code": "mg/dL"
        },
        "referenceRange": [
          {
            "low": {
              "value": 0,
              "code": "mg/dL",
              "system": "http://unitsofmeasure.org"
            }
          },
          {
            "high": {
              "value": 130,
              "code": "mg/dL",
              "system": "http://unitsofmeasure.org"
            }
          }
        ],
        "text": {
          "status": "generated",
          "div": "<div xmlns=\"http://www.w3.org/1999/xhtml\"><table class=\"hl7__eu__lab__report\"><tr><th>Test</th><th>18-Jun-2017</th><th>Reference&#xA0;Range</th><th>Unit</th></tr><tr><td>Cholesterol in LDL [Mass/volume] in Serum or Plasma by Direct assay</td><td>79.3</td><td>0 - 130</td><td></td><td>mg/dL</td></tr></table></div>"
        },
        "status": "final",
        "subject": {
          "reference": "urn:uuid:fd98e9dc-dbed-45ce-a556-f1c2aca19c38",
          "display": "Magdolna Balog"
        },
        "effectiveDateTime": "2017-06-18T14:51:24Z",
        "specimen": {
          "reference": "urn:uuid:7f506f0d-506b-463b-bfa7-7bc7364e2862"
        }
      }
    },
    {
      "fullUrl": "urn:uuid:1b2416bf-ac81-45bf-82a0-ff4ee8a1d256",
      "resource": {
        "resourceType": "Observation",
        "id": "1b2416bf-ac81-45bf-82a0-ff4ee8a1d256",
        "meta": {
          "profile": [
            "http://hl7.eu/fhir/laboratory/StructureDefinition/Observation-resultslab-eu-lab"
          ]
        },
        "performer": [
          {
            "display": "The Central European Lab"
          }
        ],
        "category": [
          {
            "coding": [
              {
                "system": "http://terminology.hl7.org/CodeSystem/observation-category",
                "code": "laboratory"
              }
            ]
          }
        ],
        "code": {
          "coding": [
            {
              "code": "2085-9",
              "system": "http://loinc.org",
              "display": "Cholesterol in HDL [Mass/volume] in Serum or Plasma"
            }
          ],
          "text": "Cholesterol in HDL [Mass/volume] in Serum or Plasma"
        },
        "valueQuantity": {
          "system": "http://unitsofmeasure.org",
          "value": 54.9,
          "unit": "mg/dL",
          "code": "mg/dL"
        },
        "referenceRange": [
          {
            "low": {
              "value": 50,
              "code": "mg/dL",
              "system": "http://unitsofmeasure.org"
            }
          },
          {
            "high": {
              "value": 100,
              "code": "mg/dL",
              "system": "http://unitsofmeasure.org"
            }
          }
        ],
        "text": {
          "status": "generated",
          "div": "<div xmlns=\"http://www.w3.org/1999/xhtml\"><table class=\"hl7__eu__lab__report\"><tr><th>Test</th><th>18-Jun-2017</th><th>Reference&#xA0;Range</th><th>Unit</th></tr><tr><td>Cholesterol in HDL [Mass/volume] in Serum or Plasma</td><td>54.9</td><td>50 - 100</td><td></td><td>mg/dL</td></tr></table></div>"
        },
        "status": "final",
        "subject": {
          "reference": "urn:uuid:fd98e9dc-dbed-45ce-a556-f1c2aca19c38",
          "display": "Magdolna Balog"
        },
        "effectiveDateTime": "2017-06-18T14:51:24Z",
        "specimen": {
          "reference": "urn:uuid:7f506f0d-506b-463b-bfa7-7bc7364e2862"
        }
      }
    },
    {
      "fullUrl": "urn:uuid:fcea2848-91ff-4bef-aa8e-cf4b1e678ee5",
      "resource": {
        "resourceType": "Device",
        "id": "fcea2848-91ff-4bef-aa8e-cf4b1e678ee5",
        "deviceName": [
          {
            "name": "SYNDERAI Synthetic Generator",
            "type": "manufacturer-name"
          }
        ],
        "version": [
          {
            "value": "5.0"
          }
        ],
        "text": {
          "status": "generated",
          "div": "<div xmlns=\"http://www.w3.org/1999/xhtml\">SYNDERAI Synthetic Generator v5.0</div>"
        },
        "status": "active\"",
        "distinctIdentifier": "synderai-generator-50",
        "manufacturer": "SYNDERAI Project"
      }
    },
    {
      "fullUrl": "urn:uuid:bad7f812-62be-4c08-95f2-c5ea1e4044c7",
      "resource": {
        "resourceType": "Provenance",
        "id": "bad7f812-62be-4c08-95f2-c5ea1e4044c7",
        "target": [
          {
            "reference": "Patient/fd98e9dc-dbed-45ce-a556-f1c2aca19c38"
          },
          {
            "reference": "Bundle/886e0a34-fbb5-4bcd-ab2e-db17a64c85cf"
          },
          {
            "reference": "Composition/55e45f41-626e-46d0-8512-0c5040638be9"
          },
          {
            "reference": "PractitionerRole/05d30d30-f3de-4989-9944-36b122fa9822"
          },
          {
            "reference": "Practitioner/f9d102a5-cdf3-45b7-b237-c576609da539"
          },
          {
            "reference": "PractitionerRole/292e2b48-e454-4c7e-bf3d-2ffed8a15dc9"
          },
          {
            "reference": "Organization/a22bbc5c-81e0-4c06-ab26-5f6ce83c6fec"
          }
        ],
        "activity": {
          "text": "Synthetic Example Data Generation"
        },
        "policy": [
          "https://synderai.net/synderai-synthetic-data-policy"
        ],
        "agent": [
          {
            "type": {
              "text": "author"
            },
            "who": {
              "reference": "Device/fcea2848-91ff-4bef-aa8e-cf4b1e678ee5"
            }
          }
        ],
        "reason": [
          {
            "text": "Interoperability Testing and Training (non-clinical use)"
          }
        ],
        "text": {
          "status": "generated",
          "div": "<div xmlns=\"http://www.w3.org/1999/xhtml\">Provenance for SYNDERAI Synthetic Example Data Resource</div>"
        },
        "recorded": "2017-06-18T16:51:24Z"
      }
    },
    {
      "fullUrl": "urn:uuid:05d30d30-f3de-4989-9944-36b122fa9822",
      "resource": {
        "resourceType": "PractitionerRole",
        "id": "05d30d30-f3de-4989-9944-36b122fa9822",
        "meta": {
          "profile": [
            "http://hl7.eu/fhir/base/StructureDefinition/practitionerRole-eu"
          ]
        },
        "text": {
          "status": "generated",
          "div": "<div xmlns=\"http://www.w3.org/1999/xhtml\">Laboratory Role Id: 05d30d30-f3de-4989-9944-36b122fa9822</div>"
        },
        "practitioner": {
          "reference": "urn:uuid:f9d102a5-cdf3-45b7-b237-c576609da539"
        }
      }
    },
    {
      "fullUrl": "urn:uuid:f9d102a5-cdf3-45b7-b237-c576609da539",
      "resource": {
        "resourceType": "Practitioner",
        "id": "f9d102a5-cdf3-45b7-b237-c576609da539",
        "meta": {
          "profile": [
            "http://hl7.eu/fhir/base/StructureDefinition/practitioner-eu"
          ]
        },
        "identifier": [
          {
            "assigner": {
              "display": "HL7 Europe"
            },
            "system": "urn:oid:2.16.840.1.113883.2.51.999",
            "value": "54b0a30d-66b9-4b6b-baac-87e298ee5579"
          }
        ],
        "name": [
          {
            "prefix": [
              "dr"
            ],
            "given": [
              "Ex"
            ],
            "family": "Ample"
          }
        ],
        "address": [
          {
            "line": [
              "Laboratoire Central Européenne",
              "Boulevard du Jardin Botanique 32"
            ],
            "postalCode": "1000",
            "city": "Brussels",
            "country": "Belgium"
          }
        ],
        "text": {
          "status": "generated",
          "div": "<div xmlns=\"http://www.w3.org/1999/xhtml\">Laboratory: Laboratoire Central Européenne, 1000 Brussels, Belgium</div>"
        }
      }
    }
  ],
  "type": "document",
  "timestamp": "2017-06-18T16:51:24Z"
}
