{
  "resourceType": "Bundle",
  "id": "11f7b4ee-e01c-4f42-92ae-2ef42d3b41cd",
  "meta": {
    "profile": [
      "http://hl7.eu/fhir/laboratory/StructureDefinition/Bundle-eu-lab"
    ]
  },
  "identifier": {
    "assigner": {
      "display": "HL7 Europe"
    },
    "system": "urn:oid:2.16.840.1.113883.2.51.999",
    "value": "f3c07390-87be-4b8f-8a42-0a829884ccba"
  },
  "entry": [
    {
      "fullUrl": "urn:uuid:62470e77-635d-4981-b75c-6892f3db0251",
      "resource": {
        "resourceType": "Composition",
        "id": "62470e77-635d-4981-b75c-6892f3db0251",
        "meta": {
          "profile": [
            "http://hl7.eu/fhir/laboratory/StructureDefinition/Composition-eu-lab"
          ]
        },
        "identifier": {
          "assigner": {
            "display": "HL7 Europe"
          },
          "system": "urn:oid:2.16.840.1.113883.2.51.999",
          "value": "8cf2740a-883d-4db1-a7c5-69e4bef8af14"
        },
        "author": [
          {
            "reference": "urn:uuid:a7e01652-1862-444c-aa5a-6cd92b5e0ff7"
          }
        ],
        "category": [
          {
            "coding": [
              {
                "code": "26436-6",
                "system": "http://loinc.org",
                "display": "Laboratory studies (set)"
              }
            ]
          }
        ],
        "type": {
          "coding": [
            {
              "code": "11502-2",
              "system": "http://loinc.org",
              "display": "Laboratory report"
            }
          ],
          "text": "Laboratory Report"
        },
        "section": [
          {
            "code": {
              "coding": [
                {
                  "code": "26436-6",
                  "system": "http://loinc.org",
                  "display": "Laboratory studies (set)"
                }
              ],
              "text": "Laboratory studies"
            },
            "section": [
              {
                "code": {
                  "coding": [
                    {
                      "code": "$18719-5",
                      "system": "http://loinc.org",
                      "display": "Chemistry studies (set)"
                    }
                  ],
                  "text": "Chemistry"
                },
                "entry": [
                  {
                    "reference": "urn:uuid:dc56b0b8-5d09-49a4-bd79-aae20550b6ca"
                  },
                  {
                    "reference": "urn:uuid:a54096e4-b5e7-4b56-a133-ad7b8055485f"
                  },
                  {
                    "reference": "urn:uuid:c5e6b7dc-a18f-42b7-ab0d-60874ad2830d"
                  },
                  {
                    "reference": "urn:uuid:c0cb28c1-c8ba-4277-85f7-4ed8987e2c67"
                  },
                  {
                    "reference": "urn:uuid:70ae4436-3783-4257-a982-6dcd03c13f81"
                  },
                  {
                    "reference": "urn:uuid:0d2a9989-c2a6-4965-914e-9576ae4cb504"
                  },
                  {
                    "reference": "urn:uuid:f8590359-cfd4-457a-8d7d-4f2f46b8f415"
                  },
                  {
                    "reference": "urn:uuid:5837a3ff-7b17-4e0f-998f-4925754ac1f9"
                  },
                  {
                    "reference": "urn:uuid:9fe905f3-5f95-40e5-9b4a-bd5bd2f2a912"
                  },
                  {
                    "reference": "urn:uuid:f4eb0ea9-484a-4086-adcb-2c6d2f0f1210"
                  },
                  {
                    "reference": "urn:uuid:b5cca024-930f-43de-b3b5-2f10894257eb"
                  },
                  {
                    "reference": "urn:uuid:870a9f99-03d6-4e92-991c-04132ef75a0c"
                  },
                  {
                    "reference": "urn:uuid:671f3f98-4ddd-415f-9c16-dde6ba0322a6"
                  },
                  {
                    "reference": "urn:uuid:87d4084a-36d3-4a39-9679-ff677e587091"
                  },
                  {
                    "reference": "urn:uuid:385d3bd5-6d5f-4042-b407-a75850a03375"
                  },
                  {
                    "reference": "urn:uuid:7600c761-9cad-46a3-bb69-b7fb8cfec988"
                  },
                  {
                    "reference": "urn:uuid:f7f37375-f33b-44a3-8f45-a1684c64ffda"
                  },
                  {
                    "reference": "urn:uuid:c9a80253-cf93-4356-af0b-ac7c3208fe53"
                  }
                ],
                "text": {
                  "status": "generated",
                  "div": "<div xmlns=\"http://www.w3.org/1999/xhtml\"><h3>Chemistry</h3><table class=\"hl7__eu__lab__report\"><thead><tr><th>Test</th><th>05-OCT-2021</th><th>Reference&#xA0;Range</th><th>Unit</th></tr></thead><tbody><tr><td>Glucose [Mass/volume] in Serum or Plasma</td><td>80.8</td><td>70 - 99</td><td>mg/dL</td></tr><tr><td>Urea nitrogen [Mass/volume] in Serum or Plasma</td><td>16.3</td><td>7 - 50</td><td>mg/dL</td></tr><tr><td>Creatinine [Mass/volume] in Serum or Plasma</td><td><strong>2.1 H</strong></td><td>0.6 - 1.1</td><td>mg/dL</td></tr><tr><td>Calcium [Mass/volume] in Serum or Plasma</td><td>9.1</td><td>8.6 - 10.4</td><td>mg/dL</td></tr><tr><td>Sodium [Moles/volume] in Serum or Plasma</td><td>140.7</td><td>135 - 145</td><td>mmol/L</td></tr><tr><td>Potassium [Moles/volume] in Serum or Plasma</td><td>4.6</td><td>3.5 - 5.1</td><td>mmol/L</td></tr><tr><td>Chloride [Moles/volume] in Serum or Plasma</td><td><strong>109.8 H</strong></td><td>98 - 108</td><td>mmol/L</td></tr><tr><td>Carbon dioxide, total [Moles/volume] in Serum or Plasma</td><td>23.8</td><td>22 - 32</td><td>mmol/L</td></tr><tr><td>Ketones [Presence] in Urine by Test strip</td><td>Urine ketone test = ++</td><td></td><td></td></tr><tr><td>Hemoglobin A1c/Hemoglobin.total in Blood</td><td><strong>2.8 L</strong></td><td>4 - 6.4</td><td>%</td></tr><tr><td>Glucose [Mass/volume] in Blood</td><td>80.8</td><td>70 - 100</td><td>mg/dL</td></tr><tr><td>Urea nitrogen [Mass/volume] in Blood</td><td>16.3</td><td>7 - 43</td><td>mg/dL</td></tr><tr><td>Creatinine [Mass/volume] in Blood</td><td><strong>3.8 H</strong></td><td>0.6 - 1.1</td><td>mg/dL</td></tr><tr><td>Calcium [Mass/volume] in Blood</td><td>9.1</td><td>8.5 - 10.5</td><td>mg/dL</td></tr><tr><td>Sodium [Moles/volume] in Blood</td><td>140.7</td><td>135 - 145</td><td>mmol/L</td></tr><tr><td>Potassium [Moles/volume] in Blood</td><td>4.6</td><td>3.5 - 5.1</td><td>mmol/L</td></tr><tr><td>Chloride [Moles/volume] in Blood</td><td><strong>109.8 H</strong></td><td>98 - 108</td><td>mmol/L</td></tr><tr><td>Carbon dioxide, total [Moles/volume] in Blood</td><td>23.8</td><td>22 - 29</td><td>mmol/L</td></tr></tbody></table></div>"
                },
                "title": "Chemistry"
              },
              {
                "code": {
                  "coding": [
                    {
                      "code": "$18729-4",
                      "system": "http://loinc.org",
                      "display": "Urinalysis studies (set)"
                    }
                  ],
                  "text": "Urinalysis"
                },
                "entry": [
                  {
                    "reference": "urn:uuid:a7c356fa-fd24-4c85-a872-53bd6797350a"
                  },
                  {
                    "reference": "urn:uuid:517f1bb0-83bb-4933-86e8-c301ff11b608"
                  },
                  {
                    "reference": "urn:uuid:ba1d937a-4c91-4446-9975-b81547c984e1"
                  },
                  {
                    "reference": "urn:uuid:ae34341f-c242-4dde-8a72-2885b8cc032d"
                  },
                  {
                    "reference": "urn:uuid:98bb7e8b-85c5-4104-b870-a2447765a547"
                  },
                  {
                    "reference": "urn:uuid:5d813159-e6b4-49a5-ae09-6a4b4e91fb21"
                  },
                  {
                    "reference": "urn:uuid:8e76d568-f3d0-4e67-9557-dd2665fde45b"
                  },
                  {
                    "reference": "urn:uuid:5a426e06-15b8-4987-bc07-f3f1c5302a9b"
                  },
                  {
                    "reference": "urn:uuid:04499831-b12e-4145-9b7c-3585d752ef2b"
                  },
                  {
                    "reference": "urn:uuid:3454e339-a6cc-4463-8770-ccebb07dde8f"
                  },
                  {
                    "reference": "urn:uuid:1b99a5fa-332a-4d1c-85c3-54bb09d0531f"
                  },
                  {
                    "reference": "urn:uuid:7278cde1-c4da-4ffd-8216-d43458b983aa"
                  }
                ],
                "text": {
                  "status": "generated",
                  "div": "<div xmlns=\"http://www.w3.org/1999/xhtml\"><h3>Urinalysis</h3><table class=\"hl7__eu__lab__report\"><thead><tr><th>Test</th><th>05-OCT-2021</th><th>Reference&#xA0;Range</th><th>Unit</th></tr></thead><tbody><tr><td>Glucose [Mass/volume] in Urine by Test strip</td><td><strong>2.2 H</strong></td><td>0.8 - 0</td><td>mg/dL</td></tr><tr><td>Glucose [Presence] in Urine by Test strip</td><td>++</td><td></td><td></td></tr><tr><td>Bilirubin.total [Mass/volume] in Urine by Test strip</td><td>0.5</td><td>0 - 1</td><td>mg/dL</td></tr><tr><td>Bilirubin.total [Presence] in Urine by Test strip</td><td>Finding of bilirubin in urine</td><td></td><td></td></tr><tr><td>Ketones [Mass/volume] in Urine by Test strip</td><td><strong>13.1 H</strong></td><td>0 - 4</td><td>mg/dL</td></tr><tr><td>Specific gravity of Urine by Test strip</td><td><strong>1.0 L</strong></td><td>1.005 - 1.03</td><td>{nominal}</td></tr><tr><td>pH of Urine by Test strip</td><td>5.5</td><td>4.6 - 7</td><td>pH</td></tr><tr><td>Protein [Mass/volume] in Urine by Test strip</td><td><strong>220.5 H</strong></td><td>0 - 14</td><td>mg/dL</td></tr><tr><td>Protein [Presence] in Urine by Test strip</td><td>Urine protein test = ++</td><td></td><td></td></tr><tr><td>Nitrite [Presence] in Urine by Test strip</td><td>Urine nitrite negative</td><td></td><td></td></tr><tr><td>Hemoglobin [Presence] in Urine by Test strip</td><td>Urine blood test = negative</td><td></td><td></td></tr><tr><td>Leukocyte esterase [Presence] in Urine by Test strip</td><td>Urine leukocyte test negative</td><td></td><td></td></tr></tbody></table></div>"
                },
                "title": "Urinalysis"
              },
              {
                "code": {
                  "coding": [
                    {
                      "code": "$LP7846-1",
                      "system": "http://loinc.org",
                      "display": "Specimen information"
                    }
                  ],
                  "text": "Specimen information"
                },
                "entry": [
                  {
                    "reference": "urn:uuid:358e48c2-309e-40d4-8302-1d19528176e9"
                  },
                  {
                    "reference": "urn:uuid:4d8d3300-7648-44cd-9e2e-c0f454e5d1ea"
                  },
                  {
                    "reference": "urn:uuid:093bca2f-bac2-496a-8c76-c5f73498439d"
                  },
                  {
                    "reference": "urn:uuid:69435d4f-62ca-4764-9e88-16850a755039"
                  }
                ],
                "text": {
                  "status": "generated",
                  "div": "<div xmlns=\"http://www.w3.org/1999/xhtml\"><h3>Specimen information</h3><table class=\"hl7__eu__lab__report\"><thead><tr><th>Test</th><th>05-OCT-2021</th><th>Specimen</th><th></th></tr></thead><tbody><tr><td>Appearance of Urine</td><td>Cloudy urine</td><td>Urine</td><td></td></tr><tr><td>Odor of Urine</td><td>Urine smell ammoniacal</td><td>Urine</td><td></td></tr><tr><td>Clarity of Urine</td><td>Translucent</td><td>Urine</td><td></td></tr><tr><td>Color of Urine</td><td>Brown color</td><td>Urine</td><td></td></tr></tbody></table></div>"
                },
                "title": "Specimen information"
              }
            ],
            "title": "Laboratory Report"
          },
          {
            "text": {
              "status": "generated",
              "div": "<div xmlns=\"http://www.w3.org/1999/xhtml\"><h3>Annotation</h3><table class=\"hl7__eu__lab__report\"><tr><th>Conclusion and Recommendations based on this report and previous findings known to us</th></tr><tr><td>The patient shows markedly elevated creatinine, proteinuria, and ketonuria, suggesting significant renal impairment with possible nephrotic-range proteinuria and metabolic derangement. Urine is cloudy, brown, with low specific gravity, and contains glucose and bilirubin. Blood glucose is normal, but HbA1c is unexpectedly low. No evidence of urinary infection. Findings are consistent with acute or chronic kidney dysfunction; urgent nephrology evaluation is recommended.</td></tr></table></div>"
            },
            "code": {
              "coding": [
                {
                  "system": "http://loinc.org",
                  "code": "48767-8",
                  "display": "Annotation comment"
                }
              ]
            },
            "title": "Annotation comment"
          }
        ],
        "status": "final",
        "subject": {
          "reference": "urn:uuid:83a431b4-6b1d-40cc-97fb-913de45a18b9",
          "display": "Meaghan Neary"
        },
        "date": "2021-10-05T00:11:04Z",
        "title": "Laboratory Report",
        "confidentiality": "N"
      }
    },
    {
      "fullUrl": "urn:uuid:74583eca-b8f7-41e2-9595-aa59de9f45d5",
      "resource": {
        "resourceType": "DiagnosticReport",
        "id": "74583eca-b8f7-41e2-9595-aa59de9f45d5",
        "meta": {
          "profile": [
            "http://hl7.eu/fhir/laboratory/StructureDefinition/DiagnosticReport-eu-lab"
          ]
        },
        "identifier": [
          {
            "assigner": {
              "display": "HL7 Europe"
            },
            "system": "urn:oid:2.16.840.1.113883.2.51.999",
            "value": "b46cb6fe-05e4-48ae-ba90-49bada845a65"
          }
        ],
        "extension": [
          {
            "url": "http://hl7.org/fhir/5.0/StructureDefinition/extension-DiagnosticReport.composition",
            "valueReference": {
              "reference": "urn:uuid:8cf2740a-883d-4db1-a7c5-69e4bef8af14"
            }
          }
        ],
        "category": [
          {
            "coding": [
              {
                "code": "26436-6",
                "system": "http://loinc.org",
                "display": "Laboratory studies (set)"
              }
            ]
          }
        ],
        "specimen": [
          {
            "reference": "urn:uuid:2511842b-9d60-4016-817f-96f540236223"
          },
          {
            "reference": "urn:uuid:ee095866-9ce8-4069-8b6a-4a0f657e72ce"
          },
          {
            "reference": "urn:uuid:80efaa69-8dff-415d-9f15-72660a32d8da"
          }
        ],
        "result": [
          {
            "reference": "urn:uuid:dc56b0b8-5d09-49a4-bd79-aae20550b6ca"
          },
          {
            "reference": "urn:uuid:a54096e4-b5e7-4b56-a133-ad7b8055485f"
          },
          {
            "reference": "urn:uuid:c5e6b7dc-a18f-42b7-ab0d-60874ad2830d"
          },
          {
            "reference": "urn:uuid:c0cb28c1-c8ba-4277-85f7-4ed8987e2c67"
          },
          {
            "reference": "urn:uuid:70ae4436-3783-4257-a982-6dcd03c13f81"
          },
          {
            "reference": "urn:uuid:0d2a9989-c2a6-4965-914e-9576ae4cb504"
          },
          {
            "reference": "urn:uuid:f8590359-cfd4-457a-8d7d-4f2f46b8f415"
          },
          {
            "reference": "urn:uuid:5837a3ff-7b17-4e0f-998f-4925754ac1f9"
          },
          {
            "reference": "urn:uuid:358e48c2-309e-40d4-8302-1d19528176e9"
          },
          {
            "reference": "urn:uuid:4d8d3300-7648-44cd-9e2e-c0f454e5d1ea"
          },
          {
            "reference": "urn:uuid:093bca2f-bac2-496a-8c76-c5f73498439d"
          },
          {
            "reference": "urn:uuid:69435d4f-62ca-4764-9e88-16850a755039"
          },
          {
            "reference": "urn:uuid:a7c356fa-fd24-4c85-a872-53bd6797350a"
          },
          {
            "reference": "urn:uuid:517f1bb0-83bb-4933-86e8-c301ff11b608"
          },
          {
            "reference": "urn:uuid:ba1d937a-4c91-4446-9975-b81547c984e1"
          },
          {
            "reference": "urn:uuid:ae34341f-c242-4dde-8a72-2885b8cc032d"
          },
          {
            "reference": "urn:uuid:98bb7e8b-85c5-4104-b870-a2447765a547"
          },
          {
            "reference": "urn:uuid:9fe905f3-5f95-40e5-9b4a-bd5bd2f2a912"
          },
          {
            "reference": "urn:uuid:5d813159-e6b4-49a5-ae09-6a4b4e91fb21"
          },
          {
            "reference": "urn:uuid:8e76d568-f3d0-4e67-9557-dd2665fde45b"
          },
          {
            "reference": "urn:uuid:5a426e06-15b8-4987-bc07-f3f1c5302a9b"
          },
          {
            "reference": "urn:uuid:04499831-b12e-4145-9b7c-3585d752ef2b"
          },
          {
            "reference": "urn:uuid:3454e339-a6cc-4463-8770-ccebb07dde8f"
          },
          {
            "reference": "urn:uuid:1b99a5fa-332a-4d1c-85c3-54bb09d0531f"
          },
          {
            "reference": "urn:uuid:7278cde1-c4da-4ffd-8216-d43458b983aa"
          },
          {
            "reference": "urn:uuid:f4eb0ea9-484a-4086-adcb-2c6d2f0f1210"
          },
          {
            "reference": "urn:uuid:b5cca024-930f-43de-b3b5-2f10894257eb"
          },
          {
            "reference": "urn:uuid:870a9f99-03d6-4e92-991c-04132ef75a0c"
          },
          {
            "reference": "urn:uuid:671f3f98-4ddd-415f-9c16-dde6ba0322a6"
          },
          {
            "reference": "urn:uuid:87d4084a-36d3-4a39-9679-ff677e587091"
          },
          {
            "reference": "urn:uuid:385d3bd5-6d5f-4042-b407-a75850a03375"
          },
          {
            "reference": "urn:uuid:7600c761-9cad-46a3-bb69-b7fb8cfec988"
          },
          {
            "reference": "urn:uuid:f7f37375-f33b-44a3-8f45-a1684c64ffda"
          },
          {
            "reference": "urn:uuid:c9a80253-cf93-4356-af0b-ac7c3208fe53"
          }
        ],
        "status": "registered",
        "code": {
          "coding": [
            {
              "code": "11502-2",
              "system": "http://loinc.org",
              "display": "Laboratory report"
            }
          ]
        },
        "subject": {
          "reference": "urn:uuid:83a431b4-6b1d-40cc-97fb-913de45a18b9",
          "display": "Meaghan Neary"
        }
      }
    },
    {
      "fullUrl": "urn:uuid:83a431b4-6b1d-40cc-97fb-913de45a18b9",
      "resource": {
        "resourceType": "Patient",
        "id": "83a431b4-6b1d-40cc-97fb-913de45a18b9",
        "meta": {
          "security": [
            {
              "system": "http://terminology.hl7.org/CodeSystem/v3-ActReason",
              "code": "HTEST"
            },
            {
              "system": "http://terminology.hl7.org/CodeSystem/v3-ActReason",
              "code": "TRAIN"
            }
          ],
          "tag": [
            {
              "system": "https://synderai.net/fhir/CodeSystem/tags",
              "code": "synthetic",
              "display": "SYNDERAI Synthetic data"
            }
          ],
          "profile": [
            "http://hl7.eu/fhir/base/StructureDefinition/patient-eu-core"
          ]
        },
        "identifier": [
          {
            "type": {
              "coding": [
                {
                  "code": "PT",
                  "system": "http://terminology.hl7.org/CodeSystem/v2-0203"
                }
              ]
            },
            "system": "http://ec.europa.eu/identifier/eci",
            "value": "1586-567257-8"
          },
          {
            "type": {
              "coding": [
                {
                  "code": "MR",
                  "system": "http://terminology.hl7.org/CodeSystem/v2-0203"
                }
              ]
            },
            "system": "http://local.setting.eu/identifier",
            "value": "443e6379-f231-b364-3ccb-644740a1aa2a"
          }
        ],
        "name": [
          {
            "family": "Neary"
          },
          {
            "given": [
              "Meaghan"
            ]
          },
          {
            "text": "Meaghan Neary"
          }
        ],
        "address": [
          {
            "line": [
              "64 Linskey Street"
            ],
            "use": "home",
            "type": "physical",
            "postalCode": "D02",
            "city": "Dublin",
            "country": "Ireland"
          }
        ],
        "telecom": [
          {
            "system": "phone",
            "value": "001-967-573-0911x465"
          }
        ],
        "extension": [
          {
            "url": "http://hl7.org/fhir/StructureDefinition/patient-nationality",
            "valueCodeableConcept": {
              "coding": [
                {
                  "code": "IE",
                  "system": "http://hl7.org/fhir/ValueSet/country"
                }
              ]
            }
          }
        ],
        "text": {
          "status": "generated",
          "div": "<div xmlns=\"http://www.w3.org/1999/xhtml\"><table class=\"hl7__ips\"><tr><td>Meaghan Neary</td><td>female</td><td>19-Dec-1960</td></tr></table></div>"
        },
        "gender": "female",
        "birthDate": "1960-12-19"
      }
    },
    {
      "fullUrl": "urn:uuid:798cad57-ddad-4476-a258-43da99dabdd3",
      "resource": {
        "resourceType": "ServiceRequest",
        "id": "798cad57-ddad-4476-a258-43da99dabdd3",
        "meta": {
          "profile": [
            "http://hl7.eu/fhir/laboratory/StructureDefinition/ServiceRequest-eu-lab"
          ]
        },
        "identifier": [
          {
            "system": "http://example.org",
            "value": "07678b20-50c4-4326-b9db-6f1298c1bb65"
          }
        ],
        "specimen": [
          {
            "reference": "urn:uuid:2511842b-9d60-4016-817f-96f540236223"
          },
          {
            "reference": "urn:uuid:ee095866-9ce8-4069-8b6a-4a0f657e72ce"
          },
          {
            "reference": "urn:uuid:80efaa69-8dff-415d-9f15-72660a32d8da"
          }
        ],
        "reasonCode": [
          {
            "coding": [
              {
                "code": "55822004",
                "system": "http://snomed.info/sct",
                "display": "Hyperlipidemia"
              }
            ]
          },
          {
            "coding": [
              {
                "code": "433144002",
                "system": "http://snomed.info/sct",
                "display": "Chronic kidney disease stage 3"
              }
            ]
          },
          {
            "coding": [
              {
                "code": "157141000119108",
                "system": "http://snomed.info/sct",
                "display": "Proteinuria due to type 2 diabetes mellitus"
              }
            ]
          },
          {
            "coding": [
              {
                "code": "431856006",
                "system": "http://snomed.info/sct",
                "display": "Chronic kidney disease stage 2"
              }
            ]
          },
          {
            "coding": [
              {
                "code": "90781000119102",
                "system": "http://snomed.info/sct",
                "display": "Microalbuminuria due to type 2 diabetes mellitus"
              }
            ]
          },
          {
            "coding": [
              {
                "code": "127013003",
                "system": "http://snomed.info/sct",
                "display": "Disorder of kidney due to diabetes mellitus"
              }
            ]
          },
          {
            "coding": [
              {
                "code": "431855005",
                "system": "http://snomed.info/sct",
                "display": "Chronic kidney disease stage 1"
              }
            ]
          },
          {
            "coding": [
              {
                "code": "237602007",
                "system": "http://snomed.info/sct",
                "display": "Metabolic syndrome X"
              }
            ]
          },
          {
            "coding": [
              {
                "code": "271737000",
                "system": "http://snomed.info/sct",
                "display": "Anemia"
              }
            ]
          },
          {
            "coding": [
              {
                "code": "15777000",
                "system": "http://snomed.info/sct",
                "display": "Prediabetes"
              }
            ]
          },
          {
            "coding": [
              {
                "code": "59621000",
                "system": "http://snomed.info/sct",
                "display": "Essential hypertension"
              }
            ]
          }
        ],
        "status": "active",
        "intent": "order",
        "code": {
          "coding": [
            {
              "code": "108252007",
              "system": "http://snomed.info/sct",
              "display": "Laboratory procedure"
            }
          ]
        },
        "subject": {
          "reference": "urn:uuid:83a431b4-6b1d-40cc-97fb-913de45a18b9",
          "display": "Meaghan Neary"
        },
        "requester": {
          "reference": "urn:uuid:784626bf-97a2-468f-b57e-df9d3b3ac524"
        }
      }
    },
    {
      "fullUrl": "urn:uuid:784626bf-97a2-468f-b57e-df9d3b3ac524",
      "resource": {
        "resourceType": "PractitionerRole",
        "id": "784626bf-97a2-468f-b57e-df9d3b3ac524",
        "meta": {
          "profile": [
            "http://hl7.eu/fhir/base/StructureDefinition/practitionerRole-eu"
          ]
        },
        "text": {
          "status": "generated",
          "div": "<div xmlns=\"http://www.w3.org/1999/xhtml\">Provider Role Id: 784626bf-97a2-468f-b57e-df9d3b3ac524</div>"
        },
        "organization": {
          "reference": "urn:uuid:a9c55d0d-ec05-41c3-9f9e-0cf347bbfb90"
        }
      }
    },
    {
      "fullUrl": "urn:uuid:a9c55d0d-ec05-41c3-9f9e-0cf347bbfb90",
      "resource": {
        "resourceType": "Organization",
        "id": "a9c55d0d-ec05-41c3-9f9e-0cf347bbfb90",
        "meta": {
          "profile": [
            "http://hl7.eu/fhir/base/StructureDefinition/organization-eu"
          ]
        },
        "identifier": [
          {
            "assigner": {
              "display": "HL7 Europe"
            },
            "system": "urn:oid:2.16.840.1.113883.2.51.999",
            "value": "bfc6a0f6-dd40-446d-af80-578e5d0d6d3c"
          }
        ],
        "address": [
          {
            "line": [
              "Parnell Square West nan"
            ],
            "city": "Dublin",
            "postalCode": "D01",
            "country": "Ireland"
          }
        ],
        "text": {
          "status": "generated",
          "div": "<div xmlns=\"http://www.w3.org/1999/xhtml\">Provider Organization: Rotunda Hospital</div>"
        },
        "name": "Rotunda Hospital"
      }
    },
    {
      "fullUrl": "urn:uuid:2511842b-9d60-4016-817f-96f540236223",
      "resource": {
        "resourceType": "Specimen",
        "id": "2511842b-9d60-4016-817f-96f540236223",
        "meta": {
          "profile": [
            "http://hl7.eu/fhir/laboratory/StructureDefinition/Specimen-eu-lab"
          ]
        },
        "collection": {
          "collectedDateTime": "2021-10-04"
        },
        "text": {
          "status": "generated",
          "div": "<div xmlns=\"http://www.w3.org/1999/xhtml\"><table class=\"hl7__eu__lab__report\"><tr><th>Specimen</th><th>Collection Date</th></tr><tr><td>Acellular blood (serum or plasma) specimen</td><td><span class=\"nb\">04-Oct-2021</span></td></tr></table></div>"
        },
        "type": {
          "coding": [
            {
              "code": "122592007",
              "system": "http://snomed.info/sct",
              "display": "Acellular blood (serum or plasma) specimen"
            }
          ]
        }
      }
    },
    {
      "fullUrl": "urn:uuid:ee095866-9ce8-4069-8b6a-4a0f657e72ce",
      "resource": {
        "resourceType": "Specimen",
        "id": "ee095866-9ce8-4069-8b6a-4a0f657e72ce",
        "meta": {
          "profile": [
            "http://hl7.eu/fhir/laboratory/StructureDefinition/Specimen-eu-lab"
          ]
        },
        "collection": {
          "collectedDateTime": "2021-10-04"
        },
        "text": {
          "status": "generated",
          "div": "<div xmlns=\"http://www.w3.org/1999/xhtml\"><table class=\"hl7__eu__lab__report\"><tr><th>Specimen</th><th>Collection Date</th></tr><tr><td>Urine specimen</td><td><span class=\"nb\">04-Oct-2021</span></td></tr></table></div>"
        },
        "type": {
          "coding": [
            {
              "code": "122575003",
              "system": "http://snomed.info/sct",
              "display": "Urine specimen"
            }
          ]
        }
      }
    },
    {
      "fullUrl": "urn:uuid:80efaa69-8dff-415d-9f15-72660a32d8da",
      "resource": {
        "resourceType": "Specimen",
        "id": "80efaa69-8dff-415d-9f15-72660a32d8da",
        "meta": {
          "profile": [
            "http://hl7.eu/fhir/laboratory/StructureDefinition/Specimen-eu-lab"
          ]
        },
        "collection": {
          "collectedDateTime": "2021-10-04"
        },
        "text": {
          "status": "generated",
          "div": "<div xmlns=\"http://www.w3.org/1999/xhtml\"><table class=\"hl7__eu__lab__report\"><tr><th>Specimen</th><th>Collection Date</th></tr><tr><td>Whole blood specimen (specimen)</td><td><span class=\"nb\">04-Oct-2021</span></td></tr></table></div>"
        },
        "type": {
          "coding": [
            {
              "code": "258580003",
              "system": "http://snomed.info/sct",
              "display": "Whole blood specimen (specimen)"
            }
          ]
        }
      }
    },
    {
      "fullUrl": "urn:uuid:dc56b0b8-5d09-49a4-bd79-aae20550b6ca",
      "resource": {
        "resourceType": "Observation",
        "id": "dc56b0b8-5d09-49a4-bd79-aae20550b6ca",
        "meta": {
          "profile": [
            "http://hl7.eu/fhir/laboratory/StructureDefinition/Observation-resultslab-eu-lab"
          ]
        },
        "performer": [
          {
            "display": "The Central European Lab"
          }
        ],
        "category": [
          {
            "coding": [
              {
                "system": "http://terminology.hl7.org/CodeSystem/observation-category",
                "code": "laboratory"
              }
            ]
          }
        ],
        "code": {
          "coding": [
            {
              "code": "2345-7",
              "system": "http://loinc.org",
              "display": "Glucose [Mass/volume] in Serum or Plasma"
            }
          ],
          "text": "Glucose [Mass/volume] in Serum or Plasma"
        },
        "valueQuantity": {
          "system": "http://unitsofmeasure.org",
          "value": 80.8,
          "unit": "mg/dL",
          "code": "mg/dL"
        },
        "referenceRange": [
          {
            "low": {
              "value": 70,
              "code": "mg/dL",
              "system": "http://unitsofmeasure.org"
            }
          },
          {
            "high": {
              "value": 99,
              "code": "mg/dL",
              "system": "http://unitsofmeasure.org"
            }
          }
        ],
        "text": {
          "status": "generated",
          "div": "<div xmlns=\"http://www.w3.org/1999/xhtml\"><table class=\"hl7__eu__lab__report\"><tr><th>Test</th><th>05-Oct-2021</th><th>Reference&#xA0;Range</th><th>Unit</th></tr><tr><td>Glucose [Mass/volume] in Serum or Plasma</td><td>80.8</td><td>70 - 99</td><td></td><td>mg/dL</td></tr></table></div>"
        },
        "status": "final",
        "subject": {
          "reference": "urn:uuid:83a431b4-6b1d-40cc-97fb-913de45a18b9",
          "display": "Meaghan Neary"
        },
        "effectiveDateTime": "2021-10-04T22:11:04Z",
        "specimen": {
          "reference": "urn:uuid:2511842b-9d60-4016-817f-96f540236223"
        }
      }
    },
    {
      "fullUrl": "urn:uuid:a54096e4-b5e7-4b56-a133-ad7b8055485f",
      "resource": {
        "resourceType": "Observation",
        "id": "a54096e4-b5e7-4b56-a133-ad7b8055485f",
        "meta": {
          "profile": [
            "http://hl7.eu/fhir/laboratory/StructureDefinition/Observation-resultslab-eu-lab"
          ]
        },
        "performer": [
          {
            "display": "The Central European Lab"
          }
        ],
        "category": [
          {
            "coding": [
              {
                "system": "http://terminology.hl7.org/CodeSystem/observation-category",
                "code": "laboratory"
              }
            ]
          }
        ],
        "code": {
          "coding": [
            {
              "code": "3094-0",
              "system": "http://loinc.org",
              "display": "Urea nitrogen [Mass/volume] in Serum or Plasma"
            }
          ],
          "text": "Urea nitrogen [Mass/volume] in Serum or Plasma"
        },
        "valueQuantity": {
          "system": "http://unitsofmeasure.org",
          "value": 16.3,
          "unit": "mg/dL",
          "code": "mg/dL"
        },
        "referenceRange": [
          {
            "low": {
              "value": 7,
              "code": "mg/dL",
              "system": "http://unitsofmeasure.org"
            }
          },
          {
            "high": {
              "value": 50,
              "code": "mg/dL",
              "system": "http://unitsofmeasure.org"
            }
          }
        ],
        "text": {
          "status": "generated",
          "div": "<div xmlns=\"http://www.w3.org/1999/xhtml\"><table class=\"hl7__eu__lab__report\"><tr><th>Test</th><th>05-Oct-2021</th><th>Reference&#xA0;Range</th><th>Unit</th></tr><tr><td>Urea nitrogen [Mass/volume] in Serum or Plasma</td><td>16.3</td><td>7 - 50</td><td></td><td>mg/dL</td></tr></table></div>"
        },
        "status": "final",
        "subject": {
          "reference": "urn:uuid:83a431b4-6b1d-40cc-97fb-913de45a18b9",
          "display": "Meaghan Neary"
        },
        "effectiveDateTime": "2021-10-04T22:11:04Z",
        "specimen": {
          "reference": "urn:uuid:2511842b-9d60-4016-817f-96f540236223"
        }
      }
    },
    {
      "fullUrl": "urn:uuid:c5e6b7dc-a18f-42b7-ab0d-60874ad2830d",
      "resource": {
        "resourceType": "Observation",
        "id": "c5e6b7dc-a18f-42b7-ab0d-60874ad2830d",
        "meta": {
          "profile": [
            "http://hl7.eu/fhir/laboratory/StructureDefinition/Observation-resultslab-eu-lab"
          ]
        },
        "performer": [
          {
            "display": "The Central European Lab"
          }
        ],
        "category": [
          {
            "coding": [
              {
                "system": "http://terminology.hl7.org/CodeSystem/observation-category",
                "code": "laboratory"
              }
            ]
          }
        ],
        "code": {
          "coding": [
            {
              "code": "2160-0",
              "system": "http://loinc.org",
              "display": "Creatinine [Mass/volume] in Serum or Plasma"
            }
          ],
          "text": "Creatinine [Mass/volume] in Serum or Plasma"
        },
        "valueQuantity": {
          "system": "http://unitsofmeasure.org",
          "value": 2.1,
          "unit": "mg/dL",
          "code": "mg/dL"
        },
        "referenceRange": [
          {
            "low": {
              "value": 0.6,
              "code": "mg/dL",
              "system": "http://unitsofmeasure.org"
            }
          },
          {
            "high": {
              "value": 1.1,
              "code": "mg/dL",
              "system": "http://unitsofmeasure.org"
            }
          }
        ],
        "interpretation": [
          {
            "coding": [
              {
                "code": "H",
                "system": "http://terminology.hl7.org/CodeSystem/v3-ObservationInterpretation",
                "display": "High"
              }
            ]
          }
        ],
        "text": {
          "status": "generated",
          "div": "<div xmlns=\"http://www.w3.org/1999/xhtml\"><table class=\"hl7__eu__lab__report\"><tr><th>Test</th><th>05-Oct-2021</th><th>Reference&#xA0;Range</th><th>Unit</th></tr><tr><td>Creatinine [Mass/volume] in Serum or Plasma</td><td>2.1</td><td>0.6 - 1.1</td><td>H</td><td>mg/dL</td></tr></table></div>"
        },
        "status": "final",
        "subject": {
          "reference": "urn:uuid:83a431b4-6b1d-40cc-97fb-913de45a18b9",
          "display": "Meaghan Neary"
        },
        "effectiveDateTime": "2021-10-04T22:11:04Z",
        "specimen": {
          "reference": "urn:uuid:2511842b-9d60-4016-817f-96f540236223"
        }
      }
    },
    {
      "fullUrl": "urn:uuid:c0cb28c1-c8ba-4277-85f7-4ed8987e2c67",
      "resource": {
        "resourceType": "Observation",
        "id": "c0cb28c1-c8ba-4277-85f7-4ed8987e2c67",
        "meta": {
          "profile": [
            "http://hl7.eu/fhir/laboratory/StructureDefinition/Observation-resultslab-eu-lab"
          ]
        },
        "performer": [
          {
            "display": "The Central European Lab"
          }
        ],
        "category": [
          {
            "coding": [
              {
                "system": "http://terminology.hl7.org/CodeSystem/observation-category",
                "code": "laboratory"
              }
            ]
          }
        ],
        "code": {
          "coding": [
            {
              "code": "17861-6",
              "system": "http://loinc.org",
              "display": "Calcium [Mass/volume] in Serum or Plasma"
            }
          ],
          "text": "Calcium [Mass/volume] in Serum or Plasma"
        },
        "valueQuantity": {
          "system": "http://unitsofmeasure.org",
          "value": 9.1,
          "unit": "mg/dL",
          "code": "mg/dL"
        },
        "referenceRange": [
          {
            "low": {
              "value": 8.6,
              "code": "mg/dL",
              "system": "http://unitsofmeasure.org"
            }
          },
          {
            "high": {
              "value": 10.4,
              "code": "mg/dL",
              "system": "http://unitsofmeasure.org"
            }
          }
        ],
        "text": {
          "status": "generated",
          "div": "<div xmlns=\"http://www.w3.org/1999/xhtml\"><table class=\"hl7__eu__lab__report\"><tr><th>Test</th><th>05-Oct-2021</th><th>Reference&#xA0;Range</th><th>Unit</th></tr><tr><td>Calcium [Mass/volume] in Serum or Plasma</td><td>9.1</td><td>8.6 - 10.4</td><td></td><td>mg/dL</td></tr></table></div>"
        },
        "status": "final",
        "subject": {
          "reference": "urn:uuid:83a431b4-6b1d-40cc-97fb-913de45a18b9",
          "display": "Meaghan Neary"
        },
        "effectiveDateTime": "2021-10-04T22:11:04Z",
        "specimen": {
          "reference": "urn:uuid:2511842b-9d60-4016-817f-96f540236223"
        }
      }
    },
    {
      "fullUrl": "urn:uuid:70ae4436-3783-4257-a982-6dcd03c13f81",
      "resource": {
        "resourceType": "Observation",
        "id": "70ae4436-3783-4257-a982-6dcd03c13f81",
        "meta": {
          "profile": [
            "http://hl7.eu/fhir/laboratory/StructureDefinition/Observation-resultslab-eu-lab"
          ]
        },
        "performer": [
          {
            "display": "The Central European Lab"
          }
        ],
        "category": [
          {
            "coding": [
              {
                "system": "http://terminology.hl7.org/CodeSystem/observation-category",
                "code": "laboratory"
              }
            ]
          }
        ],
        "code": {
          "coding": [
            {
              "code": "2951-2",
              "system": "http://loinc.org",
              "display": "Sodium [Moles/volume] in Serum or Plasma"
            }
          ],
          "text": "Sodium [Moles/volume] in Serum or Plasma"
        },
        "valueQuantity": {
          "system": "http://unitsofmeasure.org",
          "value": 140.7,
          "unit": "mmol/L",
          "code": "mmol/L"
        },
        "referenceRange": [
          {
            "low": {
              "value": 135,
              "code": "mmol/L",
              "system": "http://unitsofmeasure.org"
            }
          },
          {
            "high": {
              "value": 145,
              "code": "mmol/L",
              "system": "http://unitsofmeasure.org"
            }
          }
        ],
        "text": {
          "status": "generated",
          "div": "<div xmlns=\"http://www.w3.org/1999/xhtml\"><table class=\"hl7__eu__lab__report\"><tr><th>Test</th><th>05-Oct-2021</th><th>Reference&#xA0;Range</th><th>Unit</th></tr><tr><td>Sodium [Moles/volume] in Serum or Plasma</td><td>140.7</td><td>135 - 145</td><td></td><td>mmol/L</td></tr></table></div>"
        },
        "status": "final",
        "subject": {
          "reference": "urn:uuid:83a431b4-6b1d-40cc-97fb-913de45a18b9",
          "display": "Meaghan Neary"
        },
        "effectiveDateTime": "2021-10-04T22:11:04Z",
        "specimen": {
          "reference": "urn:uuid:2511842b-9d60-4016-817f-96f540236223"
        }
      }
    },
    {
      "fullUrl": "urn:uuid:0d2a9989-c2a6-4965-914e-9576ae4cb504",
      "resource": {
        "resourceType": "Observation",
        "id": "0d2a9989-c2a6-4965-914e-9576ae4cb504",
        "meta": {
          "profile": [
            "http://hl7.eu/fhir/laboratory/StructureDefinition/Observation-resultslab-eu-lab"
          ]
        },
        "performer": [
          {
            "display": "The Central European Lab"
          }
        ],
        "category": [
          {
            "coding": [
              {
                "system": "http://terminology.hl7.org/CodeSystem/observation-category",
                "code": "laboratory"
              }
            ]
          }
        ],
        "code": {
          "coding": [
            {
              "code": "2823-3",
              "system": "http://loinc.org",
              "display": "Potassium [Moles/volume] in Serum or Plasma"
            }
          ],
          "text": "Potassium [Moles/volume] in Serum or Plasma"
        },
        "valueQuantity": {
          "system": "http://unitsofmeasure.org",
          "value": 4.6,
          "unit": "mmol/L",
          "code": "mmol/L"
        },
        "referenceRange": [
          {
            "low": {
              "value": 3.5,
              "code": "mmol/L",
              "system": "http://unitsofmeasure.org"
            }
          },
          {
            "high": {
              "value": 5.1,
              "code": "mmol/L",
              "system": "http://unitsofmeasure.org"
            }
          }
        ],
        "text": {
          "status": "generated",
          "div": "<div xmlns=\"http://www.w3.org/1999/xhtml\"><table class=\"hl7__eu__lab__report\"><tr><th>Test</th><th>05-Oct-2021</th><th>Reference&#xA0;Range</th><th>Unit</th></tr><tr><td>Potassium [Moles/volume] in Serum or Plasma</td><td>4.6</td><td>3.5 - 5.1</td><td></td><td>mmol/L</td></tr></table></div>"
        },
        "status": "final",
        "subject": {
          "reference": "urn:uuid:83a431b4-6b1d-40cc-97fb-913de45a18b9",
          "display": "Meaghan Neary"
        },
        "effectiveDateTime": "2021-10-04T22:11:04Z",
        "specimen": {
          "reference": "urn:uuid:2511842b-9d60-4016-817f-96f540236223"
        }
      }
    },
    {
      "fullUrl": "urn:uuid:f8590359-cfd4-457a-8d7d-4f2f46b8f415",
      "resource": {
        "resourceType": "Observation",
        "id": "f8590359-cfd4-457a-8d7d-4f2f46b8f415",
        "meta": {
          "profile": [
            "http://hl7.eu/fhir/laboratory/StructureDefinition/Observation-resultslab-eu-lab"
          ]
        },
        "performer": [
          {
            "display": "The Central European Lab"
          }
        ],
        "category": [
          {
            "coding": [
              {
                "system": "http://terminology.hl7.org/CodeSystem/observation-category",
                "code": "laboratory"
              }
            ]
          }
        ],
        "code": {
          "coding": [
            {
              "code": "2075-0",
              "system": "http://loinc.org",
              "display": "Chloride [Moles/volume] in Serum or Plasma"
            }
          ],
          "text": "Chloride [Moles/volume] in Serum or Plasma"
        },
        "valueQuantity": {
          "system": "http://unitsofmeasure.org",
          "value": 109.8,
          "unit": "mmol/L",
          "code": "mmol/L"
        },
        "referenceRange": [
          {
            "low": {
              "value": 98,
              "code": "mmol/L",
              "system": "http://unitsofmeasure.org"
            }
          },
          {
            "high": {
              "value": 108,
              "code": "mmol/L",
              "system": "http://unitsofmeasure.org"
            }
          }
        ],
        "interpretation": [
          {
            "coding": [
              {
                "code": "H",
                "system": "http://terminology.hl7.org/CodeSystem/v3-ObservationInterpretation",
                "display": "High"
              }
            ]
          }
        ],
        "text": {
          "status": "generated",
          "div": "<div xmlns=\"http://www.w3.org/1999/xhtml\"><table class=\"hl7__eu__lab__report\"><tr><th>Test</th><th>05-Oct-2021</th><th>Reference&#xA0;Range</th><th>Unit</th></tr><tr><td>Chloride [Moles/volume] in Serum or Plasma</td><td>109.8</td><td>98 - 108</td><td>H</td><td>mmol/L</td></tr></table></div>"
        },
        "status": "final",
        "subject": {
          "reference": "urn:uuid:83a431b4-6b1d-40cc-97fb-913de45a18b9",
          "display": "Meaghan Neary"
        },
        "effectiveDateTime": "2021-10-04T22:11:04Z",
        "specimen": {
          "reference": "urn:uuid:2511842b-9d60-4016-817f-96f540236223"
        }
      }
    },
    {
      "fullUrl": "urn:uuid:5837a3ff-7b17-4e0f-998f-4925754ac1f9",
      "resource": {
        "resourceType": "Observation",
        "id": "5837a3ff-7b17-4e0f-998f-4925754ac1f9",
        "meta": {
          "profile": [
            "http://hl7.eu/fhir/laboratory/StructureDefinition/Observation-resultslab-eu-lab"
          ]
        },
        "performer": [
          {
            "display": "The Central European Lab"
          }
        ],
        "category": [
          {
            "coding": [
              {
                "system": "http://terminology.hl7.org/CodeSystem/observation-category",
                "code": "laboratory"
              }
            ]
          }
        ],
        "code": {
          "coding": [
            {
              "code": "2028-9",
              "system": "http://loinc.org",
              "display": "Carbon dioxide, total [Moles/volume] in Serum or Plasma"
            }
          ],
          "text": "Carbon dioxide, total [Moles/volume] in Serum or Plasma"
        },
        "valueQuantity": {
          "system": "http://unitsofmeasure.org",
          "value": 23.8,
          "unit": "mmol/L",
          "code": "mmol/L"
        },
        "referenceRange": [
          {
            "low": {
              "value": 22,
              "code": "mmol/L",
              "system": "http://unitsofmeasure.org"
            }
          },
          {
            "high": {
              "value": 32,
              "code": "mmol/L",
              "system": "http://unitsofmeasure.org"
            }
          }
        ],
        "text": {
          "status": "generated",
          "div": "<div xmlns=\"http://www.w3.org/1999/xhtml\"><table class=\"hl7__eu__lab__report\"><tr><th>Test</th><th>05-Oct-2021</th><th>Reference&#xA0;Range</th><th>Unit</th></tr><tr><td>Carbon dioxide, total [Moles/volume] in Serum or Plasma</td><td>23.8</td><td>22 - 32</td><td></td><td>mmol/L</td></tr></table></div>"
        },
        "status": "final",
        "subject": {
          "reference": "urn:uuid:83a431b4-6b1d-40cc-97fb-913de45a18b9",
          "display": "Meaghan Neary"
        },
        "effectiveDateTime": "2021-10-04T22:11:04Z",
        "specimen": {
          "reference": "urn:uuid:2511842b-9d60-4016-817f-96f540236223"
        }
      }
    },
    {
      "fullUrl": "urn:uuid:358e48c2-309e-40d4-8302-1d19528176e9",
      "resource": {
        "resourceType": "Observation",
        "id": "358e48c2-309e-40d4-8302-1d19528176e9",
        "meta": {
          "profile": [
            "http://hl7.eu/fhir/laboratory/StructureDefinition/Observation-resultslab-eu-lab"
          ]
        },
        "performer": [
          {
            "display": "The Central European Lab"
          }
        ],
        "category": [
          {
            "coding": [
              {
                "system": "http://terminology.hl7.org/CodeSystem/observation-category",
                "code": "laboratory"
              }
            ]
          }
        ],
        "code": {
          "coding": [
            {
              "code": "5767-9",
              "system": "http://loinc.org",
              "display": "Appearance of Urine"
            }
          ],
          "text": "Appearance of Urine"
        },
        "text": {
          "status": "generated",
          "div": "<div xmlns=\"http://www.w3.org/1999/xhtml\"><table class=\"hl7__eu__lab__report\"><tr><th>Test</th><th>05-Oct-2021</th><th>Reference&#xA0;Range</th><th>Unit</th></tr><tr><td>Appearance of Urine</td></tr></table></div>"
        },
        "status": "final",
        "subject": {
          "reference": "urn:uuid:83a431b4-6b1d-40cc-97fb-913de45a18b9",
          "display": "Meaghan Neary"
        },
        "effectiveDateTime": "2021-10-04T22:11:04Z",
        "specimen": {
          "reference": "urn:uuid:ee095866-9ce8-4069-8b6a-4a0f657e72ce"
        }
      }
    },
    {
      "fullUrl": "urn:uuid:4d8d3300-7648-44cd-9e2e-c0f454e5d1ea",
      "resource": {
        "resourceType": "Observation",
        "id": "4d8d3300-7648-44cd-9e2e-c0f454e5d1ea",
        "meta": {
          "profile": [
            "http://hl7.eu/fhir/laboratory/StructureDefinition/Observation-resultslab-eu-lab"
          ]
        },
        "performer": [
          {
            "display": "The Central European Lab"
          }
        ],
        "category": [
          {
            "coding": [
              {
                "system": "http://terminology.hl7.org/CodeSystem/observation-category",
                "code": "laboratory"
              }
            ]
          }
        ],
        "code": {
          "coding": [
            {
              "code": "34533-0",
              "system": "http://loinc.org",
              "display": "Odor of Urine"
            }
          ],
          "text": "Odor of Urine"
        },
        "text": {
          "status": "generated",
          "div": "<div xmlns=\"http://www.w3.org/1999/xhtml\"><table class=\"hl7__eu__lab__report\"><tr><th>Test</th><th>05-Oct-2021</th><th>Reference&#xA0;Range</th><th>Unit</th></tr><tr><td>Odor of Urine</td></tr></table></div>"
        },
        "status": "final",
        "subject": {
          "reference": "urn:uuid:83a431b4-6b1d-40cc-97fb-913de45a18b9",
          "display": "Meaghan Neary"
        },
        "effectiveDateTime": "2021-10-04T22:11:04Z",
        "specimen": {
          "reference": "urn:uuid:ee095866-9ce8-4069-8b6a-4a0f657e72ce"
        }
      }
    },
    {
      "fullUrl": "urn:uuid:093bca2f-bac2-496a-8c76-c5f73498439d",
      "resource": {
        "resourceType": "Observation",
        "id": "093bca2f-bac2-496a-8c76-c5f73498439d",
        "meta": {
          "profile": [
            "http://hl7.eu/fhir/laboratory/StructureDefinition/Observation-resultslab-eu-lab"
          ]
        },
        "performer": [
          {
            "display": "The Central European Lab"
          }
        ],
        "category": [
          {
            "coding": [
              {
                "system": "http://terminology.hl7.org/CodeSystem/observation-category",
                "code": "laboratory"
              }
            ]
          }
        ],
        "code": {
          "coding": [
            {
              "code": "32167-9",
              "system": "http://loinc.org",
              "display": "Clarity of Urine"
            }
          ],
          "text": "Clarity of Urine"
        },
        "text": {
          "status": "generated",
          "div": "<div xmlns=\"http://www.w3.org/1999/xhtml\"><table class=\"hl7__eu__lab__report\"><tr><th>Test</th><th>05-Oct-2021</th><th>Reference&#xA0;Range</th><th>Unit</th></tr><tr><td>Clarity of Urine</td></tr></table></div>"
        },
        "status": "final",
        "subject": {
          "reference": "urn:uuid:83a431b4-6b1d-40cc-97fb-913de45a18b9",
          "display": "Meaghan Neary"
        },
        "effectiveDateTime": "2021-10-04T22:11:04Z",
        "specimen": {
          "reference": "urn:uuid:ee095866-9ce8-4069-8b6a-4a0f657e72ce"
        }
      }
    },
    {
      "fullUrl": "urn:uuid:69435d4f-62ca-4764-9e88-16850a755039",
      "resource": {
        "resourceType": "Observation",
        "id": "69435d4f-62ca-4764-9e88-16850a755039",
        "meta": {
          "profile": [
            "http://hl7.eu/fhir/laboratory/StructureDefinition/Observation-resultslab-eu-lab"
          ]
        },
        "performer": [
          {
            "display": "The Central European Lab"
          }
        ],
        "category": [
          {
            "coding": [
              {
                "system": "http://terminology.hl7.org/CodeSystem/observation-category",
                "code": "laboratory"
              }
            ]
          }
        ],
        "code": {
          "coding": [
            {
              "code": "5778-6",
              "system": "http://loinc.org",
              "display": "Color of Urine"
            }
          ],
          "text": "Color of Urine"
        },
        "text": {
          "status": "generated",
          "div": "<div xmlns=\"http://www.w3.org/1999/xhtml\"><table class=\"hl7__eu__lab__report\"><tr><th>Test</th><th>05-Oct-2021</th><th>Reference&#xA0;Range</th><th>Unit</th></tr><tr><td>Color of Urine</td></tr></table></div>"
        },
        "status": "final",
        "subject": {
          "reference": "urn:uuid:83a431b4-6b1d-40cc-97fb-913de45a18b9",
          "display": "Meaghan Neary"
        },
        "effectiveDateTime": "2021-10-04T22:11:04Z",
        "specimen": {
          "reference": "urn:uuid:ee095866-9ce8-4069-8b6a-4a0f657e72ce"
        }
      }
    },
    {
      "fullUrl": "urn:uuid:a7c356fa-fd24-4c85-a872-53bd6797350a",
      "resource": {
        "resourceType": "Observation",
        "id": "a7c356fa-fd24-4c85-a872-53bd6797350a",
        "meta": {
          "profile": [
            "http://hl7.eu/fhir/laboratory/StructureDefinition/Observation-resultslab-eu-lab"
          ]
        },
        "performer": [
          {
            "display": "The Central European Lab"
          }
        ],
        "category": [
          {
            "coding": [
              {
                "system": "http://terminology.hl7.org/CodeSystem/observation-category",
                "code": "laboratory"
              }
            ]
          }
        ],
        "code": {
          "coding": [
            {
              "code": "5792-7",
              "system": "http://loinc.org",
              "display": "Glucose [Mass/volume] in Urine by Test strip"
            }
          ],
          "text": "Glucose [Mass/volume] in Urine by Test strip"
        },
        "valueQuantity": {
          "system": "http://unitsofmeasure.org",
          "value": 2.2,
          "unit": "mg/dL",
          "code": "mg/dL"
        },
        "referenceRange": [
          {
            "low": {
              "value": 0.8,
              "code": "mg/dL",
              "system": "http://unitsofmeasure.org"
            }
          },
          {
            "high": {
              "value": 0,
              "code": "mg/dL",
              "system": "http://unitsofmeasure.org"
            }
          }
        ],
        "interpretation": [
          {
            "coding": [
              {
                "code": "H",
                "system": "http://terminology.hl7.org/CodeSystem/v3-ObservationInterpretation",
                "display": "High"
              }
            ]
          }
        ],
        "text": {
          "status": "generated",
          "div": "<div xmlns=\"http://www.w3.org/1999/xhtml\"><table class=\"hl7__eu__lab__report\"><tr><th>Test</th><th>05-Oct-2021</th><th>Reference&#xA0;Range</th><th>Unit</th></tr><tr><td>Glucose [Mass/volume] in Urine by Test strip</td><td>2.2</td><td>0.8 - 0</td><td>H</td><td>mg/dL</td></tr></table></div>"
        },
        "status": "final",
        "subject": {
          "reference": "urn:uuid:83a431b4-6b1d-40cc-97fb-913de45a18b9",
          "display": "Meaghan Neary"
        },
        "effectiveDateTime": "2021-10-04T22:11:04Z",
        "specimen": {
          "reference": "urn:uuid:ee095866-9ce8-4069-8b6a-4a0f657e72ce"
        }
      }
    },
    {
      "fullUrl": "urn:uuid:517f1bb0-83bb-4933-86e8-c301ff11b608",
      "resource": {
        "resourceType": "Observation",
        "id": "517f1bb0-83bb-4933-86e8-c301ff11b608",
        "meta": {
          "profile": [
            "http://hl7.eu/fhir/laboratory/StructureDefinition/Observation-resultslab-eu-lab"
          ]
        },
        "performer": [
          {
            "display": "The Central European Lab"
          }
        ],
        "category": [
          {
            "coding": [
              {
                "system": "http://terminology.hl7.org/CodeSystem/observation-category",
                "code": "laboratory"
              }
            ]
          }
        ],
        "code": {
          "coding": [
            {
              "code": "25428-4",
              "system": "http://loinc.org",
              "display": "Glucose [Presence] in Urine by Test strip"
            }
          ],
          "text": "Glucose [Presence] in Urine by Test strip"
        },
        "text": {
          "status": "generated",
          "div": "<div xmlns=\"http://www.w3.org/1999/xhtml\"><table class=\"hl7__eu__lab__report\"><tr><th>Test</th><th>05-Oct-2021</th><th>Reference&#xA0;Range</th><th>Unit</th></tr><tr><td>Glucose [Presence] in Urine by Test strip</td></tr></table></div>"
        },
        "status": "final",
        "subject": {
          "reference": "urn:uuid:83a431b4-6b1d-40cc-97fb-913de45a18b9",
          "display": "Meaghan Neary"
        },
        "effectiveDateTime": "2021-10-04T22:11:04Z",
        "specimen": {
          "reference": "urn:uuid:ee095866-9ce8-4069-8b6a-4a0f657e72ce"
        }
      }
    },
    {
      "fullUrl": "urn:uuid:ba1d937a-4c91-4446-9975-b81547c984e1",
      "resource": {
        "resourceType": "Observation",
        "id": "ba1d937a-4c91-4446-9975-b81547c984e1",
        "meta": {
          "profile": [
            "http://hl7.eu/fhir/laboratory/StructureDefinition/Observation-resultslab-eu-lab"
          ]
        },
        "performer": [
          {
            "display": "The Central European Lab"
          }
        ],
        "category": [
          {
            "coding": [
              {
                "system": "http://terminology.hl7.org/CodeSystem/observation-category",
                "code": "laboratory"
              }
            ]
          }
        ],
        "code": {
          "coding": [
            {
              "code": "20505-4",
              "system": "http://loinc.org",
              "display": "Bilirubin.total [Mass/volume] in Urine by Test strip"
            }
          ],
          "text": "Bilirubin.total [Mass/volume] in Urine by Test strip"
        },
        "valueQuantity": {
          "system": "http://unitsofmeasure.org",
          "value": 0.5,
          "unit": "mg/dL",
          "code": "mg/dL"
        },
        "referenceRange": [
          {
            "low": {
              "value": 0,
              "code": "mg/dL",
              "system": "http://unitsofmeasure.org"
            }
          },
          {
            "high": {
              "value": 1,
              "code": "mg/dL",
              "system": "http://unitsofmeasure.org"
            }
          }
        ],
        "text": {
          "status": "generated",
          "div": "<div xmlns=\"http://www.w3.org/1999/xhtml\"><table class=\"hl7__eu__lab__report\"><tr><th>Test</th><th>05-Oct-2021</th><th>Reference&#xA0;Range</th><th>Unit</th></tr><tr><td>Bilirubin.total [Mass/volume] in Urine by Test strip</td><td>0.5</td><td>0 - 1</td><td></td><td>mg/dL</td></tr></table></div>"
        },
        "status": "final",
        "subject": {
          "reference": "urn:uuid:83a431b4-6b1d-40cc-97fb-913de45a18b9",
          "display": "Meaghan Neary"
        },
        "effectiveDateTime": "2021-10-04T22:11:04Z",
        "specimen": {
          "reference": "urn:uuid:ee095866-9ce8-4069-8b6a-4a0f657e72ce"
        }
      }
    },
    {
      "fullUrl": "urn:uuid:ae34341f-c242-4dde-8a72-2885b8cc032d",
      "resource": {
        "resourceType": "Observation",
        "id": "ae34341f-c242-4dde-8a72-2885b8cc032d",
        "meta": {
          "profile": [
            "http://hl7.eu/fhir/laboratory/StructureDefinition/Observation-resultslab-eu-lab"
          ]
        },
        "performer": [
          {
            "display": "The Central European Lab"
          }
        ],
        "category": [
          {
            "coding": [
              {
                "system": "http://terminology.hl7.org/CodeSystem/observation-category",
                "code": "laboratory"
              }
            ]
          }
        ],
        "code": {
          "coding": [
            {
              "code": "5770-3",
              "system": "http://loinc.org",
              "display": "Bilirubin.total [Presence] in Urine by Test strip"
            }
          ],
          "text": "Bilirubin.total [Presence] in Urine by Test strip"
        },
        "text": {
          "status": "generated",
          "div": "<div xmlns=\"http://www.w3.org/1999/xhtml\"><table class=\"hl7__eu__lab__report\"><tr><th>Test</th><th>05-Oct-2021</th><th>Reference&#xA0;Range</th><th>Unit</th></tr><tr><td>Bilirubin.total [Presence] in Urine by Test strip</td></tr></table></div>"
        },
        "status": "final",
        "subject": {
          "reference": "urn:uuid:83a431b4-6b1d-40cc-97fb-913de45a18b9",
          "display": "Meaghan Neary"
        },
        "effectiveDateTime": "2021-10-04T22:11:04Z",
        "specimen": {
          "reference": "urn:uuid:ee095866-9ce8-4069-8b6a-4a0f657e72ce"
        }
      }
    },
    {
      "fullUrl": "urn:uuid:98bb7e8b-85c5-4104-b870-a2447765a547",
      "resource": {
        "resourceType": "Observation",
        "id": "98bb7e8b-85c5-4104-b870-a2447765a547",
        "meta": {
          "profile": [
            "http://hl7.eu/fhir/laboratory/StructureDefinition/Observation-resultslab-eu-lab"
          ]
        },
        "performer": [
          {
            "display": "The Central European Lab"
          }
        ],
        "category": [
          {
            "coding": [
              {
                "system": "http://terminology.hl7.org/CodeSystem/observation-category",
                "code": "laboratory"
              }
            ]
          }
        ],
        "code": {
          "coding": [
            {
              "code": "5797-6",
              "system": "http://loinc.org",
              "display": "Ketones [Mass/volume] in Urine by Test strip"
            }
          ],
          "text": "Ketones [Mass/volume] in Urine by Test strip"
        },
        "valueQuantity": {
          "system": "http://unitsofmeasure.org",
          "value": 13.1,
          "unit": "mg/dL",
          "code": "mg/dL"
        },
        "referenceRange": [
          {
            "low": {
              "value": 0,
              "code": "mg/dL",
              "system": "http://unitsofmeasure.org"
            }
          },
          {
            "high": {
              "value": 4,
              "code": "mg/dL",
              "system": "http://unitsofmeasure.org"
            }
          }
        ],
        "interpretation": [
          {
            "coding": [
              {
                "code": "H",
                "system": "http://terminology.hl7.org/CodeSystem/v3-ObservationInterpretation",
                "display": "High"
              }
            ]
          }
        ],
        "text": {
          "status": "generated",
          "div": "<div xmlns=\"http://www.w3.org/1999/xhtml\"><table class=\"hl7__eu__lab__report\"><tr><th>Test</th><th>05-Oct-2021</th><th>Reference&#xA0;Range</th><th>Unit</th></tr><tr><td>Ketones [Mass/volume] in Urine by Test strip</td><td>13.1</td><td>0 - 4</td><td>H</td><td>mg/dL</td></tr></table></div>"
        },
        "status": "final",
        "subject": {
          "reference": "urn:uuid:83a431b4-6b1d-40cc-97fb-913de45a18b9",
          "display": "Meaghan Neary"
        },
        "effectiveDateTime": "2021-10-04T22:11:04Z",
        "specimen": {
          "reference": "urn:uuid:ee095866-9ce8-4069-8b6a-4a0f657e72ce"
        }
      }
    },
    {
      "fullUrl": "urn:uuid:9fe905f3-5f95-40e5-9b4a-bd5bd2f2a912",
      "resource": {
        "resourceType": "Observation",
        "id": "9fe905f3-5f95-40e5-9b4a-bd5bd2f2a912",
        "meta": {
          "profile": [
            "http://hl7.eu/fhir/laboratory/StructureDefinition/Observation-resultslab-eu-lab"
          ]
        },
        "performer": [
          {
            "display": "The Central European Lab"
          }
        ],
        "category": [
          {
            "coding": [
              {
                "system": "http://terminology.hl7.org/CodeSystem/observation-category",
                "code": "laboratory"
              }
            ]
          }
        ],
        "code": {
          "coding": [
            {
              "code": "2514-8",
              "system": "http://loinc.org",
              "display": "Ketones [Presence] in Urine by Test strip"
            }
          ],
          "text": "Ketones [Presence] in Urine by Test strip"
        },
        "text": {
          "status": "generated",
          "div": "<div xmlns=\"http://www.w3.org/1999/xhtml\"><table class=\"hl7__eu__lab__report\"><tr><th>Test</th><th>05-Oct-2021</th><th>Reference&#xA0;Range</th><th>Unit</th></tr><tr><td>Ketones [Presence] in Urine by Test strip</td></tr></table></div>"
        },
        "status": "final",
        "subject": {
          "reference": "urn:uuid:83a431b4-6b1d-40cc-97fb-913de45a18b9",
          "display": "Meaghan Neary"
        },
        "effectiveDateTime": "2021-10-04T22:11:04Z",
        "specimen": {
          "reference": "urn:uuid:ee095866-9ce8-4069-8b6a-4a0f657e72ce"
        }
      }
    },
    {
      "fullUrl": "urn:uuid:5d813159-e6b4-49a5-ae09-6a4b4e91fb21",
      "resource": {
        "resourceType": "Observation",
        "id": "5d813159-e6b4-49a5-ae09-6a4b4e91fb21",
        "meta": {
          "profile": [
            "http://hl7.eu/fhir/laboratory/StructureDefinition/Observation-resultslab-eu-lab"
          ]
        },
        "performer": [
          {
            "display": "The Central European Lab"
          }
        ],
        "category": [
          {
            "coding": [
              {
                "system": "http://terminology.hl7.org/CodeSystem/observation-category",
                "code": "laboratory"
              }
            ]
          }
        ],
        "code": {
          "coding": [
            {
              "code": "5811-5",
              "system": "http://loinc.org",
              "display": "Specific gravity of Urine by Test strip"
            }
          ],
          "text": "Specific gravity of Urine by Test strip"
        },
        "valueQuantity": {
          "system": "http://unitsofmeasure.org",
          "value": 1,
          "unit": "{nominal}",
          "code": "{nominal}"
        },
        "referenceRange": [
          {
            "low": {
              "value": 1.005,
              "code": "g/mL",
              "system": "http://unitsofmeasure.org"
            }
          },
          {
            "high": {
              "value": 1.03,
              "code": "g/mL",
              "system": "http://unitsofmeasure.org"
            }
          }
        ],
        "interpretation": [
          {
            "coding": [
              {
                "code": "L",
                "system": "http://terminology.hl7.org/CodeSystem/v3-ObservationInterpretation",
                "display": "Low"
              }
            ]
          }
        ],
        "text": {
          "status": "generated",
          "div": "<div xmlns=\"http://www.w3.org/1999/xhtml\"><table class=\"hl7__eu__lab__report\"><tr><th>Test</th><th>05-Oct-2021</th><th>Reference&#xA0;Range</th><th>Unit</th></tr><tr><td>Specific gravity of Urine by Test strip</td><td>1.0</td><td>1.005 - 1.03</td><td>L</td><td>{nominal}</td></tr></table></div>"
        },
        "status": "final",
        "subject": {
          "reference": "urn:uuid:83a431b4-6b1d-40cc-97fb-913de45a18b9",
          "display": "Meaghan Neary"
        },
        "effectiveDateTime": "2021-10-04T22:11:04Z",
        "specimen": {
          "reference": "urn:uuid:ee095866-9ce8-4069-8b6a-4a0f657e72ce"
        }
      }
    },
    {
      "fullUrl": "urn:uuid:8e76d568-f3d0-4e67-9557-dd2665fde45b",
      "resource": {
        "resourceType": "Observation",
        "id": "8e76d568-f3d0-4e67-9557-dd2665fde45b",
        "meta": {
          "profile": [
            "http://hl7.eu/fhir/laboratory/StructureDefinition/Observation-resultslab-eu-lab"
          ]
        },
        "performer": [
          {
            "display": "The Central European Lab"
          }
        ],
        "category": [
          {
            "coding": [
              {
                "system": "http://terminology.hl7.org/CodeSystem/observation-category",
                "code": "laboratory"
              }
            ]
          }
        ],
        "code": {
          "coding": [
            {
              "code": "5803-2",
              "system": "http://loinc.org",
              "display": "pH of Urine by Test strip"
            }
          ],
          "text": "pH of Urine by Test strip"
        },
        "valueQuantity": {
          "system": "http://unitsofmeasure.org",
          "value": 5.5,
          "unit": "pH",
          "code": "pH"
        },
        "referenceRange": [
          {
            "low": {
              "value": 4.6,
              "code": "pH",
              "system": "http://unitsofmeasure.org"
            }
          },
          {
            "high": {
              "value": 7,
              "code": "pH",
              "system": "http://unitsofmeasure.org"
            }
          }
        ],
        "text": {
          "status": "generated",
          "div": "<div xmlns=\"http://www.w3.org/1999/xhtml\"><table class=\"hl7__eu__lab__report\"><tr><th>Test</th><th>05-Oct-2021</th><th>Reference&#xA0;Range</th><th>Unit</th></tr><tr><td>pH of Urine by Test strip</td><td>5.5</td><td>4.6 - 7</td><td></td><td>pH</td></tr></table></div>"
        },
        "status": "final",
        "subject": {
          "reference": "urn:uuid:83a431b4-6b1d-40cc-97fb-913de45a18b9",
          "display": "Meaghan Neary"
        },
        "effectiveDateTime": "2021-10-04T22:11:04Z",
        "specimen": {
          "reference": "urn:uuid:ee095866-9ce8-4069-8b6a-4a0f657e72ce"
        }
      }
    },
    {
      "fullUrl": "urn:uuid:5a426e06-15b8-4987-bc07-f3f1c5302a9b",
      "resource": {
        "resourceType": "Observation",
        "id": "5a426e06-15b8-4987-bc07-f3f1c5302a9b",
        "meta": {
          "profile": [
            "http://hl7.eu/fhir/laboratory/StructureDefinition/Observation-resultslab-eu-lab"
          ]
        },
        "performer": [
          {
            "display": "The Central European Lab"
          }
        ],
        "category": [
          {
            "coding": [
              {
                "system": "http://terminology.hl7.org/CodeSystem/observation-category",
                "code": "laboratory"
              }
            ]
          }
        ],
        "code": {
          "coding": [
            {
              "code": "5804-0",
              "system": "http://loinc.org",
              "display": "Protein [Mass/volume] in Urine by Test strip"
            }
          ],
          "text": "Protein [Mass/volume] in Urine by Test strip"
        },
        "valueQuantity": {
          "system": "http://unitsofmeasure.org",
          "value": 220.5,
          "unit": "mg/dL",
          "code": "mg/dL"
        },
        "referenceRange": [
          {
            "low": {
              "value": 0,
              "code": "mg/dL",
              "system": "http://unitsofmeasure.org"
            }
          },
          {
            "high": {
              "value": 14,
              "code": "mg/dL",
              "system": "http://unitsofmeasure.org"
            }
          }
        ],
        "interpretation": [
          {
            "coding": [
              {
                "code": "H",
                "system": "http://terminology.hl7.org/CodeSystem/v3-ObservationInterpretation",
                "display": "High"
              }
            ]
          }
        ],
        "text": {
          "status": "generated",
          "div": "<div xmlns=\"http://www.w3.org/1999/xhtml\"><table class=\"hl7__eu__lab__report\"><tr><th>Test</th><th>05-Oct-2021</th><th>Reference&#xA0;Range</th><th>Unit</th></tr><tr><td>Protein [Mass/volume] in Urine by Test strip</td><td>220.5</td><td>0 - 14</td><td>H</td><td>mg/dL</td></tr></table></div>"
        },
        "status": "final",
        "subject": {
          "reference": "urn:uuid:83a431b4-6b1d-40cc-97fb-913de45a18b9",
          "display": "Meaghan Neary"
        },
        "effectiveDateTime": "2021-10-04T22:11:04Z",
        "specimen": {
          "reference": "urn:uuid:ee095866-9ce8-4069-8b6a-4a0f657e72ce"
        }
      }
    },
    {
      "fullUrl": "urn:uuid:04499831-b12e-4145-9b7c-3585d752ef2b",
      "resource": {
        "resourceType": "Observation",
        "id": "04499831-b12e-4145-9b7c-3585d752ef2b",
        "meta": {
          "profile": [
            "http://hl7.eu/fhir/laboratory/StructureDefinition/Observation-resultslab-eu-lab"
          ]
        },
        "performer": [
          {
            "display": "The Central European Lab"
          }
        ],
        "category": [
          {
            "coding": [
              {
                "system": "http://terminology.hl7.org/CodeSystem/observation-category",
                "code": "laboratory"
              }
            ]
          }
        ],
        "code": {
          "coding": [
            {
              "code": "20454-5",
              "system": "http://loinc.org",
              "display": "Protein [Presence] in Urine by Test strip"
            }
          ],
          "text": "Protein [Presence] in Urine by Test strip"
        },
        "text": {
          "status": "generated",
          "div": "<div xmlns=\"http://www.w3.org/1999/xhtml\"><table class=\"hl7__eu__lab__report\"><tr><th>Test</th><th>05-Oct-2021</th><th>Reference&#xA0;Range</th><th>Unit</th></tr><tr><td>Protein [Presence] in Urine by Test strip</td></tr></table></div>"
        },
        "status": "final",
        "subject": {
          "reference": "urn:uuid:83a431b4-6b1d-40cc-97fb-913de45a18b9",
          "display": "Meaghan Neary"
        },
        "effectiveDateTime": "2021-10-04T22:11:04Z",
        "specimen": {
          "reference": "urn:uuid:ee095866-9ce8-4069-8b6a-4a0f657e72ce"
        }
      }
    },
    {
      "fullUrl": "urn:uuid:3454e339-a6cc-4463-8770-ccebb07dde8f",
      "resource": {
        "resourceType": "Observation",
        "id": "3454e339-a6cc-4463-8770-ccebb07dde8f",
        "meta": {
          "profile": [
            "http://hl7.eu/fhir/laboratory/StructureDefinition/Observation-resultslab-eu-lab"
          ]
        },
        "performer": [
          {
            "display": "The Central European Lab"
          }
        ],
        "category": [
          {
            "coding": [
              {
                "system": "http://terminology.hl7.org/CodeSystem/observation-category",
                "code": "laboratory"
              }
            ]
          }
        ],
        "code": {
          "coding": [
            {
              "code": "5802-4",
              "system": "http://loinc.org",
              "display": "Nitrite [Presence] in Urine by Test strip"
            }
          ],
          "text": "Nitrite [Presence] in Urine by Test strip"
        },
        "text": {
          "status": "generated",
          "div": "<div xmlns=\"http://www.w3.org/1999/xhtml\"><table class=\"hl7__eu__lab__report\"><tr><th>Test</th><th>05-Oct-2021</th><th>Reference&#xA0;Range</th><th>Unit</th></tr><tr><td>Nitrite [Presence] in Urine by Test strip</td></tr></table></div>"
        },
        "status": "final",
        "subject": {
          "reference": "urn:uuid:83a431b4-6b1d-40cc-97fb-913de45a18b9",
          "display": "Meaghan Neary"
        },
        "effectiveDateTime": "2021-10-04T22:11:04Z",
        "specimen": {
          "reference": "urn:uuid:ee095866-9ce8-4069-8b6a-4a0f657e72ce"
        }
      }
    },
    {
      "fullUrl": "urn:uuid:1b99a5fa-332a-4d1c-85c3-54bb09d0531f",
      "resource": {
        "resourceType": "Observation",
        "id": "1b99a5fa-332a-4d1c-85c3-54bb09d0531f",
        "meta": {
          "profile": [
            "http://hl7.eu/fhir/laboratory/StructureDefinition/Observation-resultslab-eu-lab"
          ]
        },
        "performer": [
          {
            "display": "The Central European Lab"
          }
        ],
        "category": [
          {
            "coding": [
              {
                "system": "http://terminology.hl7.org/CodeSystem/observation-category",
                "code": "laboratory"
              }
            ]
          }
        ],
        "code": {
          "coding": [
            {
              "code": "5794-3",
              "system": "http://loinc.org",
              "display": "Hemoglobin [Presence] in Urine by Test strip"
            }
          ],
          "text": "Hemoglobin [Presence] in Urine by Test strip"
        },
        "text": {
          "status": "generated",
          "div": "<div xmlns=\"http://www.w3.org/1999/xhtml\"><table class=\"hl7__eu__lab__report\"><tr><th>Test</th><th>05-Oct-2021</th><th>Reference&#xA0;Range</th><th>Unit</th></tr><tr><td>Hemoglobin [Presence] in Urine by Test strip</td></tr></table></div>"
        },
        "status": "final",
        "subject": {
          "reference": "urn:uuid:83a431b4-6b1d-40cc-97fb-913de45a18b9",
          "display": "Meaghan Neary"
        },
        "effectiveDateTime": "2021-10-04T22:11:04Z",
        "specimen": {
          "reference": "urn:uuid:ee095866-9ce8-4069-8b6a-4a0f657e72ce"
        }
      }
    },
    {
      "fullUrl": "urn:uuid:7278cde1-c4da-4ffd-8216-d43458b983aa",
      "resource": {
        "resourceType": "Observation",
        "id": "7278cde1-c4da-4ffd-8216-d43458b983aa",
        "meta": {
          "profile": [
            "http://hl7.eu/fhir/laboratory/StructureDefinition/Observation-resultslab-eu-lab"
          ]
        },
        "performer": [
          {
            "display": "The Central European Lab"
          }
        ],
        "category": [
          {
            "coding": [
              {
                "system": "http://terminology.hl7.org/CodeSystem/observation-category",
                "code": "laboratory"
              }
            ]
          }
        ],
        "code": {
          "coding": [
            {
              "code": "5799-2",
              "system": "http://loinc.org",
              "display": "Leukocyte esterase [Presence] in Urine by Test strip"
            }
          ],
          "text": "Leukocyte esterase [Presence] in Urine by Test strip"
        },
        "text": {
          "status": "generated",
          "div": "<div xmlns=\"http://www.w3.org/1999/xhtml\"><table class=\"hl7__eu__lab__report\"><tr><th>Test</th><th>05-Oct-2021</th><th>Reference&#xA0;Range</th><th>Unit</th></tr><tr><td>Leukocyte esterase [Presence] in Urine by Test strip</td></tr></table></div>"
        },
        "status": "final",
        "subject": {
          "reference": "urn:uuid:83a431b4-6b1d-40cc-97fb-913de45a18b9",
          "display": "Meaghan Neary"
        },
        "effectiveDateTime": "2021-10-04T22:11:04Z",
        "specimen": {
          "reference": "urn:uuid:ee095866-9ce8-4069-8b6a-4a0f657e72ce"
        }
      }
    },
    {
      "fullUrl": "urn:uuid:f4eb0ea9-484a-4086-adcb-2c6d2f0f1210",
      "resource": {
        "resourceType": "Observation",
        "id": "f4eb0ea9-484a-4086-adcb-2c6d2f0f1210",
        "meta": {
          "profile": [
            "http://hl7.eu/fhir/laboratory/StructureDefinition/Observation-resultslab-eu-lab"
          ]
        },
        "performer": [
          {
            "display": "The Central European Lab"
          }
        ],
        "category": [
          {
            "coding": [
              {
                "system": "http://terminology.hl7.org/CodeSystem/observation-category",
                "code": "laboratory"
              }
            ]
          }
        ],
        "code": {
          "coding": [
            {
              "code": "4548-4",
              "system": "http://loinc.org",
              "display": "Hemoglobin A1c/Hemoglobin.total in Blood"
            }
          ],
          "text": "Hemoglobin A1c/Hemoglobin.total in Blood"
        },
        "valueQuantity": {
          "system": "http://unitsofmeasure.org",
          "value": 2.8,
          "unit": "%",
          "code": "%"
        },
        "referenceRange": [
          {
            "low": {
              "value": 4,
              "code": "%",
              "system": "http://unitsofmeasure.org"
            }
          },
          {
            "high": {
              "value": 6.4,
              "code": "%",
              "system": "http://unitsofmeasure.org"
            }
          }
        ],
        "interpretation": [
          {
            "coding": [
              {
                "code": "L",
                "system": "http://terminology.hl7.org/CodeSystem/v3-ObservationInterpretation",
                "display": "Low"
              }
            ]
          }
        ],
        "text": {
          "status": "generated",
          "div": "<div xmlns=\"http://www.w3.org/1999/xhtml\"><table class=\"hl7__eu__lab__report\"><tr><th>Test</th><th>05-Oct-2021</th><th>Reference&#xA0;Range</th><th>Unit</th></tr><tr><td>Hemoglobin A1c/Hemoglobin.total in Blood</td><td>2.8</td><td>4 - 6.4</td><td>L</td><td>%</td></tr></table></div>"
        },
        "status": "final",
        "subject": {
          "reference": "urn:uuid:83a431b4-6b1d-40cc-97fb-913de45a18b9",
          "display": "Meaghan Neary"
        },
        "effectiveDateTime": "2021-10-04T22:11:04Z",
        "specimen": {
          "reference": "urn:uuid:80efaa69-8dff-415d-9f15-72660a32d8da"
        }
      }
    },
    {
      "fullUrl": "urn:uuid:b5cca024-930f-43de-b3b5-2f10894257eb",
      "resource": {
        "resourceType": "Observation",
        "id": "b5cca024-930f-43de-b3b5-2f10894257eb",
        "meta": {
          "profile": [
            "http://hl7.eu/fhir/laboratory/StructureDefinition/Observation-resultslab-eu-lab"
          ]
        },
        "performer": [
          {
            "display": "The Central European Lab"
          }
        ],
        "category": [
          {
            "coding": [
              {
                "system": "http://terminology.hl7.org/CodeSystem/observation-category",
                "code": "laboratory"
              }
            ]
          }
        ],
        "code": {
          "coding": [
            {
              "code": "2339-0",
              "system": "http://loinc.org",
              "display": "Glucose [Mass/volume] in Blood"
            }
          ],
          "text": "Glucose [Mass/volume] in Blood"
        },
        "valueQuantity": {
          "system": "http://unitsofmeasure.org",
          "value": 80.8,
          "unit": "mg/dL",
          "code": "mg/dL"
        },
        "referenceRange": [
          {
            "low": {
              "value": 70,
              "code": "mg/dL",
              "system": "http://unitsofmeasure.org"
            }
          },
          {
            "high": {
              "value": 100,
              "code": "mg/dL",
              "system": "http://unitsofmeasure.org"
            }
          }
        ],
        "text": {
          "status": "generated",
          "div": "<div xmlns=\"http://www.w3.org/1999/xhtml\"><table class=\"hl7__eu__lab__report\"><tr><th>Test</th><th>05-Oct-2021</th><th>Reference&#xA0;Range</th><th>Unit</th></tr><tr><td>Glucose [Mass/volume] in Blood</td><td>80.8</td><td>70 - 100</td><td></td><td>mg/dL</td></tr></table></div>"
        },
        "status": "final",
        "subject": {
          "reference": "urn:uuid:83a431b4-6b1d-40cc-97fb-913de45a18b9",
          "display": "Meaghan Neary"
        },
        "effectiveDateTime": "2021-10-04T22:11:04Z",
        "specimen": {
          "reference": "urn:uuid:80efaa69-8dff-415d-9f15-72660a32d8da"
        }
      }
    },
    {
      "fullUrl": "urn:uuid:870a9f99-03d6-4e92-991c-04132ef75a0c",
      "resource": {
        "resourceType": "Observation",
        "id": "870a9f99-03d6-4e92-991c-04132ef75a0c",
        "meta": {
          "profile": [
            "http://hl7.eu/fhir/laboratory/StructureDefinition/Observation-resultslab-eu-lab"
          ]
        },
        "performer": [
          {
            "display": "The Central European Lab"
          }
        ],
        "category": [
          {
            "coding": [
              {
                "system": "http://terminology.hl7.org/CodeSystem/observation-category",
                "code": "laboratory"
              }
            ]
          }
        ],
        "code": {
          "coding": [
            {
              "code": "6299-2",
              "system": "http://loinc.org",
              "display": "Urea nitrogen [Mass/volume] in Blood"
            }
          ],
          "text": "Urea nitrogen [Mass/volume] in Blood"
        },
        "valueQuantity": {
          "system": "http://unitsofmeasure.org",
          "value": 16.3,
          "unit": "mg/dL",
          "code": "mg/dL"
        },
        "referenceRange": [
          {
            "low": {
              "value": 7,
              "code": "mg/dL",
              "system": "http://unitsofmeasure.org"
            }
          },
          {
            "high": {
              "value": 43,
              "code": "mg/dL",
              "system": "http://unitsofmeasure.org"
            }
          }
        ],
        "text": {
          "status": "generated",
          "div": "<div xmlns=\"http://www.w3.org/1999/xhtml\"><table class=\"hl7__eu__lab__report\"><tr><th>Test</th><th>05-Oct-2021</th><th>Reference&#xA0;Range</th><th>Unit</th></tr><tr><td>Urea nitrogen [Mass/volume] in Blood</td><td>16.3</td><td>7 - 43</td><td></td><td>mg/dL</td></tr></table></div>"
        },
        "status": "final",
        "subject": {
          "reference": "urn:uuid:83a431b4-6b1d-40cc-97fb-913de45a18b9",
          "display": "Meaghan Neary"
        },
        "effectiveDateTime": "2021-10-04T22:11:04Z",
        "specimen": {
          "reference": "urn:uuid:80efaa69-8dff-415d-9f15-72660a32d8da"
        }
      }
    },
    {
      "fullUrl": "urn:uuid:671f3f98-4ddd-415f-9c16-dde6ba0322a6",
      "resource": {
        "resourceType": "Observation",
        "id": "671f3f98-4ddd-415f-9c16-dde6ba0322a6",
        "meta": {
          "profile": [
            "http://hl7.eu/fhir/laboratory/StructureDefinition/Observation-resultslab-eu-lab"
          ]
        },
        "performer": [
          {
            "display": "The Central European Lab"
          }
        ],
        "category": [
          {
            "coding": [
              {
                "system": "http://terminology.hl7.org/CodeSystem/observation-category",
                "code": "laboratory"
              }
            ]
          }
        ],
        "code": {
          "coding": [
            {
              "code": "38483-4",
              "system": "http://loinc.org",
              "display": "Creatinine [Mass/volume] in Blood"
            }
          ],
          "text": "Creatinine [Mass/volume] in Blood"
        },
        "valueQuantity": {
          "system": "http://unitsofmeasure.org",
          "value": 3.8,
          "unit": "mg/dL",
          "code": "mg/dL"
        },
        "referenceRange": [
          {
            "low": {
              "value": 0.6,
              "code": "mg/dL",
              "system": "http://unitsofmeasure.org"
            }
          },
          {
            "high": {
              "value": 1.1,
              "code": "mg/dL",
              "system": "http://unitsofmeasure.org"
            }
          }
        ],
        "interpretation": [
          {
            "coding": [
              {
                "code": "H",
                "system": "http://terminology.hl7.org/CodeSystem/v3-ObservationInterpretation",
                "display": "High"
              }
            ]
          }
        ],
        "text": {
          "status": "generated",
          "div": "<div xmlns=\"http://www.w3.org/1999/xhtml\"><table class=\"hl7__eu__lab__report\"><tr><th>Test</th><th>05-Oct-2021</th><th>Reference&#xA0;Range</th><th>Unit</th></tr><tr><td>Creatinine [Mass/volume] in Blood</td><td>3.8</td><td>0.6 - 1.1</td><td>H</td><td>mg/dL</td></tr></table></div>"
        },
        "status": "final",
        "subject": {
          "reference": "urn:uuid:83a431b4-6b1d-40cc-97fb-913de45a18b9",
          "display": "Meaghan Neary"
        },
        "effectiveDateTime": "2021-10-04T22:11:04Z",
        "specimen": {
          "reference": "urn:uuid:80efaa69-8dff-415d-9f15-72660a32d8da"
        }
      }
    },
    {
      "fullUrl": "urn:uuid:87d4084a-36d3-4a39-9679-ff677e587091",
      "resource": {
        "resourceType": "Observation",
        "id": "87d4084a-36d3-4a39-9679-ff677e587091",
        "meta": {
          "profile": [
            "http://hl7.eu/fhir/laboratory/StructureDefinition/Observation-resultslab-eu-lab"
          ]
        },
        "performer": [
          {
            "display": "The Central European Lab"
          }
        ],
        "category": [
          {
            "coding": [
              {
                "system": "http://terminology.hl7.org/CodeSystem/observation-category",
                "code": "laboratory"
              }
            ]
          }
        ],
        "code": {
          "coding": [
            {
              "code": "49765-1",
              "system": "http://loinc.org",
              "display": "Calcium [Mass/volume] in Blood"
            }
          ],
          "text": "Calcium [Mass/volume] in Blood"
        },
        "valueQuantity": {
          "system": "http://unitsofmeasure.org",
          "value": 9.1,
          "unit": "mg/dL",
          "code": "mg/dL"
        },
        "referenceRange": [
          {
            "low": {
              "value": 8.5,
              "code": "mg/dL",
              "system": "http://unitsofmeasure.org"
            }
          },
          {
            "high": {
              "value": 10.5,
              "code": "mg/dL",
              "system": "http://unitsofmeasure.org"
            }
          }
        ],
        "text": {
          "status": "generated",
          "div": "<div xmlns=\"http://www.w3.org/1999/xhtml\"><table class=\"hl7__eu__lab__report\"><tr><th>Test</th><th>05-Oct-2021</th><th>Reference&#xA0;Range</th><th>Unit</th></tr><tr><td>Calcium [Mass/volume] in Blood</td><td>9.1</td><td>8.5 - 10.5</td><td></td><td>mg/dL</td></tr></table></div>"
        },
        "status": "final",
        "subject": {
          "reference": "urn:uuid:83a431b4-6b1d-40cc-97fb-913de45a18b9",
          "display": "Meaghan Neary"
        },
        "effectiveDateTime": "2021-10-04T22:11:04Z",
        "specimen": {
          "reference": "urn:uuid:80efaa69-8dff-415d-9f15-72660a32d8da"
        }
      }
    },
    {
      "fullUrl": "urn:uuid:385d3bd5-6d5f-4042-b407-a75850a03375",
      "resource": {
        "resourceType": "Observation",
        "id": "385d3bd5-6d5f-4042-b407-a75850a03375",
        "meta": {
          "profile": [
            "http://hl7.eu/fhir/laboratory/StructureDefinition/Observation-resultslab-eu-lab"
          ]
        },
        "performer": [
          {
            "display": "The Central European Lab"
          }
        ],
        "category": [
          {
            "coding": [
              {
                "system": "http://terminology.hl7.org/CodeSystem/observation-category",
                "code": "laboratory"
              }
            ]
          }
        ],
        "code": {
          "coding": [
            {
              "code": "2947-0",
              "system": "http://loinc.org",
              "display": "Sodium [Moles/volume] in Blood"
            }
          ],
          "text": "Sodium [Moles/volume] in Blood"
        },
        "valueQuantity": {
          "system": "http://unitsofmeasure.org",
          "value": 140.7,
          "unit": "mmol/L",
          "code": "mmol/L"
        },
        "referenceRange": [
          {
            "low": {
              "value": 135,
              "code": "mmol/L",
              "system": "http://unitsofmeasure.org"
            }
          },
          {
            "high": {
              "value": 145,
              "code": "mmol/L",
              "system": "http://unitsofmeasure.org"
            }
          }
        ],
        "text": {
          "status": "generated",
          "div": "<div xmlns=\"http://www.w3.org/1999/xhtml\"><table class=\"hl7__eu__lab__report\"><tr><th>Test</th><th>05-Oct-2021</th><th>Reference&#xA0;Range</th><th>Unit</th></tr><tr><td>Sodium [Moles/volume] in Blood</td><td>140.7</td><td>135 - 145</td><td></td><td>mmol/L</td></tr></table></div>"
        },
        "status": "final",
        "subject": {
          "reference": "urn:uuid:83a431b4-6b1d-40cc-97fb-913de45a18b9",
          "display": "Meaghan Neary"
        },
        "effectiveDateTime": "2021-10-04T22:11:04Z",
        "specimen": {
          "reference": "urn:uuid:80efaa69-8dff-415d-9f15-72660a32d8da"
        }
      }
    },
    {
      "fullUrl": "urn:uuid:7600c761-9cad-46a3-bb69-b7fb8cfec988",
      "resource": {
        "resourceType": "Observation",
        "id": "7600c761-9cad-46a3-bb69-b7fb8cfec988",
        "meta": {
          "profile": [
            "http://hl7.eu/fhir/laboratory/StructureDefinition/Observation-resultslab-eu-lab"
          ]
        },
        "performer": [
          {
            "display": "The Central European Lab"
          }
        ],
        "category": [
          {
            "coding": [
              {
                "system": "http://terminology.hl7.org/CodeSystem/observation-category",
                "code": "laboratory"
              }
            ]
          }
        ],
        "code": {
          "coding": [
            {
              "code": "6298-4",
              "system": "http://loinc.org",
              "display": "Potassium [Moles/volume] in Blood"
            }
          ],
          "text": "Potassium [Moles/volume] in Blood"
        },
        "valueQuantity": {
          "system": "http://unitsofmeasure.org",
          "value": 4.6,
          "unit": "mmol/L",
          "code": "mmol/L"
        },
        "referenceRange": [
          {
            "low": {
              "value": 3.5,
              "code": "mmol/L",
              "system": "http://unitsofmeasure.org"
            }
          },
          {
            "high": {
              "value": 5.1,
              "code": "mmol/L",
              "system": "http://unitsofmeasure.org"
            }
          }
        ],
        "text": {
          "status": "generated",
          "div": "<div xmlns=\"http://www.w3.org/1999/xhtml\"><table class=\"hl7__eu__lab__report\"><tr><th>Test</th><th>05-Oct-2021</th><th>Reference&#xA0;Range</th><th>Unit</th></tr><tr><td>Potassium [Moles/volume] in Blood</td><td>4.6</td><td>3.5 - 5.1</td><td></td><td>mmol/L</td></tr></table></div>"
        },
        "status": "final",
        "subject": {
          "reference": "urn:uuid:83a431b4-6b1d-40cc-97fb-913de45a18b9",
          "display": "Meaghan Neary"
        },
        "effectiveDateTime": "2021-10-04T22:11:04Z",
        "specimen": {
          "reference": "urn:uuid:80efaa69-8dff-415d-9f15-72660a32d8da"
        }
      }
    },
    {
      "fullUrl": "urn:uuid:f7f37375-f33b-44a3-8f45-a1684c64ffda",
      "resource": {
        "resourceType": "Observation",
        "id": "f7f37375-f33b-44a3-8f45-a1684c64ffda",
        "meta": {
          "profile": [
            "http://hl7.eu/fhir/laboratory/StructureDefinition/Observation-resultslab-eu-lab"
          ]
        },
        "performer": [
          {
            "display": "The Central European Lab"
          }
        ],
        "category": [
          {
            "coding": [
              {
                "system": "http://terminology.hl7.org/CodeSystem/observation-category",
                "code": "laboratory"
              }
            ]
          }
        ],
        "code": {
          "coding": [
            {
              "code": "2069-3",
              "system": "http://loinc.org",
              "display": "Chloride [Moles/volume] in Blood"
            }
          ],
          "text": "Chloride [Moles/volume] in Blood"
        },
        "valueQuantity": {
          "system": "http://unitsofmeasure.org",
          "value": 109.8,
          "unit": "mmol/L",
          "code": "mmol/L"
        },
        "referenceRange": [
          {
            "low": {
              "value": 98,
              "code": "mmol/L",
              "system": "http://unitsofmeasure.org"
            }
          },
          {
            "high": {
              "value": 108,
              "code": "mmol/L",
              "system": "http://unitsofmeasure.org"
            }
          }
        ],
        "interpretation": [
          {
            "coding": [
              {
                "code": "H",
                "system": "http://terminology.hl7.org/CodeSystem/v3-ObservationInterpretation",
                "display": "High"
              }
            ]
          }
        ],
        "text": {
          "status": "generated",
          "div": "<div xmlns=\"http://www.w3.org/1999/xhtml\"><table class=\"hl7__eu__lab__report\"><tr><th>Test</th><th>05-Oct-2021</th><th>Reference&#xA0;Range</th><th>Unit</th></tr><tr><td>Chloride [Moles/volume] in Blood</td><td>109.8</td><td>98 - 108</td><td>H</td><td>mmol/L</td></tr></table></div>"
        },
        "status": "final",
        "subject": {
          "reference": "urn:uuid:83a431b4-6b1d-40cc-97fb-913de45a18b9",
          "display": "Meaghan Neary"
        },
        "effectiveDateTime": "2021-10-04T22:11:04Z",
        "specimen": {
          "reference": "urn:uuid:80efaa69-8dff-415d-9f15-72660a32d8da"
        }
      }
    },
    {
      "fullUrl": "urn:uuid:c9a80253-cf93-4356-af0b-ac7c3208fe53",
      "resource": {
        "resourceType": "Observation",
        "id": "c9a80253-cf93-4356-af0b-ac7c3208fe53",
        "meta": {
          "profile": [
            "http://hl7.eu/fhir/laboratory/StructureDefinition/Observation-resultslab-eu-lab"
          ]
        },
        "performer": [
          {
            "display": "The Central European Lab"
          }
        ],
        "category": [
          {
            "coding": [
              {
                "system": "http://terminology.hl7.org/CodeSystem/observation-category",
                "code": "laboratory"
              }
            ]
          }
        ],
        "code": {
          "coding": [
            {
              "code": "20565-8",
              "system": "http://loinc.org",
              "display": "Carbon dioxide, total [Moles/volume] in Blood"
            }
          ],
          "text": "Carbon dioxide, total [Moles/volume] in Blood"
        },
        "valueQuantity": {
          "system": "http://unitsofmeasure.org",
          "value": 23.8,
          "unit": "mmol/L",
          "code": "mmol/L"
        },
        "referenceRange": [
          {
            "low": {
              "value": 22,
              "code": "mmol/L",
              "system": "http://unitsofmeasure.org"
            }
          },
          {
            "high": {
              "value": 29,
              "code": "mmol/L",
              "system": "http://unitsofmeasure.org"
            }
          }
        ],
        "text": {
          "status": "generated",
          "div": "<div xmlns=\"http://www.w3.org/1999/xhtml\"><table class=\"hl7__eu__lab__report\"><tr><th>Test</th><th>05-Oct-2021</th><th>Reference&#xA0;Range</th><th>Unit</th></tr><tr><td>Carbon dioxide, total [Moles/volume] in Blood</td><td>23.8</td><td>22 - 29</td><td></td><td>mmol/L</td></tr></table></div>"
        },
        "status": "final",
        "subject": {
          "reference": "urn:uuid:83a431b4-6b1d-40cc-97fb-913de45a18b9",
          "display": "Meaghan Neary"
        },
        "effectiveDateTime": "2021-10-04T22:11:04Z",
        "specimen": {
          "reference": "urn:uuid:80efaa69-8dff-415d-9f15-72660a32d8da"
        }
      }
    },
    {
      "fullUrl": "urn:uuid:b1f07054-18f7-449a-836d-1cf22aa98c4b",
      "resource": {
        "resourceType": "Device",
        "id": "b1f07054-18f7-449a-836d-1cf22aa98c4b",
        "deviceName": [
          {
            "name": "SYNDERAI Synthetic Generator",
            "type": "manufacturer-name"
          }
        ],
        "version": [
          {
            "value": "5.0"
          }
        ],
        "text": {
          "status": "generated",
          "div": "<div xmlns=\"http://www.w3.org/1999/xhtml\">SYNDERAI Synthetic Generator v5.0</div>"
        },
        "status": "active\"",
        "distinctIdentifier": "synderai-generator-50",
        "manufacturer": "SYNDERAI Project"
      }
    },
    {
      "fullUrl": "urn:uuid:fb1f7f04-3615-472b-ab3f-a2152994f7fc",
      "resource": {
        "resourceType": "Provenance",
        "id": "fb1f7f04-3615-472b-ab3f-a2152994f7fc",
        "target": [
          {
            "reference": "Patient/83a431b4-6b1d-40cc-97fb-913de45a18b9"
          },
          {
            "reference": "Bundle/11f7b4ee-e01c-4f42-92ae-2ef42d3b41cd"
          },
          {
            "reference": "Composition/62470e77-635d-4981-b75c-6892f3db0251"
          },
          {
            "reference": "PractitionerRole/a7e01652-1862-444c-aa5a-6cd92b5e0ff7"
          },
          {
            "reference": "Practitioner/de7d68cf-9f18-482b-835e-c4c65bfd8ae1"
          },
          {
            "reference": "PractitionerRole/784626bf-97a2-468f-b57e-df9d3b3ac524"
          },
          {
            "reference": "Organization/a9c55d0d-ec05-41c3-9f9e-0cf347bbfb90"
          }
        ],
        "activity": {
          "text": "Synthetic Example Data Generation"
        },
        "policy": [
          "https://synderai.net/synderai-synthetic-data-policy"
        ],
        "agent": [
          {
            "type": {
              "text": "author"
            },
            "who": {
              "reference": "Device/b1f07054-18f7-449a-836d-1cf22aa98c4b"
            }
          }
        ],
        "reason": [
          {
            "text": "Interoperability Testing and Training (non-clinical use)"
          }
        ],
        "text": {
          "status": "generated",
          "div": "<div xmlns=\"http://www.w3.org/1999/xhtml\">Provenance for SYNDERAI Synthetic Example Data Resource</div>"
        },
        "recorded": "2021-10-05T00:11:04Z"
      }
    },
    {
      "fullUrl": "urn:uuid:a7e01652-1862-444c-aa5a-6cd92b5e0ff7",
      "resource": {
        "resourceType": "PractitionerRole",
        "id": "a7e01652-1862-444c-aa5a-6cd92b5e0ff7",
        "meta": {
          "profile": [
            "http://hl7.eu/fhir/base/StructureDefinition/practitionerRole-eu"
          ]
        },
        "text": {
          "status": "generated",
          "div": "<div xmlns=\"http://www.w3.org/1999/xhtml\">Laboratory Role Id: a7e01652-1862-444c-aa5a-6cd92b5e0ff7</div>"
        },
        "practitioner": {
          "reference": "urn:uuid:de7d68cf-9f18-482b-835e-c4c65bfd8ae1"
        }
      }
    },
    {
      "fullUrl": "urn:uuid:de7d68cf-9f18-482b-835e-c4c65bfd8ae1",
      "resource": {
        "resourceType": "Practitioner",
        "id": "de7d68cf-9f18-482b-835e-c4c65bfd8ae1",
        "meta": {
          "profile": [
            "http://hl7.eu/fhir/base/StructureDefinition/practitioner-eu"
          ]
        },
        "identifier": [
          {
            "assigner": {
              "display": "HL7 Europe"
            },
            "system": "urn:oid:2.16.840.1.113883.2.51.999",
            "value": "7ef20c2b-5448-4586-ac47-7e6ba21fafb7"
          }
        ],
        "name": [
          {
            "prefix": [
              "dr"
            ],
            "given": [
              "Ex"
            ],
            "family": "Ample"
          }
        ],
        "address": [
          {
            "line": [
              "Laboratoire Central Europenne",
              "Boulevard du Jardin Botanique 32"
            ],
            "postalCode": "1000",
            "city": "Brussels",
            "country": "Belgium"
          }
        ],
        "text": {
          "status": "generated",
          "div": "<div xmlns=\"http://www.w3.org/1999/xhtml\">Laboratory: Laboratoire Central Europenne, 1000 Brussels, Belgium</div>"
        }
      }
    }
  ],
  "type": "document",
  "timestamp": "2021-10-05T00:11:04Z"
}
