{
  "resourceType": "Bundle",
  "id": "8e30abe2-e181-4065-b223-0fd973ae8a7a",
  "meta": {
    "profile": [
      "http://hl7.eu/fhir/laboratory/StructureDefinition/Bundle-eu-lab"
    ]
  },
  "identifier": {
    "assigner": {
      "display": "HL7 Europe"
    },
    "system": "urn:oid:2.16.840.1.113883.2.51.999",
    "value": "3226d41d-7d17-4ff5-a78e-05d9b80f23e0"
  },
  "entry": [
    {
      "fullUrl": "urn:uuid:03df9595-132d-4682-9fce-4ddc6299d652",
      "resource": {
        "resourceType": "Composition",
        "id": "03df9595-132d-4682-9fce-4ddc6299d652",
        "meta": {
          "profile": [
            "http://hl7.eu/fhir/laboratory/StructureDefinition/Composition-eu-lab"
          ]
        },
        "identifier": {
          "assigner": {
            "display": "HL7 Europe"
          },
          "system": "urn:oid:2.16.840.1.113883.2.51.999",
          "value": "ef2530e5-e98e-4872-b004-7ee092d9535d"
        },
        "author": [
          {
            "reference": "urn:uuid:02f91886-0d1a-4b25-ab4a-925fe4951cea"
          }
        ],
        "category": [
          {
            "coding": [
              {
                "code": "26436-6",
                "system": "http://loinc.org",
                "display": "Laboratory studies (set)"
              }
            ]
          }
        ],
        "type": {
          "coding": [
            {
              "code": "11502-2",
              "system": "http://loinc.org",
              "display": "Laboratory report"
            }
          ],
          "text": "Laboratory Report"
        },
        "section": [
          {
            "code": {
              "coding": [
                {
                  "code": "26436-6",
                  "system": "http://loinc.org",
                  "display": "Laboratory studies (set)"
                }
              ],
              "text": "Laboratory studies"
            },
            "section": [
              {
                "code": {
                  "coding": [
                    {
                      "code": "$18719-5",
                      "system": "http://loinc.org",
                      "display": "Chemistry studies (set)"
                    }
                  ],
                  "text": "Chemistry"
                },
                "entry": [
                  {
                    "reference": "urn:uuid:08585de1-c01a-443d-812c-2731268bf556"
                  },
                  {
                    "reference": "urn:uuid:abe942e8-1a9a-4c5a-985f-919077616097"
                  },
                  {
                    "reference": "urn:uuid:284995de-9d43-497e-b7ca-ff7032d19abe"
                  },
                  {
                    "reference": "urn:uuid:ec8ed44f-3e9e-457b-871c-d6b4aeab85d1"
                  },
                  {
                    "reference": "urn:uuid:22fcb4e6-5e30-433f-a555-ee36a6ce1328"
                  },
                  {
                    "reference": "urn:uuid:c68c250c-de6d-4e32-b197-5ff4a3898c44"
                  },
                  {
                    "reference": "urn:uuid:0bd4a73d-9023-4b01-aaeb-f306fa34535d"
                  },
                  {
                    "reference": "urn:uuid:798df5cc-3268-479f-9936-fe76e4da8e14"
                  },
                  {
                    "reference": "urn:uuid:6c802e71-b5c5-4304-ad3f-1db2a4ebf309"
                  }
                ],
                "text": {
                  "status": "generated",
                  "div": "<div xmlns=\"http://www.w3.org/1999/xhtml\"><h3>Chemistry</h3><table class=\"hl7__eu__lab__report\"><thead><tr><th>Test</th><th>16-MAR-2019</th><th>Reference&#xA0;Range</th><th>Unit</th></tr></thead><tbody><tr><td>Hemoglobin A1c/Hemoglobin.total in Blood</td><td>6.2</td><td>4.3 - 6.4</td><td>%</td></tr><tr><td>Glucose [Mass/volume] in Blood</td><td>79.6</td><td>70 - 140</td><td>mg/dL</td></tr><tr><td>Urea nitrogen [Mass/volume] in Blood</td><td>17.4</td><td>7 - 20</td><td>mg/dL</td></tr><tr><td>Creatinine [Mass/volume] in Blood</td><td><strong>1.4 H</strong></td><td>0.6 - 1.3</td><td>mg/dL</td></tr><tr><td>Calcium [Mass/volume] in Blood</td><td>10.2</td><td>8.5 - 10.5</td><td>mg/dL</td></tr><tr><td>Sodium [Moles/volume] in Blood</td><td>136.6</td><td>135 - 145</td><td>mmol/L</td></tr><tr><td>Potassium [Moles/volume] in Blood</td><td>4.1</td><td>3.5 - 5.3</td><td>mmol/L</td></tr><tr><td>Chloride [Moles/volume] in Blood</td><td>107.6</td><td>98 - 110</td><td>mmol/L</td></tr><tr><td>Carbon dioxide, total [Moles/volume] in Blood</td><td>26.1</td><td>22 - 29</td><td>mmol/L</td></tr></tbody></table></div>"
                },
                "title": "Chemistry"
              }
            ],
            "title": "Laboratory Report"
          },
          {
            "text": {
              "status": "generated",
              "div": "<div xmlns=\"http://www.w3.org/1999/xhtml\"><h3>Annotation</h3><table class=\"hl7__eu__lab__report\"><tr><th>Conclusion and Recommendations based on this report and previous findings known to us</th></tr><tr><td>All results are within normal limits except for a mildly elevated creatinine, which may indicate reduced kidney function. Glucose and HbA1c are at the upper end of normal, suggesting good glycemic control but continued monitoring is advised. No acute abnormalities detected; recommend follow-up of renal function.</td></tr></table></div>"
            },
            "code": {
              "coding": [
                {
                  "system": "http://loinc.org",
                  "code": "48767-8",
                  "display": "Annotation comment"
                }
              ]
            },
            "title": "Annotation comment"
          }
        ],
        "status": "final",
        "subject": {
          "reference": "urn:uuid:1a2e7d50-79af-408e-86fe-29e55663b80d",
          "display": "Andrzej Frydrychowicz"
        },
        "date": "2019-03-16T22:33:04Z",
        "title": "Laboratory Report",
        "confidentiality": "N"
      }
    },
    {
      "fullUrl": "urn:uuid:5ffa0ea2-04f1-4abc-8248-d3dae00ed99d",
      "resource": {
        "resourceType": "DiagnosticReport",
        "id": "5ffa0ea2-04f1-4abc-8248-d3dae00ed99d",
        "meta": {
          "profile": [
            "http://hl7.eu/fhir/laboratory/StructureDefinition/DiagnosticReport-eu-lab"
          ]
        },
        "identifier": [
          {
            "assigner": {
              "display": "HL7 Europe"
            },
            "system": "urn:oid:2.16.840.1.113883.2.51.999",
            "value": "36f196d4-1379-44cc-9481-6771f28130d9"
          }
        ],
        "extension": [
          {
            "url": "http://hl7.org/fhir/5.0/StructureDefinition/extension-DiagnosticReport.composition",
            "valueReference": {
              "reference": "urn:uuid:ef2530e5-e98e-4872-b004-7ee092d9535d"
            }
          }
        ],
        "category": [
          {
            "coding": [
              {
                "code": "26436-6",
                "system": "http://loinc.org",
                "display": "Laboratory studies (set)"
              }
            ]
          }
        ],
        "specimen": [
          {
            "reference": "urn:uuid:8a9be82f-17c4-4927-aa18-24effe6d7273"
          }
        ],
        "result": [
          {
            "reference": "urn:uuid:08585de1-c01a-443d-812c-2731268bf556"
          },
          {
            "reference": "urn:uuid:abe942e8-1a9a-4c5a-985f-919077616097"
          },
          {
            "reference": "urn:uuid:284995de-9d43-497e-b7ca-ff7032d19abe"
          },
          {
            "reference": "urn:uuid:ec8ed44f-3e9e-457b-871c-d6b4aeab85d1"
          },
          {
            "reference": "urn:uuid:22fcb4e6-5e30-433f-a555-ee36a6ce1328"
          },
          {
            "reference": "urn:uuid:c68c250c-de6d-4e32-b197-5ff4a3898c44"
          },
          {
            "reference": "urn:uuid:0bd4a73d-9023-4b01-aaeb-f306fa34535d"
          },
          {
            "reference": "urn:uuid:798df5cc-3268-479f-9936-fe76e4da8e14"
          },
          {
            "reference": "urn:uuid:6c802e71-b5c5-4304-ad3f-1db2a4ebf309"
          }
        ],
        "status": "registered",
        "code": {
          "coding": [
            {
              "code": "11502-2",
              "system": "http://loinc.org",
              "display": "Laboratory report"
            }
          ]
        },
        "subject": {
          "reference": "urn:uuid:1a2e7d50-79af-408e-86fe-29e55663b80d",
          "display": "Andrzej Frydrychowicz"
        }
      }
    },
    {
      "fullUrl": "urn:uuid:1a2e7d50-79af-408e-86fe-29e55663b80d",
      "resource": {
        "resourceType": "Patient",
        "id": "1a2e7d50-79af-408e-86fe-29e55663b80d",
        "meta": {
          "security": [
            {
              "system": "http://terminology.hl7.org/CodeSystem/v3-ActReason",
              "code": "HTEST"
            },
            {
              "system": "http://terminology.hl7.org/CodeSystem/v3-ActReason",
              "code": "TRAIN"
            }
          ],
          "tag": [
            {
              "system": "https://synderai.net/fhir/CodeSystem/tags",
              "code": "synthetic",
              "display": "SYNDERAI Synthetic data"
            }
          ],
          "profile": [
            "http://hl7.eu/fhir/base/StructureDefinition/patient-eu-core"
          ]
        },
        "identifier": [
          {
            "type": {
              "coding": [
                {
                  "code": "PT",
                  "system": "http://terminology.hl7.org/CodeSystem/v2-0203"
                }
              ]
            },
            "system": "http://ec.europa.eu/identifier/eci",
            "value": "7036-931598-4"
          },
          {
            "type": {
              "coding": [
                {
                  "code": "MR",
                  "system": "http://terminology.hl7.org/CodeSystem/v2-0203"
                }
              ]
            },
            "system": "http://local.setting.eu/identifier",
            "value": "c84bd820-cdcf-9bc1-d9ba-aa083a5eb400"
          }
        ],
        "name": [
          {
            "family": "Frydrychowicz"
          },
          {
            "given": [
              "Andrzej"
            ]
          },
          {
            "text": "Andrzej Frydrychowicz"
          }
        ],
        "address": [
          {
            "line": [
              "aleja Tulipanowa 94"
            ],
            "use": "home",
            "type": "physical",
            "postalCode": "21-040",
            "city": "Świdnik",
            "country": "Poland"
          }
        ],
        "telecom": [
          {
            "system": "phone",
            "value": "516 092 560"
          }
        ],
        "extension": [
          {
            "url": "http://hl7.org/fhir/StructureDefinition/patient-nationality",
            "valueCodeableConcept": {
              "coding": [
                {
                  "code": "PL",
                  "system": "http://hl7.org/fhir/ValueSet/country"
                }
              ]
            }
          }
        ],
        "text": {
          "status": "generated",
          "div": "<div xmlns=\"http://www.w3.org/1999/xhtml\"><table class=\"hl7__ips\"><tr><td>Andrzej Frydrychowicz</td><td>male</td><td>12-Apr-1974</td></tr></table></div>"
        },
        "gender": "male",
        "birthDate": "1974-04-12"
      }
    },
    {
      "fullUrl": "urn:uuid:afa6c6df-f5c2-4290-9211-fd1518b3a861",
      "resource": {
        "resourceType": "ServiceRequest",
        "id": "afa6c6df-f5c2-4290-9211-fd1518b3a861",
        "meta": {
          "profile": [
            "http://hl7.eu/fhir/laboratory/StructureDefinition/ServiceRequest-eu-lab"
          ]
        },
        "identifier": [
          {
            "system": "http://example.org",
            "value": "1ee0add7-17aa-4330-9213-4fed7c9b9a33"
          }
        ],
        "specimen": [
          {
            "reference": "urn:uuid:8a9be82f-17c4-4927-aa18-24effe6d7273"
          }
        ],
        "reasonCode": [
          {
            "coding": [
              {
                "code": "414545008",
                "system": "http://snomed.info/sct",
                "display": "Ischemic heart disease"
              }
            ]
          },
          {
            "coding": [
              {
                "code": "239873007",
                "system": "http://snomed.info/sct",
                "display": "Osteoarthritis of knee"
              }
            ]
          },
          {
            "coding": [
              {
                "code": "15777000",
                "system": "http://snomed.info/sct",
                "display": "Prediabetes"
              }
            ]
          },
          {
            "coding": [
              {
                "code": "271737000",
                "system": "http://snomed.info/sct",
                "display": "Anemia"
              }
            ]
          }
        ],
        "status": "active",
        "intent": "order",
        "code": {
          "coding": [
            {
              "code": "108252007",
              "system": "http://snomed.info/sct",
              "display": "Laboratory procedure"
            }
          ]
        },
        "subject": {
          "reference": "urn:uuid:1a2e7d50-79af-408e-86fe-29e55663b80d",
          "display": "Andrzej Frydrychowicz"
        },
        "requester": {
          "reference": "urn:uuid:e8423259-6004-4aac-9545-36e1eee87339"
        }
      }
    },
    {
      "fullUrl": "urn:uuid:e8423259-6004-4aac-9545-36e1eee87339",
      "resource": {
        "resourceType": "PractitionerRole",
        "id": "e8423259-6004-4aac-9545-36e1eee87339",
        "meta": {
          "profile": [
            "http://hl7.eu/fhir/base/StructureDefinition/practitionerRole-eu"
          ]
        },
        "text": {
          "status": "generated",
          "div": "<div xmlns=\"http://www.w3.org/1999/xhtml\">Provider Role Id: e8423259-6004-4aac-9545-36e1eee87339</div>"
        },
        "organization": {
          "reference": "urn:uuid:d3166f58-a42b-4d27-b839-88a1d5f00503"
        }
      }
    },
    {
      "fullUrl": "urn:uuid:d3166f58-a42b-4d27-b839-88a1d5f00503",
      "resource": {
        "resourceType": "Organization",
        "id": "d3166f58-a42b-4d27-b839-88a1d5f00503",
        "meta": {
          "profile": [
            "http://hl7.eu/fhir/base/StructureDefinition/organization-eu"
          ]
        },
        "identifier": [
          {
            "assigner": {
              "display": "HL7 Europe"
            },
            "system": "urn:oid:2.16.840.1.113883.2.51.999",
            "value": "79287706-6a4b-42d9-b9dc-242fc569bcd7"
          }
        ],
        "address": [
          {
            "line": [
              "Aleja Lotników Polskich 82"
            ],
            "city": "Świdnik",
            "postalCode": "21-040",
            "country": "Poland"
          }
        ],
        "text": {
          "status": "generated",
          "div": "<div xmlns=\"http://www.w3.org/1999/xhtml\">Provider Organization: Lubelskie Centrum Diagnostyczne</div>"
        },
        "name": "Lubelskie Centrum Diagnostyczne"
      }
    },
    {
      "fullUrl": "urn:uuid:8a9be82f-17c4-4927-aa18-24effe6d7273",
      "resource": {
        "resourceType": "Specimen",
        "id": "8a9be82f-17c4-4927-aa18-24effe6d7273",
        "meta": {
          "profile": [
            "http://hl7.eu/fhir/laboratory/StructureDefinition/Specimen-eu-lab"
          ]
        },
        "collection": {
          "collectedDateTime": "2019-03-16"
        },
        "text": {
          "status": "generated",
          "div": "<div xmlns=\"http://www.w3.org/1999/xhtml\"><table class=\"hl7__eu__lab__report\"><tr><th>Specimen</th><th>Collection Date</th></tr><tr><td>Whole blood specimen (specimen)</td><td><span class=\"nb\">16-Mar-2019</span></td></tr></table></div>"
        },
        "type": {
          "coding": [
            {
              "code": "258580003",
              "system": "http://snomed.info/sct",
              "display": "Whole blood specimen (specimen)"
            }
          ]
        }
      }
    },
    {
      "fullUrl": "urn:uuid:08585de1-c01a-443d-812c-2731268bf556",
      "resource": {
        "resourceType": "Observation",
        "id": "08585de1-c01a-443d-812c-2731268bf556",
        "meta": {
          "profile": [
            "http://hl7.eu/fhir/laboratory/StructureDefinition/Observation-resultslab-eu-lab"
          ]
        },
        "performer": [
          {
            "display": "The Central European Lab"
          }
        ],
        "category": [
          {
            "coding": [
              {
                "system": "http://terminology.hl7.org/CodeSystem/observation-category",
                "code": "laboratory"
              }
            ]
          }
        ],
        "code": {
          "coding": [
            {
              "code": "4548-4",
              "system": "http://loinc.org",
              "display": "Hemoglobin A1c/Hemoglobin.total in Blood"
            }
          ],
          "text": "Hemoglobin A1c/Hemoglobin.total in Blood"
        },
        "valueQuantity": {
          "system": "http://unitsofmeasure.org",
          "value": 6.2,
          "unit": "%",
          "code": "%"
        },
        "referenceRange": [
          {
            "low": {
              "value": 4.3,
              "code": "%",
              "system": "http://unitsofmeasure.org"
            }
          },
          {
            "high": {
              "value": 6.4,
              "code": "%",
              "system": "http://unitsofmeasure.org"
            }
          }
        ],
        "text": {
          "status": "generated",
          "div": "<div xmlns=\"http://www.w3.org/1999/xhtml\"><table class=\"hl7__eu__lab__report\"><tr><th>Test</th><th>16-Mar-2019</th><th>Reference&#xA0;Range</th><th>Unit</th></tr><tr><td>Hemoglobin A1c/Hemoglobin.total in Blood</td><td>6.2</td><td>4.3 - 6.4</td><td></td><td>%</td></tr></table></div>"
        },
        "status": "final",
        "subject": {
          "reference": "urn:uuid:1a2e7d50-79af-408e-86fe-29e55663b80d",
          "display": "Andrzej Frydrychowicz"
        },
        "effectiveDateTime": "2019-03-16T21:33:04Z",
        "specimen": {
          "reference": "urn:uuid:8a9be82f-17c4-4927-aa18-24effe6d7273"
        }
      }
    },
    {
      "fullUrl": "urn:uuid:abe942e8-1a9a-4c5a-985f-919077616097",
      "resource": {
        "resourceType": "Observation",
        "id": "abe942e8-1a9a-4c5a-985f-919077616097",
        "meta": {
          "profile": [
            "http://hl7.eu/fhir/laboratory/StructureDefinition/Observation-resultslab-eu-lab"
          ]
        },
        "performer": [
          {
            "display": "The Central European Lab"
          }
        ],
        "category": [
          {
            "coding": [
              {
                "system": "http://terminology.hl7.org/CodeSystem/observation-category",
                "code": "laboratory"
              }
            ]
          }
        ],
        "code": {
          "coding": [
            {
              "code": "2339-0",
              "system": "http://loinc.org",
              "display": "Glucose [Mass/volume] in Blood"
            }
          ],
          "text": "Glucose [Mass/volume] in Blood"
        },
        "valueQuantity": {
          "system": "http://unitsofmeasure.org",
          "value": 79.6,
          "unit": "mg/dL",
          "code": "mg/dL"
        },
        "referenceRange": [
          {
            "low": {
              "value": 70,
              "code": "mg/dL",
              "system": "http://unitsofmeasure.org"
            }
          },
          {
            "high": {
              "value": 140,
              "code": "mg/dL",
              "system": "http://unitsofmeasure.org"
            }
          }
        ],
        "text": {
          "status": "generated",
          "div": "<div xmlns=\"http://www.w3.org/1999/xhtml\"><table class=\"hl7__eu__lab__report\"><tr><th>Test</th><th>16-Mar-2019</th><th>Reference&#xA0;Range</th><th>Unit</th></tr><tr><td>Glucose [Mass/volume] in Blood</td><td>79.6</td><td>70 - 140</td><td></td><td>mg/dL</td></tr></table></div>"
        },
        "status": "final",
        "subject": {
          "reference": "urn:uuid:1a2e7d50-79af-408e-86fe-29e55663b80d",
          "display": "Andrzej Frydrychowicz"
        },
        "effectiveDateTime": "2019-03-16T21:33:04Z",
        "specimen": {
          "reference": "urn:uuid:8a9be82f-17c4-4927-aa18-24effe6d7273"
        }
      }
    },
    {
      "fullUrl": "urn:uuid:284995de-9d43-497e-b7ca-ff7032d19abe",
      "resource": {
        "resourceType": "Observation",
        "id": "284995de-9d43-497e-b7ca-ff7032d19abe",
        "meta": {
          "profile": [
            "http://hl7.eu/fhir/laboratory/StructureDefinition/Observation-resultslab-eu-lab"
          ]
        },
        "performer": [
          {
            "display": "The Central European Lab"
          }
        ],
        "category": [
          {
            "coding": [
              {
                "system": "http://terminology.hl7.org/CodeSystem/observation-category",
                "code": "laboratory"
              }
            ]
          }
        ],
        "code": {
          "coding": [
            {
              "code": "6299-2",
              "system": "http://loinc.org",
              "display": "Urea nitrogen [Mass/volume] in Blood"
            }
          ],
          "text": "Urea nitrogen [Mass/volume] in Blood"
        },
        "valueQuantity": {
          "system": "http://unitsofmeasure.org",
          "value": 17.4,
          "unit": "mg/dL",
          "code": "mg/dL"
        },
        "referenceRange": [
          {
            "low": {
              "value": 7,
              "code": "mg/dL",
              "system": "http://unitsofmeasure.org"
            }
          },
          {
            "high": {
              "value": 20,
              "code": "mg/dL",
              "system": "http://unitsofmeasure.org"
            }
          }
        ],
        "text": {
          "status": "generated",
          "div": "<div xmlns=\"http://www.w3.org/1999/xhtml\"><table class=\"hl7__eu__lab__report\"><tr><th>Test</th><th>16-Mar-2019</th><th>Reference&#xA0;Range</th><th>Unit</th></tr><tr><td>Urea nitrogen [Mass/volume] in Blood</td><td>17.4</td><td>7 - 20</td><td></td><td>mg/dL</td></tr></table></div>"
        },
        "status": "final",
        "subject": {
          "reference": "urn:uuid:1a2e7d50-79af-408e-86fe-29e55663b80d",
          "display": "Andrzej Frydrychowicz"
        },
        "effectiveDateTime": "2019-03-16T21:33:04Z",
        "specimen": {
          "reference": "urn:uuid:8a9be82f-17c4-4927-aa18-24effe6d7273"
        }
      }
    },
    {
      "fullUrl": "urn:uuid:ec8ed44f-3e9e-457b-871c-d6b4aeab85d1",
      "resource": {
        "resourceType": "Observation",
        "id": "ec8ed44f-3e9e-457b-871c-d6b4aeab85d1",
        "meta": {
          "profile": [
            "http://hl7.eu/fhir/laboratory/StructureDefinition/Observation-resultslab-eu-lab"
          ]
        },
        "performer": [
          {
            "display": "The Central European Lab"
          }
        ],
        "category": [
          {
            "coding": [
              {
                "system": "http://terminology.hl7.org/CodeSystem/observation-category",
                "code": "laboratory"
              }
            ]
          }
        ],
        "code": {
          "coding": [
            {
              "code": "38483-4",
              "system": "http://loinc.org",
              "display": "Creatinine [Mass/volume] in Blood"
            }
          ],
          "text": "Creatinine [Mass/volume] in Blood"
        },
        "valueQuantity": {
          "system": "http://unitsofmeasure.org",
          "value": 1.4,
          "unit": "mg/dL",
          "code": "mg/dL"
        },
        "referenceRange": [
          {
            "low": {
              "value": 0.6,
              "code": "mg/dL",
              "system": "http://unitsofmeasure.org"
            }
          },
          {
            "high": {
              "value": 1.3,
              "code": "mg/dL",
              "system": "http://unitsofmeasure.org"
            }
          }
        ],
        "interpretation": [
          {
            "coding": [
              {
                "code": "H",
                "system": "http://terminology.hl7.org/CodeSystem/v3-ObservationInterpretation",
                "display": "High"
              }
            ]
          }
        ],
        "text": {
          "status": "generated",
          "div": "<div xmlns=\"http://www.w3.org/1999/xhtml\"><table class=\"hl7__eu__lab__report\"><tr><th>Test</th><th>16-Mar-2019</th><th>Reference&#xA0;Range</th><th>Unit</th></tr><tr><td>Creatinine [Mass/volume] in Blood</td><td>1.4</td><td>0.6 - 1.3</td><td>H</td><td>mg/dL</td></tr></table></div>"
        },
        "status": "final",
        "subject": {
          "reference": "urn:uuid:1a2e7d50-79af-408e-86fe-29e55663b80d",
          "display": "Andrzej Frydrychowicz"
        },
        "effectiveDateTime": "2019-03-16T21:33:04Z",
        "specimen": {
          "reference": "urn:uuid:8a9be82f-17c4-4927-aa18-24effe6d7273"
        }
      }
    },
    {
      "fullUrl": "urn:uuid:22fcb4e6-5e30-433f-a555-ee36a6ce1328",
      "resource": {
        "resourceType": "Observation",
        "id": "22fcb4e6-5e30-433f-a555-ee36a6ce1328",
        "meta": {
          "profile": [
            "http://hl7.eu/fhir/laboratory/StructureDefinition/Observation-resultslab-eu-lab"
          ]
        },
        "performer": [
          {
            "display": "The Central European Lab"
          }
        ],
        "category": [
          {
            "coding": [
              {
                "system": "http://terminology.hl7.org/CodeSystem/observation-category",
                "code": "laboratory"
              }
            ]
          }
        ],
        "code": {
          "coding": [
            {
              "code": "49765-1",
              "system": "http://loinc.org",
              "display": "Calcium [Mass/volume] in Blood"
            }
          ],
          "text": "Calcium [Mass/volume] in Blood"
        },
        "valueQuantity": {
          "system": "http://unitsofmeasure.org",
          "value": 10.2,
          "unit": "mg/dL",
          "code": "mg/dL"
        },
        "referenceRange": [
          {
            "low": {
              "value": 8.5,
              "code": "mg/dL",
              "system": "http://unitsofmeasure.org"
            }
          },
          {
            "high": {
              "value": 10.5,
              "code": "mg/dL",
              "system": "http://unitsofmeasure.org"
            }
          }
        ],
        "text": {
          "status": "generated",
          "div": "<div xmlns=\"http://www.w3.org/1999/xhtml\"><table class=\"hl7__eu__lab__report\"><tr><th>Test</th><th>16-Mar-2019</th><th>Reference&#xA0;Range</th><th>Unit</th></tr><tr><td>Calcium [Mass/volume] in Blood</td><td>10.2</td><td>8.5 - 10.5</td><td></td><td>mg/dL</td></tr></table></div>"
        },
        "status": "final",
        "subject": {
          "reference": "urn:uuid:1a2e7d50-79af-408e-86fe-29e55663b80d",
          "display": "Andrzej Frydrychowicz"
        },
        "effectiveDateTime": "2019-03-16T21:33:04Z",
        "specimen": {
          "reference": "urn:uuid:8a9be82f-17c4-4927-aa18-24effe6d7273"
        }
      }
    },
    {
      "fullUrl": "urn:uuid:c68c250c-de6d-4e32-b197-5ff4a3898c44",
      "resource": {
        "resourceType": "Observation",
        "id": "c68c250c-de6d-4e32-b197-5ff4a3898c44",
        "meta": {
          "profile": [
            "http://hl7.eu/fhir/laboratory/StructureDefinition/Observation-resultslab-eu-lab"
          ]
        },
        "performer": [
          {
            "display": "The Central European Lab"
          }
        ],
        "category": [
          {
            "coding": [
              {
                "system": "http://terminology.hl7.org/CodeSystem/observation-category",
                "code": "laboratory"
              }
            ]
          }
        ],
        "code": {
          "coding": [
            {
              "code": "2947-0",
              "system": "http://loinc.org",
              "display": "Sodium [Moles/volume] in Blood"
            }
          ],
          "text": "Sodium [Moles/volume] in Blood"
        },
        "valueQuantity": {
          "system": "http://unitsofmeasure.org",
          "value": 136.6,
          "unit": "mmol/L",
          "code": "mmol/L"
        },
        "referenceRange": [
          {
            "low": {
              "value": 135,
              "code": "mmol/L",
              "system": "http://unitsofmeasure.org"
            }
          },
          {
            "high": {
              "value": 145,
              "code": "mmol/L",
              "system": "http://unitsofmeasure.org"
            }
          }
        ],
        "text": {
          "status": "generated",
          "div": "<div xmlns=\"http://www.w3.org/1999/xhtml\"><table class=\"hl7__eu__lab__report\"><tr><th>Test</th><th>16-Mar-2019</th><th>Reference&#xA0;Range</th><th>Unit</th></tr><tr><td>Sodium [Moles/volume] in Blood</td><td>136.6</td><td>135 - 145</td><td></td><td>mmol/L</td></tr></table></div>"
        },
        "status": "final",
        "subject": {
          "reference": "urn:uuid:1a2e7d50-79af-408e-86fe-29e55663b80d",
          "display": "Andrzej Frydrychowicz"
        },
        "effectiveDateTime": "2019-03-16T21:33:04Z",
        "specimen": {
          "reference": "urn:uuid:8a9be82f-17c4-4927-aa18-24effe6d7273"
        }
      }
    },
    {
      "fullUrl": "urn:uuid:0bd4a73d-9023-4b01-aaeb-f306fa34535d",
      "resource": {
        "resourceType": "Observation",
        "id": "0bd4a73d-9023-4b01-aaeb-f306fa34535d",
        "meta": {
          "profile": [
            "http://hl7.eu/fhir/laboratory/StructureDefinition/Observation-resultslab-eu-lab"
          ]
        },
        "performer": [
          {
            "display": "The Central European Lab"
          }
        ],
        "category": [
          {
            "coding": [
              {
                "system": "http://terminology.hl7.org/CodeSystem/observation-category",
                "code": "laboratory"
              }
            ]
          }
        ],
        "code": {
          "coding": [
            {
              "code": "6298-4",
              "system": "http://loinc.org",
              "display": "Potassium [Moles/volume] in Blood"
            }
          ],
          "text": "Potassium [Moles/volume] in Blood"
        },
        "valueQuantity": {
          "system": "http://unitsofmeasure.org",
          "value": 4.1,
          "unit": "mmol/L",
          "code": "mmol/L"
        },
        "referenceRange": [
          {
            "low": {
              "value": 3.5,
              "code": "mmol/L",
              "system": "http://unitsofmeasure.org"
            }
          },
          {
            "high": {
              "value": 5.3,
              "code": "mmol/L",
              "system": "http://unitsofmeasure.org"
            }
          }
        ],
        "text": {
          "status": "generated",
          "div": "<div xmlns=\"http://www.w3.org/1999/xhtml\"><table class=\"hl7__eu__lab__report\"><tr><th>Test</th><th>16-Mar-2019</th><th>Reference&#xA0;Range</th><th>Unit</th></tr><tr><td>Potassium [Moles/volume] in Blood</td><td>4.1</td><td>3.5 - 5.3</td><td></td><td>mmol/L</td></tr></table></div>"
        },
        "status": "final",
        "subject": {
          "reference": "urn:uuid:1a2e7d50-79af-408e-86fe-29e55663b80d",
          "display": "Andrzej Frydrychowicz"
        },
        "effectiveDateTime": "2019-03-16T21:33:04Z",
        "specimen": {
          "reference": "urn:uuid:8a9be82f-17c4-4927-aa18-24effe6d7273"
        }
      }
    },
    {
      "fullUrl": "urn:uuid:798df5cc-3268-479f-9936-fe76e4da8e14",
      "resource": {
        "resourceType": "Observation",
        "id": "798df5cc-3268-479f-9936-fe76e4da8e14",
        "meta": {
          "profile": [
            "http://hl7.eu/fhir/laboratory/StructureDefinition/Observation-resultslab-eu-lab"
          ]
        },
        "performer": [
          {
            "display": "The Central European Lab"
          }
        ],
        "category": [
          {
            "coding": [
              {
                "system": "http://terminology.hl7.org/CodeSystem/observation-category",
                "code": "laboratory"
              }
            ]
          }
        ],
        "code": {
          "coding": [
            {
              "code": "2069-3",
              "system": "http://loinc.org",
              "display": "Chloride [Moles/volume] in Blood"
            }
          ],
          "text": "Chloride [Moles/volume] in Blood"
        },
        "valueQuantity": {
          "system": "http://unitsofmeasure.org",
          "value": 107.6,
          "unit": "mmol/L",
          "code": "mmol/L"
        },
        "referenceRange": [
          {
            "low": {
              "value": 98,
              "code": "mmol/L",
              "system": "http://unitsofmeasure.org"
            }
          },
          {
            "high": {
              "value": 110,
              "code": "mmol/L",
              "system": "http://unitsofmeasure.org"
            }
          }
        ],
        "text": {
          "status": "generated",
          "div": "<div xmlns=\"http://www.w3.org/1999/xhtml\"><table class=\"hl7__eu__lab__report\"><tr><th>Test</th><th>16-Mar-2019</th><th>Reference&#xA0;Range</th><th>Unit</th></tr><tr><td>Chloride [Moles/volume] in Blood</td><td>107.6</td><td>98 - 110</td><td></td><td>mmol/L</td></tr></table></div>"
        },
        "status": "final",
        "subject": {
          "reference": "urn:uuid:1a2e7d50-79af-408e-86fe-29e55663b80d",
          "display": "Andrzej Frydrychowicz"
        },
        "effectiveDateTime": "2019-03-16T21:33:04Z",
        "specimen": {
          "reference": "urn:uuid:8a9be82f-17c4-4927-aa18-24effe6d7273"
        }
      }
    },
    {
      "fullUrl": "urn:uuid:6c802e71-b5c5-4304-ad3f-1db2a4ebf309",
      "resource": {
        "resourceType": "Observation",
        "id": "6c802e71-b5c5-4304-ad3f-1db2a4ebf309",
        "meta": {
          "profile": [
            "http://hl7.eu/fhir/laboratory/StructureDefinition/Observation-resultslab-eu-lab"
          ]
        },
        "performer": [
          {
            "display": "The Central European Lab"
          }
        ],
        "category": [
          {
            "coding": [
              {
                "system": "http://terminology.hl7.org/CodeSystem/observation-category",
                "code": "laboratory"
              }
            ]
          }
        ],
        "code": {
          "coding": [
            {
              "code": "20565-8",
              "system": "http://loinc.org",
              "display": "Carbon dioxide, total [Moles/volume] in Blood"
            }
          ],
          "text": "Carbon dioxide, total [Moles/volume] in Blood"
        },
        "valueQuantity": {
          "system": "http://unitsofmeasure.org",
          "value": 26.1,
          "unit": "mmol/L",
          "code": "mmol/L"
        },
        "referenceRange": [
          {
            "low": {
              "value": 22,
              "code": "mmol/L",
              "system": "http://unitsofmeasure.org"
            }
          },
          {
            "high": {
              "value": 29,
              "code": "mmol/L",
              "system": "http://unitsofmeasure.org"
            }
          }
        ],
        "text": {
          "status": "generated",
          "div": "<div xmlns=\"http://www.w3.org/1999/xhtml\"><table class=\"hl7__eu__lab__report\"><tr><th>Test</th><th>16-Mar-2019</th><th>Reference&#xA0;Range</th><th>Unit</th></tr><tr><td>Carbon dioxide, total [Moles/volume] in Blood</td><td>26.1</td><td>22 - 29</td><td></td><td>mmol/L</td></tr></table></div>"
        },
        "status": "final",
        "subject": {
          "reference": "urn:uuid:1a2e7d50-79af-408e-86fe-29e55663b80d",
          "display": "Andrzej Frydrychowicz"
        },
        "effectiveDateTime": "2019-03-16T21:33:04Z",
        "specimen": {
          "reference": "urn:uuid:8a9be82f-17c4-4927-aa18-24effe6d7273"
        }
      }
    },
    {
      "fullUrl": "urn:uuid:a16576eb-35f2-464b-9be0-9aa2c07bb24c",
      "resource": {
        "resourceType": "Device",
        "id": "a16576eb-35f2-464b-9be0-9aa2c07bb24c",
        "deviceName": [
          {
            "name": "SYNDERAI Synthetic Generator",
            "type": "manufacturer-name"
          }
        ],
        "version": [
          {
            "value": "5.0"
          }
        ],
        "text": {
          "status": "generated",
          "div": "<div xmlns=\"http://www.w3.org/1999/xhtml\">SYNDERAI Synthetic Generator v5.0</div>"
        },
        "status": "active\"",
        "distinctIdentifier": "synderai-generator-50",
        "manufacturer": "SYNDERAI Project"
      }
    },
    {
      "fullUrl": "urn:uuid:b625c1c6-8320-45d2-855e-e759dc223625",
      "resource": {
        "resourceType": "Provenance",
        "id": "b625c1c6-8320-45d2-855e-e759dc223625",
        "target": [
          {
            "reference": "Patient/1a2e7d50-79af-408e-86fe-29e55663b80d"
          },
          {
            "reference": "Bundle/8e30abe2-e181-4065-b223-0fd973ae8a7a"
          },
          {
            "reference": "Composition/03df9595-132d-4682-9fce-4ddc6299d652"
          },
          {
            "reference": "PractitionerRole/02f91886-0d1a-4b25-ab4a-925fe4951cea"
          },
          {
            "reference": "Practitioner/21aebb2f-7cc4-4d4d-a372-b2108e86176b"
          },
          {
            "reference": "PractitionerRole/e8423259-6004-4aac-9545-36e1eee87339"
          },
          {
            "reference": "Organization/d3166f58-a42b-4d27-b839-88a1d5f00503"
          }
        ],
        "activity": {
          "text": "Synthetic Example Data Generation"
        },
        "policy": [
          "https://synderai.net/synderai-synthetic-data-policy"
        ],
        "agent": [
          {
            "type": {
              "text": "author"
            },
            "who": {
              "reference": "Device/a16576eb-35f2-464b-9be0-9aa2c07bb24c"
            }
          }
        ],
        "reason": [
          {
            "text": "Interoperability Testing and Training (non-clinical use)"
          }
        ],
        "text": {
          "status": "generated",
          "div": "<div xmlns=\"http://www.w3.org/1999/xhtml\">Provenance for SYNDERAI Synthetic Example Data Resource</div>"
        },
        "recorded": "2019-03-16T22:33:04Z"
      }
    },
    {
      "fullUrl": "urn:uuid:02f91886-0d1a-4b25-ab4a-925fe4951cea",
      "resource": {
        "resourceType": "PractitionerRole",
        "id": "02f91886-0d1a-4b25-ab4a-925fe4951cea",
        "meta": {
          "profile": [
            "http://hl7.eu/fhir/base/StructureDefinition/practitionerRole-eu"
          ]
        },
        "text": {
          "status": "generated",
          "div": "<div xmlns=\"http://www.w3.org/1999/xhtml\">Laboratory Role Id: 02f91886-0d1a-4b25-ab4a-925fe4951cea</div>"
        },
        "practitioner": {
          "reference": "urn:uuid:21aebb2f-7cc4-4d4d-a372-b2108e86176b"
        }
      }
    },
    {
      "fullUrl": "urn:uuid:21aebb2f-7cc4-4d4d-a372-b2108e86176b",
      "resource": {
        "resourceType": "Practitioner",
        "id": "21aebb2f-7cc4-4d4d-a372-b2108e86176b",
        "meta": {
          "profile": [
            "http://hl7.eu/fhir/base/StructureDefinition/practitioner-eu"
          ]
        },
        "identifier": [
          {
            "assigner": {
              "display": "HL7 Europe"
            },
            "system": "urn:oid:2.16.840.1.113883.2.51.999",
            "value": "8647522e-8a4b-4bbc-b0ca-b6a51d57b1bf"
          }
        ],
        "name": [
          {
            "prefix": [
              "dr"
            ],
            "given": [
              "Ex"
            ],
            "family": "Ample"
          }
        ],
        "address": [
          {
            "line": [
              "Laboratoire Central Européenne",
              "Boulevard du Jardin Botanique 32"
            ],
            "postalCode": "1000",
            "city": "Brussels",
            "country": "Belgium"
          }
        ],
        "text": {
          "status": "generated",
          "div": "<div xmlns=\"http://www.w3.org/1999/xhtml\">Laboratory: Laboratoire Central Européenne, 1000 Brussels, Belgium</div>"
        }
      }
    }
  ],
  "type": "document",
  "timestamp": "2019-03-16T22:33:04Z"
}
