{
  "resourceType": "Bundle",
  "id": "044afc4e-b404-4512-ae90-33e20e00a2ba",
  "meta": {
    "profile": [
      "http://hl7.eu/fhir/laboratory/StructureDefinition/Bundle-eu-lab"
    ]
  },
  "identifier": {
    "assigner": {
      "display": "HL7 Europe"
    },
    "system": "urn:oid:2.16.840.1.113883.2.51.999",
    "value": "9c368e1f-0e9c-41a6-b60f-f42fc4626b55"
  },
  "entry": [
    {
      "fullUrl": "urn:uuid:bc3f7682-3e21-473f-a6da-c12b6e0a7818",
      "resource": {
        "resourceType": "Composition",
        "id": "bc3f7682-3e21-473f-a6da-c12b6e0a7818",
        "meta": {
          "profile": [
            "http://hl7.eu/fhir/laboratory/StructureDefinition/Composition-eu-lab"
          ]
        },
        "identifier": {
          "assigner": {
            "display": "HL7 Europe"
          },
          "system": "urn:oid:2.16.840.1.113883.2.51.999",
          "value": "a6184bac-2b17-46f4-982a-93f26354f633"
        },
        "author": [
          {
            "reference": "urn:uuid:468b774f-a79b-4e3d-8147-8f43d4db9c8a"
          }
        ],
        "category": [
          {
            "coding": [
              {
                "code": "26436-6",
                "system": "http://loinc.org",
                "display": "Laboratory studies (set)"
              }
            ]
          }
        ],
        "type": {
          "coding": [
            {
              "code": "11502-2",
              "system": "http://loinc.org",
              "display": "Laboratory report"
            }
          ],
          "text": "Laboratory Report"
        },
        "section": [
          {
            "code": {
              "coding": [
                {
                  "code": "26436-6",
                  "system": "http://loinc.org",
                  "display": "Laboratory studies (set)"
                }
              ],
              "text": "Laboratory studies"
            },
            "section": [
              {
                "code": {
                  "coding": [
                    {
                      "code": "$18719-5",
                      "system": "http://loinc.org",
                      "display": "Chemistry studies (set)"
                    }
                  ],
                  "text": "Chemistry"
                },
                "entry": [
                  {
                    "reference": "urn:uuid:2073ba6b-8164-4d4d-abb9-52c4fb529f9a"
                  },
                  {
                    "reference": "urn:uuid:45533860-730b-46a3-a7c4-a6088b926bee"
                  },
                  {
                    "reference": "urn:uuid:7f4badf2-745d-403e-b97d-9e0982986df9"
                  },
                  {
                    "reference": "urn:uuid:98fcd3ee-bbea-4743-a5b0-d9140ef680a5"
                  },
                  {
                    "reference": "urn:uuid:706fab4f-4c40-48c0-9954-c730739f69aa"
                  },
                  {
                    "reference": "urn:uuid:beed1980-8ce3-45fa-8396-47fca6dabaff"
                  },
                  {
                    "reference": "urn:uuid:bab8ee23-93fe-45e6-bd9a-c9f479d67fdd"
                  },
                  {
                    "reference": "urn:uuid:69a2174f-309b-4eb9-88ac-a36eba2f7062"
                  },
                  {
                    "reference": "urn:uuid:2ee0e61e-d443-4ff8-b7e4-25c06cef8f24"
                  },
                  {
                    "reference": "urn:uuid:c9ece6f7-1008-4d4d-ab5c-6c54220321c5"
                  }
                ],
                "text": {
                  "status": "generated",
                  "div": "<div xmlns=\"http://www.w3.org/1999/xhtml\"><h3>Chemistry</h3><table class=\"hl7__eu__lab__report\"><thead><tr><th>Test</th><th>23-MAY-2024</th><th>Reference&#xA0;Range</th><th>Unit</th></tr></thead><tbody><tr><td>Glucose [Mass/volume] in Serum or Plasma</td><td>96.0</td><td>70 - 139</td><td>mg/dL</td></tr><tr><td>Urea nitrogen [Mass/volume] in Serum or Plasma</td><td>18.2</td><td>7 - 20</td><td>mg/dL</td></tr><tr><td>Creatinine [Mass/volume] in Serum or Plasma</td><td><strong>1.9 H</strong></td><td>0.6 - 1.1</td><td>mg/dL</td></tr><tr><td>Calcium [Mass/volume] in Serum or Plasma</td><td>9.6</td><td>8.5 - 10.4</td><td>mg/dL</td></tr><tr><td>Sodium [Moles/volume] in Serum or Plasma</td><td>136.2</td><td>135 - 145</td><td>mmol/L</td></tr><tr><td>Potassium [Moles/volume] in Serum or Plasma</td><td>4.8</td><td>3.5 - 5.1</td><td>mmol/L</td></tr><tr><td>Chloride [Moles/volume] in Serum or Plasma</td><td>106.6</td><td>98 - 110</td><td>mmol/L</td></tr><tr><td>Carbon dioxide, total [Moles/volume] in Serum or Plasma</td><td>26.7</td><td>22 - 32</td><td>mmol/L</td></tr><tr><td>Ketones [Presence] in Urine by Test strip</td><td>Urine ketone test = +</td><td></td><td></td></tr><tr><td>Hemoglobin A1c/Hemoglobin.total in Blood</td><td><strong>3.4 L</strong></td><td>4 - 6</td><td>%</td></tr></tbody></table></div>"
                },
                "title": "Chemistry"
              },
              {
                "code": {
                  "coding": [
                    {
                      "code": "$18729-4",
                      "system": "http://loinc.org",
                      "display": "Urinalysis studies (set)"
                    }
                  ],
                  "text": "Urinalysis"
                },
                "entry": [
                  {
                    "reference": "urn:uuid:9edc879a-32a6-4f79-8235-18b119ed427b"
                  },
                  {
                    "reference": "urn:uuid:2c49b164-e16e-4048-b9c2-17bdc73fb572"
                  },
                  {
                    "reference": "urn:uuid:cc54b6d4-b261-4df9-889b-586f1e356a50"
                  },
                  {
                    "reference": "urn:uuid:1ac4a5fc-46da-4a78-9c18-677c7cb37186"
                  },
                  {
                    "reference": "urn:uuid:1c20fd19-ce50-4c4a-a457-894020dbc138"
                  },
                  {
                    "reference": "urn:uuid:f2ec9edf-20da-4013-9863-39d855ba8a21"
                  },
                  {
                    "reference": "urn:uuid:0c6559eb-0b11-416a-901c-64c80cad1a52"
                  },
                  {
                    "reference": "urn:uuid:410a1c16-352a-44b4-b335-a69b168585e3"
                  },
                  {
                    "reference": "urn:uuid:703a8cb2-02a6-468f-99cc-a388529cfd6a"
                  },
                  {
                    "reference": "urn:uuid:5d5aceef-7c7e-4db3-b871-058ceada49e6"
                  },
                  {
                    "reference": "urn:uuid:0d9fa9b2-d0c6-47f1-9c39-ebdeeeb0abb7"
                  },
                  {
                    "reference": "urn:uuid:c7629bbc-5014-44f6-b286-e5ab7f754ede"
                  }
                ],
                "text": {
                  "status": "generated",
                  "div": "<div xmlns=\"http://www.w3.org/1999/xhtml\"><h3>Urinalysis</h3><table class=\"hl7__eu__lab__report\"><thead><tr><th>Test</th><th>23-MAY-2024</th><th>Reference&#xA0;Range</th><th>Unit</th></tr></thead><tbody><tr><td>Glucose [Mass/volume] in Urine by Test strip</td><td><strong>1.6 H</strong></td><td>0 - 0</td><td>mg/dL</td></tr><tr><td>Glucose [Presence] in Urine by Test strip</td><td>++</td><td></td><td></td></tr><tr><td>Bilirubin.total [Mass/volume] in Urine by Test strip</td><td>1.2</td><td>0 - 1.6</td><td>mg/dL</td></tr><tr><td>Bilirubin.total [Presence] in Urine by Test strip</td><td>Finding of bilirubin in urine</td><td></td><td></td></tr><tr><td>Ketones [Mass/volume] in Urine by Test strip</td><td><strong>6.5 H</strong></td><td>0 - 0.5</td><td>mg/dL</td></tr><tr><td>Specific gravity of Urine by Test strip</td><td><strong>1.0 L</strong></td><td>1.005 - 1.03</td><td>{nominal}</td></tr><tr><td>pH of Urine by Test strip</td><td>5.7</td><td>4.5 - 7.5</td><td>pH</td></tr><tr><td>Protein [Mass/volume] in Urine by Test strip</td><td><strong>165.5 H</strong></td><td>0 - 15</td><td>mg/dL</td></tr><tr><td>Protein [Presence] in Urine by Test strip</td><td>Urine protein test = ++</td><td></td><td></td></tr><tr><td>Nitrite [Presence] in Urine by Test strip</td><td>Urine nitrite negative</td><td></td><td></td></tr><tr><td>Hemoglobin [Presence] in Urine by Test strip</td><td>Urine blood test = negative</td><td></td><td></td></tr><tr><td>Leukocyte esterase [Presence] in Urine by Test strip</td><td>Urine leukocyte test negative</td><td></td><td></td></tr></tbody></table></div>"
                },
                "title": "Urinalysis"
              },
              {
                "code": {
                  "coding": [
                    {
                      "code": "$LP7846-1",
                      "system": "http://loinc.org",
                      "display": "Specimen information"
                    }
                  ],
                  "text": "Specimen information"
                },
                "entry": [
                  {
                    "reference": "urn:uuid:61d6748e-9b01-416c-8a81-7b9243f92154"
                  },
                  {
                    "reference": "urn:uuid:7035bda2-7b60-4dc0-982c-c1bd6cc35d14"
                  },
                  {
                    "reference": "urn:uuid:30c80dad-b598-4d7e-a802-3ea59a00c1bf"
                  },
                  {
                    "reference": "urn:uuid:6f9b0959-53be-4354-9ee4-72f65c2d5f4b"
                  }
                ],
                "text": {
                  "status": "generated",
                  "div": "<div xmlns=\"http://www.w3.org/1999/xhtml\"><h3>Specimen information</h3><table class=\"hl7__eu__lab__report\"><thead><tr><th>Test</th><th>23-MAY-2024</th><th>Specimen</th><th></th></tr></thead><tbody><tr><td>Appearance of Urine</td><td>Cloudy urine</td><td>Urine</td><td></td></tr><tr><td>Odor of Urine</td><td>Urine smell ammoniacal</td><td>Urine</td><td></td></tr><tr><td>Clarity of Urine</td><td>Translucent</td><td>Urine</td><td></td></tr><tr><td>Color of Urine</td><td>Brown color</td><td>Urine</td><td></td></tr></tbody></table></div>"
                },
                "title": "Specimen information"
              }
            ],
            "title": "Laboratory Report"
          },
          {
            "text": {
              "status": "generated",
              "div": "<div xmlns=\"http://www.w3.org/1999/xhtml\"><h3>Annotation</h3><table class=\"hl7__eu__lab__report\"><tr><th>Conclusion and Recommendations based on this report and previous findings known to us</th></tr><tr><td>The patient shows elevated serum creatinine, indicating possible renal impairment. Urinalysis reveals proteinuria, glucosuria, and ketonuria, with low specific gravity and abnormal urine appearance, suggesting impaired renal function and possible tubular damage. Blood glucose and HbA1c are not elevated, so diabetes is unlikely. Findings are consistent with non-diabetic renal disease; further nephrological evaluation is recommended. No evidence of urinary tract infection.</td></tr></table></div>"
            },
            "code": {
              "coding": [
                {
                  "system": "http://loinc.org",
                  "code": "48767-8",
                  "display": "Annotation comment"
                }
              ]
            },
            "title": "Annotation comment"
          }
        ],
        "status": "final",
        "subject": {
          "reference": "urn:uuid:67aba85f-ca50-4024-b11f-da435802f4e1",
          "display": "Molly Jenkins"
        },
        "date": "2024-05-23T16:42:11Z",
        "title": "Laboratory Report",
        "confidentiality": "N"
      }
    },
    {
      "fullUrl": "urn:uuid:9c7d8610-48a6-4591-b7e6-0160d6418890",
      "resource": {
        "resourceType": "DiagnosticReport",
        "id": "9c7d8610-48a6-4591-b7e6-0160d6418890",
        "meta": {
          "profile": [
            "http://hl7.eu/fhir/laboratory/StructureDefinition/DiagnosticReport-eu-lab"
          ]
        },
        "identifier": [
          {
            "assigner": {
              "display": "HL7 Europe"
            },
            "system": "urn:oid:2.16.840.1.113883.2.51.999",
            "value": "30d0f6d7-cfe0-4876-bea8-b273f44a5c46"
          }
        ],
        "extension": [
          {
            "url": "http://hl7.org/fhir/5.0/StructureDefinition/extension-DiagnosticReport.composition",
            "valueReference": {
              "reference": "urn:uuid:a6184bac-2b17-46f4-982a-93f26354f633"
            }
          }
        ],
        "category": [
          {
            "coding": [
              {
                "code": "26436-6",
                "system": "http://loinc.org",
                "display": "Laboratory studies (set)"
              }
            ]
          }
        ],
        "specimen": [
          {
            "reference": "urn:uuid:2367e835-db86-46e3-ade1-325d0de55ea2"
          },
          {
            "reference": "urn:uuid:49beaea4-a228-451e-9d8e-40c922a52ff8"
          },
          {
            "reference": "urn:uuid:4c962fca-09e5-4717-913f-c6a287480319"
          }
        ],
        "result": [
          {
            "reference": "urn:uuid:2073ba6b-8164-4d4d-abb9-52c4fb529f9a"
          },
          {
            "reference": "urn:uuid:45533860-730b-46a3-a7c4-a6088b926bee"
          },
          {
            "reference": "urn:uuid:7f4badf2-745d-403e-b97d-9e0982986df9"
          },
          {
            "reference": "urn:uuid:98fcd3ee-bbea-4743-a5b0-d9140ef680a5"
          },
          {
            "reference": "urn:uuid:706fab4f-4c40-48c0-9954-c730739f69aa"
          },
          {
            "reference": "urn:uuid:beed1980-8ce3-45fa-8396-47fca6dabaff"
          },
          {
            "reference": "urn:uuid:bab8ee23-93fe-45e6-bd9a-c9f479d67fdd"
          },
          {
            "reference": "urn:uuid:69a2174f-309b-4eb9-88ac-a36eba2f7062"
          },
          {
            "reference": "urn:uuid:61d6748e-9b01-416c-8a81-7b9243f92154"
          },
          {
            "reference": "urn:uuid:7035bda2-7b60-4dc0-982c-c1bd6cc35d14"
          },
          {
            "reference": "urn:uuid:30c80dad-b598-4d7e-a802-3ea59a00c1bf"
          },
          {
            "reference": "urn:uuid:6f9b0959-53be-4354-9ee4-72f65c2d5f4b"
          },
          {
            "reference": "urn:uuid:9edc879a-32a6-4f79-8235-18b119ed427b"
          },
          {
            "reference": "urn:uuid:2c49b164-e16e-4048-b9c2-17bdc73fb572"
          },
          {
            "reference": "urn:uuid:cc54b6d4-b261-4df9-889b-586f1e356a50"
          },
          {
            "reference": "urn:uuid:1ac4a5fc-46da-4a78-9c18-677c7cb37186"
          },
          {
            "reference": "urn:uuid:1c20fd19-ce50-4c4a-a457-894020dbc138"
          },
          {
            "reference": "urn:uuid:2ee0e61e-d443-4ff8-b7e4-25c06cef8f24"
          },
          {
            "reference": "urn:uuid:f2ec9edf-20da-4013-9863-39d855ba8a21"
          },
          {
            "reference": "urn:uuid:0c6559eb-0b11-416a-901c-64c80cad1a52"
          },
          {
            "reference": "urn:uuid:410a1c16-352a-44b4-b335-a69b168585e3"
          },
          {
            "reference": "urn:uuid:703a8cb2-02a6-468f-99cc-a388529cfd6a"
          },
          {
            "reference": "urn:uuid:5d5aceef-7c7e-4db3-b871-058ceada49e6"
          },
          {
            "reference": "urn:uuid:0d9fa9b2-d0c6-47f1-9c39-ebdeeeb0abb7"
          },
          {
            "reference": "urn:uuid:c7629bbc-5014-44f6-b286-e5ab7f754ede"
          },
          {
            "reference": "urn:uuid:c9ece6f7-1008-4d4d-ab5c-6c54220321c5"
          }
        ],
        "status": "registered",
        "code": {
          "coding": [
            {
              "code": "11502-2",
              "system": "http://loinc.org",
              "display": "Laboratory report"
            }
          ]
        },
        "subject": {
          "reference": "urn:uuid:67aba85f-ca50-4024-b11f-da435802f4e1",
          "display": "Molly Jenkins"
        }
      }
    },
    {
      "fullUrl": "urn:uuid:67aba85f-ca50-4024-b11f-da435802f4e1",
      "resource": {
        "resourceType": "Patient",
        "id": "67aba85f-ca50-4024-b11f-da435802f4e1",
        "meta": {
          "security": [
            {
              "system": "http://terminology.hl7.org/CodeSystem/v3-ActReason",
              "code": "HTEST"
            },
            {
              "system": "http://terminology.hl7.org/CodeSystem/v3-ActReason",
              "code": "TRAIN"
            }
          ],
          "tag": [
            {
              "system": "https://synderai.net/fhir/CodeSystem/tags",
              "code": "synthetic",
              "display": "SYNDERAI Synthetic data"
            }
          ],
          "profile": [
            "http://hl7.eu/fhir/base/StructureDefinition/patient-eu-core"
          ]
        },
        "identifier": [
          {
            "type": {
              "coding": [
                {
                  "code": "PT",
                  "system": "http://terminology.hl7.org/CodeSystem/v2-0203"
                }
              ]
            },
            "system": "http://ec.europa.eu/identifier/eci",
            "value": "7634-012682-0"
          },
          {
            "type": {
              "coding": [
                {
                  "code": "MR",
                  "system": "http://terminology.hl7.org/CodeSystem/v2-0203"
                }
              ]
            },
            "system": "http://local.setting.eu/identifier",
            "value": "9934a8eb-b6e1-34e1-edf5-57a0262d1bea"
          }
        ],
        "name": [
          {
            "family": "Jenkins"
          },
          {
            "given": [
              "Molly"
            ]
          },
          {
            "text": "Molly Jenkins"
          }
        ],
        "address": [
          {
            "line": [
              "98 Ali field"
            ],
            "use": "home",
            "type": "physical",
            "postalCode": "AB42",
            "city": "Port Jennamouth",
            "country": "United Kingdom"
          }
        ],
        "telecom": [
          {
            "system": "phone",
            "value": "(0118) 496 0334"
          }
        ],
        "extension": [
          {
            "url": "http://hl7.org/fhir/StructureDefinition/patient-nationality",
            "valueCodeableConcept": {
              "coding": [
                {
                  "code": "GB",
                  "system": "http://hl7.org/fhir/ValueSet/country"
                }
              ]
            }
          }
        ],
        "text": {
          "status": "generated",
          "div": "<div xmlns=\"http://www.w3.org/1999/xhtml\"><table class=\"hl7__ips\"><tr><td>Molly Jenkins</td><td>female</td><td>14-Aug-1967</td></tr></table></div>"
        },
        "gender": "female",
        "birthDate": "1967-08-14"
      }
    },
    {
      "fullUrl": "urn:uuid:d8471b8e-82ba-45ca-8975-185aa713e923",
      "resource": {
        "resourceType": "ServiceRequest",
        "id": "d8471b8e-82ba-45ca-8975-185aa713e923",
        "meta": {
          "profile": [
            "http://hl7.eu/fhir/laboratory/StructureDefinition/ServiceRequest-eu-lab"
          ]
        },
        "identifier": [
          {
            "system": "http://example.org",
            "value": "eb22b9c3-1e01-46b7-8005-3d08bd3b9e9a"
          }
        ],
        "specimen": [
          {
            "reference": "urn:uuid:2367e835-db86-46e3-ade1-325d0de55ea2"
          },
          {
            "reference": "urn:uuid:49beaea4-a228-451e-9d8e-40c922a52ff8"
          },
          {
            "reference": "urn:uuid:4c962fca-09e5-4717-913f-c6a287480319"
          }
        ],
        "reasonCode": [
          {
            "coding": [
              {
                "code": "431856006",
                "system": "http://snomed.info/sct",
                "display": "Chronic kidney disease stage 2"
              }
            ]
          },
          {
            "coding": [
              {
                "code": "90781000119102",
                "system": "http://snomed.info/sct",
                "display": "Microalbuminuria due to type 2 diabetes mellitus"
              }
            ]
          },
          {
            "coding": [
              {
                "code": "127013003",
                "system": "http://snomed.info/sct",
                "display": "Disorder of kidney due to diabetes mellitus"
              }
            ]
          },
          {
            "coding": [
              {
                "code": "431855005",
                "system": "http://snomed.info/sct",
                "display": "Chronic kidney disease stage 1"
              }
            ]
          },
          {
            "coding": [
              {
                "code": "15777000",
                "system": "http://snomed.info/sct",
                "display": "Prediabetes"
              }
            ]
          },
          {
            "coding": [
              {
                "code": "59621000",
                "system": "http://snomed.info/sct",
                "display": "Essential hypertension"
              }
            ]
          },
          {
            "coding": [
              {
                "code": "53827007",
                "system": "http://snomed.info/sct",
                "display": "Excessive salivation"
              }
            ]
          },
          {
            "coding": [
              {
                "code": "64859006",
                "system": "http://snomed.info/sct",
                "display": "Osteoporosis"
              }
            ]
          },
          {
            "coding": [
              {
                "code": "128188000",
                "system": "http://snomed.info/sct",
                "display": "Cerebral palsy"
              }
            ]
          },
          {
            "coding": [
              {
                "code": "235595009",
                "system": "http://snomed.info/sct",
                "display": "Gastroesophageal reflux disease"
              }
            ]
          }
        ],
        "status": "active",
        "intent": "order",
        "code": {
          "coding": [
            {
              "code": "108252007",
              "system": "http://snomed.info/sct",
              "display": "Laboratory procedure"
            }
          ]
        },
        "subject": {
          "reference": "urn:uuid:67aba85f-ca50-4024-b11f-da435802f4e1",
          "display": "Molly Jenkins"
        },
        "requester": {
          "reference": "urn:uuid:32924df1-b8a9-4f62-b02a-d88f47fb8678"
        }
      }
    },
    {
      "fullUrl": "urn:uuid:32924df1-b8a9-4f62-b02a-d88f47fb8678",
      "resource": {
        "resourceType": "PractitionerRole",
        "id": "32924df1-b8a9-4f62-b02a-d88f47fb8678",
        "meta": {
          "profile": [
            "http://hl7.eu/fhir/base/StructureDefinition/practitionerRole-eu"
          ]
        },
        "text": {
          "status": "generated",
          "div": "<div xmlns=\"http://www.w3.org/1999/xhtml\">Provider Role Id: 32924df1-b8a9-4f62-b02a-d88f47fb8678</div>"
        },
        "organization": {
          "reference": "urn:uuid:5d48d47f-5c27-46d7-890c-d1b6901d3471"
        }
      }
    },
    {
      "fullUrl": "urn:uuid:5d48d47f-5c27-46d7-890c-d1b6901d3471",
      "resource": {
        "resourceType": "Organization",
        "id": "5d48d47f-5c27-46d7-890c-d1b6901d3471",
        "meta": {
          "profile": [
            "http://hl7.eu/fhir/base/StructureDefinition/organization-eu"
          ]
        },
        "identifier": [
          {
            "assigner": {
              "display": "HL7 Europe"
            },
            "system": "urn:oid:2.16.840.1.113883.2.51.999",
            "value": "af4900d8-386e-42e3-844e-062b49bdd572"
          }
        ],
        "address": [
          {
            "city": "Aberdeen",
            "postalCode": "AB11 6",
            "country": "United Kingdom"
          }
        ],
        "text": {
          "status": "generated",
          "div": "<div xmlns=\"http://www.w3.org/1999/xhtml\">Provider Organization: Aberdeen Community Health and Care Village</div>"
        },
        "name": "Aberdeen Community Health and Care Village"
      }
    },
    {
      "fullUrl": "urn:uuid:2367e835-db86-46e3-ade1-325d0de55ea2",
      "resource": {
        "resourceType": "Specimen",
        "id": "2367e835-db86-46e3-ade1-325d0de55ea2",
        "meta": {
          "profile": [
            "http://hl7.eu/fhir/laboratory/StructureDefinition/Specimen-eu-lab"
          ]
        },
        "collection": {
          "collectedDateTime": "2024-05-23"
        },
        "text": {
          "status": "generated",
          "div": "<div xmlns=\"http://www.w3.org/1999/xhtml\"><table class=\"hl7__eu__lab__report\"><tr><th>Specimen</th><th>Collection Date</th></tr><tr><td>Acellular blood (serum or plasma) specimen</td><td><span class=\"nb\">23-May-2024</span></td></tr></table></div>"
        },
        "type": {
          "coding": [
            {
              "code": "122592007",
              "system": "http://snomed.info/sct",
              "display": "Acellular blood (serum or plasma) specimen"
            }
          ]
        }
      }
    },
    {
      "fullUrl": "urn:uuid:49beaea4-a228-451e-9d8e-40c922a52ff8",
      "resource": {
        "resourceType": "Specimen",
        "id": "49beaea4-a228-451e-9d8e-40c922a52ff8",
        "meta": {
          "profile": [
            "http://hl7.eu/fhir/laboratory/StructureDefinition/Specimen-eu-lab"
          ]
        },
        "collection": {
          "collectedDateTime": "2024-05-23"
        },
        "text": {
          "status": "generated",
          "div": "<div xmlns=\"http://www.w3.org/1999/xhtml\"><table class=\"hl7__eu__lab__report\"><tr><th>Specimen</th><th>Collection Date</th></tr><tr><td>Urine specimen</td><td><span class=\"nb\">23-May-2024</span></td></tr></table></div>"
        },
        "type": {
          "coding": [
            {
              "code": "122575003",
              "system": "http://snomed.info/sct",
              "display": "Urine specimen"
            }
          ]
        }
      }
    },
    {
      "fullUrl": "urn:uuid:4c962fca-09e5-4717-913f-c6a287480319",
      "resource": {
        "resourceType": "Specimen",
        "id": "4c962fca-09e5-4717-913f-c6a287480319",
        "meta": {
          "profile": [
            "http://hl7.eu/fhir/laboratory/StructureDefinition/Specimen-eu-lab"
          ]
        },
        "collection": {
          "collectedDateTime": "2024-05-23"
        },
        "text": {
          "status": "generated",
          "div": "<div xmlns=\"http://www.w3.org/1999/xhtml\"><table class=\"hl7__eu__lab__report\"><tr><th>Specimen</th><th>Collection Date</th></tr><tr><td>Whole blood specimen (specimen)</td><td><span class=\"nb\">23-May-2024</span></td></tr></table></div>"
        },
        "type": {
          "coding": [
            {
              "code": "258580003",
              "system": "http://snomed.info/sct",
              "display": "Whole blood specimen (specimen)"
            }
          ]
        }
      }
    },
    {
      "fullUrl": "urn:uuid:2073ba6b-8164-4d4d-abb9-52c4fb529f9a",
      "resource": {
        "resourceType": "Observation",
        "id": "2073ba6b-8164-4d4d-abb9-52c4fb529f9a",
        "meta": {
          "profile": [
            "http://hl7.eu/fhir/laboratory/StructureDefinition/Observation-resultslab-eu-lab"
          ]
        },
        "performer": [
          {
            "display": "The Central European Lab"
          }
        ],
        "category": [
          {
            "coding": [
              {
                "system": "http://terminology.hl7.org/CodeSystem/observation-category",
                "code": "laboratory"
              }
            ]
          }
        ],
        "code": {
          "coding": [
            {
              "code": "2345-7",
              "system": "http://loinc.org",
              "display": "Glucose [Mass/volume] in Serum or Plasma"
            }
          ],
          "text": "Glucose [Mass/volume] in Serum or Plasma"
        },
        "valueQuantity": {
          "system": "http://unitsofmeasure.org",
          "value": 96,
          "unit": "mg/dL",
          "code": "mg/dL"
        },
        "referenceRange": [
          {
            "low": {
              "value": 70,
              "code": "mg/dL",
              "system": "http://unitsofmeasure.org"
            }
          },
          {
            "high": {
              "value": 139,
              "code": "mg/dL",
              "system": "http://unitsofmeasure.org"
            }
          }
        ],
        "text": {
          "status": "generated",
          "div": "<div xmlns=\"http://www.w3.org/1999/xhtml\"><table class=\"hl7__eu__lab__report\"><tr><th>Test</th><th>23-May-2024</th><th>Reference&#xA0;Range</th><th>Unit</th></tr><tr><td>Glucose [Mass/volume] in Serum or Plasma</td><td>96.0</td><td>70 - 139</td><td></td><td>mg/dL</td></tr></table></div>"
        },
        "status": "final",
        "subject": {
          "reference": "urn:uuid:67aba85f-ca50-4024-b11f-da435802f4e1",
          "display": "Molly Jenkins"
        },
        "effectiveDateTime": "2024-05-23T14:42:11Z",
        "specimen": {
          "reference": "urn:uuid:2367e835-db86-46e3-ade1-325d0de55ea2"
        }
      }
    },
    {
      "fullUrl": "urn:uuid:45533860-730b-46a3-a7c4-a6088b926bee",
      "resource": {
        "resourceType": "Observation",
        "id": "45533860-730b-46a3-a7c4-a6088b926bee",
        "meta": {
          "profile": [
            "http://hl7.eu/fhir/laboratory/StructureDefinition/Observation-resultslab-eu-lab"
          ]
        },
        "performer": [
          {
            "display": "The Central European Lab"
          }
        ],
        "category": [
          {
            "coding": [
              {
                "system": "http://terminology.hl7.org/CodeSystem/observation-category",
                "code": "laboratory"
              }
            ]
          }
        ],
        "code": {
          "coding": [
            {
              "code": "3094-0",
              "system": "http://loinc.org",
              "display": "Urea nitrogen [Mass/volume] in Serum or Plasma"
            }
          ],
          "text": "Urea nitrogen [Mass/volume] in Serum or Plasma"
        },
        "valueQuantity": {
          "system": "http://unitsofmeasure.org",
          "value": 18.2,
          "unit": "mg/dL",
          "code": "mg/dL"
        },
        "referenceRange": [
          {
            "low": {
              "value": 7,
              "code": "mg/dL",
              "system": "http://unitsofmeasure.org"
            }
          },
          {
            "high": {
              "value": 20,
              "code": "mg/dL",
              "system": "http://unitsofmeasure.org"
            }
          }
        ],
        "text": {
          "status": "generated",
          "div": "<div xmlns=\"http://www.w3.org/1999/xhtml\"><table class=\"hl7__eu__lab__report\"><tr><th>Test</th><th>23-May-2024</th><th>Reference&#xA0;Range</th><th>Unit</th></tr><tr><td>Urea nitrogen [Mass/volume] in Serum or Plasma</td><td>18.2</td><td>7 - 20</td><td></td><td>mg/dL</td></tr></table></div>"
        },
        "status": "final",
        "subject": {
          "reference": "urn:uuid:67aba85f-ca50-4024-b11f-da435802f4e1",
          "display": "Molly Jenkins"
        },
        "effectiveDateTime": "2024-05-23T14:42:11Z",
        "specimen": {
          "reference": "urn:uuid:2367e835-db86-46e3-ade1-325d0de55ea2"
        }
      }
    },
    {
      "fullUrl": "urn:uuid:7f4badf2-745d-403e-b97d-9e0982986df9",
      "resource": {
        "resourceType": "Observation",
        "id": "7f4badf2-745d-403e-b97d-9e0982986df9",
        "meta": {
          "profile": [
            "http://hl7.eu/fhir/laboratory/StructureDefinition/Observation-resultslab-eu-lab"
          ]
        },
        "performer": [
          {
            "display": "The Central European Lab"
          }
        ],
        "category": [
          {
            "coding": [
              {
                "system": "http://terminology.hl7.org/CodeSystem/observation-category",
                "code": "laboratory"
              }
            ]
          }
        ],
        "code": {
          "coding": [
            {
              "code": "2160-0",
              "system": "http://loinc.org",
              "display": "Creatinine [Mass/volume] in Serum or Plasma"
            }
          ],
          "text": "Creatinine [Mass/volume] in Serum or Plasma"
        },
        "valueQuantity": {
          "system": "http://unitsofmeasure.org",
          "value": 1.9,
          "unit": "mg/dL",
          "code": "mg/dL"
        },
        "referenceRange": [
          {
            "low": {
              "value": 0.6,
              "code": "mg/dL",
              "system": "http://unitsofmeasure.org"
            }
          },
          {
            "high": {
              "value": 1.1,
              "code": "mg/dL",
              "system": "http://unitsofmeasure.org"
            }
          }
        ],
        "interpretation": [
          {
            "coding": [
              {
                "code": "H",
                "system": "http://terminology.hl7.org/CodeSystem/v3-ObservationInterpretation",
                "display": "High"
              }
            ]
          }
        ],
        "text": {
          "status": "generated",
          "div": "<div xmlns=\"http://www.w3.org/1999/xhtml\"><table class=\"hl7__eu__lab__report\"><tr><th>Test</th><th>23-May-2024</th><th>Reference&#xA0;Range</th><th>Unit</th></tr><tr><td>Creatinine [Mass/volume] in Serum or Plasma</td><td>1.9</td><td>0.6 - 1.1</td><td>H</td><td>mg/dL</td></tr></table></div>"
        },
        "status": "final",
        "subject": {
          "reference": "urn:uuid:67aba85f-ca50-4024-b11f-da435802f4e1",
          "display": "Molly Jenkins"
        },
        "effectiveDateTime": "2024-05-23T14:42:11Z",
        "specimen": {
          "reference": "urn:uuid:2367e835-db86-46e3-ade1-325d0de55ea2"
        }
      }
    },
    {
      "fullUrl": "urn:uuid:98fcd3ee-bbea-4743-a5b0-d9140ef680a5",
      "resource": {
        "resourceType": "Observation",
        "id": "98fcd3ee-bbea-4743-a5b0-d9140ef680a5",
        "meta": {
          "profile": [
            "http://hl7.eu/fhir/laboratory/StructureDefinition/Observation-resultslab-eu-lab"
          ]
        },
        "performer": [
          {
            "display": "The Central European Lab"
          }
        ],
        "category": [
          {
            "coding": [
              {
                "system": "http://terminology.hl7.org/CodeSystem/observation-category",
                "code": "laboratory"
              }
            ]
          }
        ],
        "code": {
          "coding": [
            {
              "code": "17861-6",
              "system": "http://loinc.org",
              "display": "Calcium [Mass/volume] in Serum or Plasma"
            }
          ],
          "text": "Calcium [Mass/volume] in Serum or Plasma"
        },
        "valueQuantity": {
          "system": "http://unitsofmeasure.org",
          "value": 9.6,
          "unit": "mg/dL",
          "code": "mg/dL"
        },
        "referenceRange": [
          {
            "low": {
              "value": 8.5,
              "code": "mg/dL",
              "system": "http://unitsofmeasure.org"
            }
          },
          {
            "high": {
              "value": 10.4,
              "code": "mg/dL",
              "system": "http://unitsofmeasure.org"
            }
          }
        ],
        "text": {
          "status": "generated",
          "div": "<div xmlns=\"http://www.w3.org/1999/xhtml\"><table class=\"hl7__eu__lab__report\"><tr><th>Test</th><th>23-May-2024</th><th>Reference&#xA0;Range</th><th>Unit</th></tr><tr><td>Calcium [Mass/volume] in Serum or Plasma</td><td>9.6</td><td>8.5 - 10.4</td><td></td><td>mg/dL</td></tr></table></div>"
        },
        "status": "final",
        "subject": {
          "reference": "urn:uuid:67aba85f-ca50-4024-b11f-da435802f4e1",
          "display": "Molly Jenkins"
        },
        "effectiveDateTime": "2024-05-23T14:42:11Z",
        "specimen": {
          "reference": "urn:uuid:2367e835-db86-46e3-ade1-325d0de55ea2"
        }
      }
    },
    {
      "fullUrl": "urn:uuid:706fab4f-4c40-48c0-9954-c730739f69aa",
      "resource": {
        "resourceType": "Observation",
        "id": "706fab4f-4c40-48c0-9954-c730739f69aa",
        "meta": {
          "profile": [
            "http://hl7.eu/fhir/laboratory/StructureDefinition/Observation-resultslab-eu-lab"
          ]
        },
        "performer": [
          {
            "display": "The Central European Lab"
          }
        ],
        "category": [
          {
            "coding": [
              {
                "system": "http://terminology.hl7.org/CodeSystem/observation-category",
                "code": "laboratory"
              }
            ]
          }
        ],
        "code": {
          "coding": [
            {
              "code": "2951-2",
              "system": "http://loinc.org",
              "display": "Sodium [Moles/volume] in Serum or Plasma"
            }
          ],
          "text": "Sodium [Moles/volume] in Serum or Plasma"
        },
        "valueQuantity": {
          "system": "http://unitsofmeasure.org",
          "value": 136.2,
          "unit": "mmol/L",
          "code": "mmol/L"
        },
        "referenceRange": [
          {
            "low": {
              "value": 135,
              "code": "mmol/L",
              "system": "http://unitsofmeasure.org"
            }
          },
          {
            "high": {
              "value": 145,
              "code": "mmol/L",
              "system": "http://unitsofmeasure.org"
            }
          }
        ],
        "text": {
          "status": "generated",
          "div": "<div xmlns=\"http://www.w3.org/1999/xhtml\"><table class=\"hl7__eu__lab__report\"><tr><th>Test</th><th>23-May-2024</th><th>Reference&#xA0;Range</th><th>Unit</th></tr><tr><td>Sodium [Moles/volume] in Serum or Plasma</td><td>136.2</td><td>135 - 145</td><td></td><td>mmol/L</td></tr></table></div>"
        },
        "status": "final",
        "subject": {
          "reference": "urn:uuid:67aba85f-ca50-4024-b11f-da435802f4e1",
          "display": "Molly Jenkins"
        },
        "effectiveDateTime": "2024-05-23T14:42:11Z",
        "specimen": {
          "reference": "urn:uuid:2367e835-db86-46e3-ade1-325d0de55ea2"
        }
      }
    },
    {
      "fullUrl": "urn:uuid:beed1980-8ce3-45fa-8396-47fca6dabaff",
      "resource": {
        "resourceType": "Observation",
        "id": "beed1980-8ce3-45fa-8396-47fca6dabaff",
        "meta": {
          "profile": [
            "http://hl7.eu/fhir/laboratory/StructureDefinition/Observation-resultslab-eu-lab"
          ]
        },
        "performer": [
          {
            "display": "The Central European Lab"
          }
        ],
        "category": [
          {
            "coding": [
              {
                "system": "http://terminology.hl7.org/CodeSystem/observation-category",
                "code": "laboratory"
              }
            ]
          }
        ],
        "code": {
          "coding": [
            {
              "code": "2823-3",
              "system": "http://loinc.org",
              "display": "Potassium [Moles/volume] in Serum or Plasma"
            }
          ],
          "text": "Potassium [Moles/volume] in Serum or Plasma"
        },
        "valueQuantity": {
          "system": "http://unitsofmeasure.org",
          "value": 4.8,
          "unit": "mmol/L",
          "code": "mmol/L"
        },
        "referenceRange": [
          {
            "low": {
              "value": 3.5,
              "code": "mmol/L",
              "system": "http://unitsofmeasure.org"
            }
          },
          {
            "high": {
              "value": 5.1,
              "code": "mmol/L",
              "system": "http://unitsofmeasure.org"
            }
          }
        ],
        "text": {
          "status": "generated",
          "div": "<div xmlns=\"http://www.w3.org/1999/xhtml\"><table class=\"hl7__eu__lab__report\"><tr><th>Test</th><th>23-May-2024</th><th>Reference&#xA0;Range</th><th>Unit</th></tr><tr><td>Potassium [Moles/volume] in Serum or Plasma</td><td>4.8</td><td>3.5 - 5.1</td><td></td><td>mmol/L</td></tr></table></div>"
        },
        "status": "final",
        "subject": {
          "reference": "urn:uuid:67aba85f-ca50-4024-b11f-da435802f4e1",
          "display": "Molly Jenkins"
        },
        "effectiveDateTime": "2024-05-23T14:42:11Z",
        "specimen": {
          "reference": "urn:uuid:2367e835-db86-46e3-ade1-325d0de55ea2"
        }
      }
    },
    {
      "fullUrl": "urn:uuid:bab8ee23-93fe-45e6-bd9a-c9f479d67fdd",
      "resource": {
        "resourceType": "Observation",
        "id": "bab8ee23-93fe-45e6-bd9a-c9f479d67fdd",
        "meta": {
          "profile": [
            "http://hl7.eu/fhir/laboratory/StructureDefinition/Observation-resultslab-eu-lab"
          ]
        },
        "performer": [
          {
            "display": "The Central European Lab"
          }
        ],
        "category": [
          {
            "coding": [
              {
                "system": "http://terminology.hl7.org/CodeSystem/observation-category",
                "code": "laboratory"
              }
            ]
          }
        ],
        "code": {
          "coding": [
            {
              "code": "2075-0",
              "system": "http://loinc.org",
              "display": "Chloride [Moles/volume] in Serum or Plasma"
            }
          ],
          "text": "Chloride [Moles/volume] in Serum or Plasma"
        },
        "valueQuantity": {
          "system": "http://unitsofmeasure.org",
          "value": 106.6,
          "unit": "mmol/L",
          "code": "mmol/L"
        },
        "referenceRange": [
          {
            "low": {
              "value": 98,
              "code": "mmol/L",
              "system": "http://unitsofmeasure.org"
            }
          },
          {
            "high": {
              "value": 110,
              "code": "mmol/L",
              "system": "http://unitsofmeasure.org"
            }
          }
        ],
        "text": {
          "status": "generated",
          "div": "<div xmlns=\"http://www.w3.org/1999/xhtml\"><table class=\"hl7__eu__lab__report\"><tr><th>Test</th><th>23-May-2024</th><th>Reference&#xA0;Range</th><th>Unit</th></tr><tr><td>Chloride [Moles/volume] in Serum or Plasma</td><td>106.6</td><td>98 - 110</td><td></td><td>mmol/L</td></tr></table></div>"
        },
        "status": "final",
        "subject": {
          "reference": "urn:uuid:67aba85f-ca50-4024-b11f-da435802f4e1",
          "display": "Molly Jenkins"
        },
        "effectiveDateTime": "2024-05-23T14:42:11Z",
        "specimen": {
          "reference": "urn:uuid:2367e835-db86-46e3-ade1-325d0de55ea2"
        }
      }
    },
    {
      "fullUrl": "urn:uuid:69a2174f-309b-4eb9-88ac-a36eba2f7062",
      "resource": {
        "resourceType": "Observation",
        "id": "69a2174f-309b-4eb9-88ac-a36eba2f7062",
        "meta": {
          "profile": [
            "http://hl7.eu/fhir/laboratory/StructureDefinition/Observation-resultslab-eu-lab"
          ]
        },
        "performer": [
          {
            "display": "The Central European Lab"
          }
        ],
        "category": [
          {
            "coding": [
              {
                "system": "http://terminology.hl7.org/CodeSystem/observation-category",
                "code": "laboratory"
              }
            ]
          }
        ],
        "code": {
          "coding": [
            {
              "code": "2028-9",
              "system": "http://loinc.org",
              "display": "Carbon dioxide, total [Moles/volume] in Serum or Plasma"
            }
          ],
          "text": "Carbon dioxide, total [Moles/volume] in Serum or Plasma"
        },
        "valueQuantity": {
          "system": "http://unitsofmeasure.org",
          "value": 26.7,
          "unit": "mmol/L",
          "code": "mmol/L"
        },
        "referenceRange": [
          {
            "low": {
              "value": 22,
              "code": "mmol/L",
              "system": "http://unitsofmeasure.org"
            }
          },
          {
            "high": {
              "value": 32,
              "code": "mmol/L",
              "system": "http://unitsofmeasure.org"
            }
          }
        ],
        "text": {
          "status": "generated",
          "div": "<div xmlns=\"http://www.w3.org/1999/xhtml\"><table class=\"hl7__eu__lab__report\"><tr><th>Test</th><th>23-May-2024</th><th>Reference&#xA0;Range</th><th>Unit</th></tr><tr><td>Carbon dioxide, total [Moles/volume] in Serum or Plasma</td><td>26.7</td><td>22 - 32</td><td></td><td>mmol/L</td></tr></table></div>"
        },
        "status": "final",
        "subject": {
          "reference": "urn:uuid:67aba85f-ca50-4024-b11f-da435802f4e1",
          "display": "Molly Jenkins"
        },
        "effectiveDateTime": "2024-05-23T14:42:11Z",
        "specimen": {
          "reference": "urn:uuid:2367e835-db86-46e3-ade1-325d0de55ea2"
        }
      }
    },
    {
      "fullUrl": "urn:uuid:61d6748e-9b01-416c-8a81-7b9243f92154",
      "resource": {
        "resourceType": "Observation",
        "id": "61d6748e-9b01-416c-8a81-7b9243f92154",
        "meta": {
          "profile": [
            "http://hl7.eu/fhir/laboratory/StructureDefinition/Observation-resultslab-eu-lab"
          ]
        },
        "performer": [
          {
            "display": "The Central European Lab"
          }
        ],
        "category": [
          {
            "coding": [
              {
                "system": "http://terminology.hl7.org/CodeSystem/observation-category",
                "code": "laboratory"
              }
            ]
          }
        ],
        "code": {
          "coding": [
            {
              "code": "5767-9",
              "system": "http://loinc.org",
              "display": "Appearance of Urine"
            }
          ],
          "text": "Appearance of Urine"
        },
        "text": {
          "status": "generated",
          "div": "<div xmlns=\"http://www.w3.org/1999/xhtml\"><table class=\"hl7__eu__lab__report\"><tr><th>Test</th><th>23-May-2024</th><th>Reference&#xA0;Range</th><th>Unit</th></tr><tr><td>Appearance of Urine</td></tr></table></div>"
        },
        "status": "final",
        "subject": {
          "reference": "urn:uuid:67aba85f-ca50-4024-b11f-da435802f4e1",
          "display": "Molly Jenkins"
        },
        "effectiveDateTime": "2024-05-23T14:42:11Z",
        "specimen": {
          "reference": "urn:uuid:49beaea4-a228-451e-9d8e-40c922a52ff8"
        }
      }
    },
    {
      "fullUrl": "urn:uuid:7035bda2-7b60-4dc0-982c-c1bd6cc35d14",
      "resource": {
        "resourceType": "Observation",
        "id": "7035bda2-7b60-4dc0-982c-c1bd6cc35d14",
        "meta": {
          "profile": [
            "http://hl7.eu/fhir/laboratory/StructureDefinition/Observation-resultslab-eu-lab"
          ]
        },
        "performer": [
          {
            "display": "The Central European Lab"
          }
        ],
        "category": [
          {
            "coding": [
              {
                "system": "http://terminology.hl7.org/CodeSystem/observation-category",
                "code": "laboratory"
              }
            ]
          }
        ],
        "code": {
          "coding": [
            {
              "code": "34533-0",
              "system": "http://loinc.org",
              "display": "Odor of Urine"
            }
          ],
          "text": "Odor of Urine"
        },
        "text": {
          "status": "generated",
          "div": "<div xmlns=\"http://www.w3.org/1999/xhtml\"><table class=\"hl7__eu__lab__report\"><tr><th>Test</th><th>23-May-2024</th><th>Reference&#xA0;Range</th><th>Unit</th></tr><tr><td>Odor of Urine</td></tr></table></div>"
        },
        "status": "final",
        "subject": {
          "reference": "urn:uuid:67aba85f-ca50-4024-b11f-da435802f4e1",
          "display": "Molly Jenkins"
        },
        "effectiveDateTime": "2024-05-23T14:42:11Z",
        "specimen": {
          "reference": "urn:uuid:49beaea4-a228-451e-9d8e-40c922a52ff8"
        }
      }
    },
    {
      "fullUrl": "urn:uuid:30c80dad-b598-4d7e-a802-3ea59a00c1bf",
      "resource": {
        "resourceType": "Observation",
        "id": "30c80dad-b598-4d7e-a802-3ea59a00c1bf",
        "meta": {
          "profile": [
            "http://hl7.eu/fhir/laboratory/StructureDefinition/Observation-resultslab-eu-lab"
          ]
        },
        "performer": [
          {
            "display": "The Central European Lab"
          }
        ],
        "category": [
          {
            "coding": [
              {
                "system": "http://terminology.hl7.org/CodeSystem/observation-category",
                "code": "laboratory"
              }
            ]
          }
        ],
        "code": {
          "coding": [
            {
              "code": "32167-9",
              "system": "http://loinc.org",
              "display": "Clarity of Urine"
            }
          ],
          "text": "Clarity of Urine"
        },
        "text": {
          "status": "generated",
          "div": "<div xmlns=\"http://www.w3.org/1999/xhtml\"><table class=\"hl7__eu__lab__report\"><tr><th>Test</th><th>23-May-2024</th><th>Reference&#xA0;Range</th><th>Unit</th></tr><tr><td>Clarity of Urine</td></tr></table></div>"
        },
        "status": "final",
        "subject": {
          "reference": "urn:uuid:67aba85f-ca50-4024-b11f-da435802f4e1",
          "display": "Molly Jenkins"
        },
        "effectiveDateTime": "2024-05-23T14:42:11Z",
        "specimen": {
          "reference": "urn:uuid:49beaea4-a228-451e-9d8e-40c922a52ff8"
        }
      }
    },
    {
      "fullUrl": "urn:uuid:6f9b0959-53be-4354-9ee4-72f65c2d5f4b",
      "resource": {
        "resourceType": "Observation",
        "id": "6f9b0959-53be-4354-9ee4-72f65c2d5f4b",
        "meta": {
          "profile": [
            "http://hl7.eu/fhir/laboratory/StructureDefinition/Observation-resultslab-eu-lab"
          ]
        },
        "performer": [
          {
            "display": "The Central European Lab"
          }
        ],
        "category": [
          {
            "coding": [
              {
                "system": "http://terminology.hl7.org/CodeSystem/observation-category",
                "code": "laboratory"
              }
            ]
          }
        ],
        "code": {
          "coding": [
            {
              "code": "5778-6",
              "system": "http://loinc.org",
              "display": "Color of Urine"
            }
          ],
          "text": "Color of Urine"
        },
        "text": {
          "status": "generated",
          "div": "<div xmlns=\"http://www.w3.org/1999/xhtml\"><table class=\"hl7__eu__lab__report\"><tr><th>Test</th><th>23-May-2024</th><th>Reference&#xA0;Range</th><th>Unit</th></tr><tr><td>Color of Urine</td></tr></table></div>"
        },
        "status": "final",
        "subject": {
          "reference": "urn:uuid:67aba85f-ca50-4024-b11f-da435802f4e1",
          "display": "Molly Jenkins"
        },
        "effectiveDateTime": "2024-05-23T14:42:11Z",
        "specimen": {
          "reference": "urn:uuid:49beaea4-a228-451e-9d8e-40c922a52ff8"
        }
      }
    },
    {
      "fullUrl": "urn:uuid:9edc879a-32a6-4f79-8235-18b119ed427b",
      "resource": {
        "resourceType": "Observation",
        "id": "9edc879a-32a6-4f79-8235-18b119ed427b",
        "meta": {
          "profile": [
            "http://hl7.eu/fhir/laboratory/StructureDefinition/Observation-resultslab-eu-lab"
          ]
        },
        "performer": [
          {
            "display": "The Central European Lab"
          }
        ],
        "category": [
          {
            "coding": [
              {
                "system": "http://terminology.hl7.org/CodeSystem/observation-category",
                "code": "laboratory"
              }
            ]
          }
        ],
        "code": {
          "coding": [
            {
              "code": "5792-7",
              "system": "http://loinc.org",
              "display": "Glucose [Mass/volume] in Urine by Test strip"
            }
          ],
          "text": "Glucose [Mass/volume] in Urine by Test strip"
        },
        "valueQuantity": {
          "system": "http://unitsofmeasure.org",
          "value": 1.6,
          "unit": "mg/dL",
          "code": "mg/dL"
        },
        "referenceRange": [
          {
            "low": {
              "value": 0,
              "code": "mg/dL",
              "system": "http://unitsofmeasure.org"
            }
          },
          {
            "high": {
              "value": 0,
              "code": "mg/dL",
              "system": "http://unitsofmeasure.org"
            }
          }
        ],
        "interpretation": [
          {
            "coding": [
              {
                "code": "H",
                "system": "http://terminology.hl7.org/CodeSystem/v3-ObservationInterpretation",
                "display": "High"
              }
            ]
          }
        ],
        "text": {
          "status": "generated",
          "div": "<div xmlns=\"http://www.w3.org/1999/xhtml\"><table class=\"hl7__eu__lab__report\"><tr><th>Test</th><th>23-May-2024</th><th>Reference&#xA0;Range</th><th>Unit</th></tr><tr><td>Glucose [Mass/volume] in Urine by Test strip</td><td>1.6</td><td>0 - 0</td><td>H</td><td>mg/dL</td></tr></table></div>"
        },
        "status": "final",
        "subject": {
          "reference": "urn:uuid:67aba85f-ca50-4024-b11f-da435802f4e1",
          "display": "Molly Jenkins"
        },
        "effectiveDateTime": "2024-05-23T14:42:11Z",
        "specimen": {
          "reference": "urn:uuid:49beaea4-a228-451e-9d8e-40c922a52ff8"
        }
      }
    },
    {
      "fullUrl": "urn:uuid:2c49b164-e16e-4048-b9c2-17bdc73fb572",
      "resource": {
        "resourceType": "Observation",
        "id": "2c49b164-e16e-4048-b9c2-17bdc73fb572",
        "meta": {
          "profile": [
            "http://hl7.eu/fhir/laboratory/StructureDefinition/Observation-resultslab-eu-lab"
          ]
        },
        "performer": [
          {
            "display": "The Central European Lab"
          }
        ],
        "category": [
          {
            "coding": [
              {
                "system": "http://terminology.hl7.org/CodeSystem/observation-category",
                "code": "laboratory"
              }
            ]
          }
        ],
        "code": {
          "coding": [
            {
              "code": "25428-4",
              "system": "http://loinc.org",
              "display": "Glucose [Presence] in Urine by Test strip"
            }
          ],
          "text": "Glucose [Presence] in Urine by Test strip"
        },
        "text": {
          "status": "generated",
          "div": "<div xmlns=\"http://www.w3.org/1999/xhtml\"><table class=\"hl7__eu__lab__report\"><tr><th>Test</th><th>23-May-2024</th><th>Reference&#xA0;Range</th><th>Unit</th></tr><tr><td>Glucose [Presence] in Urine by Test strip</td></tr></table></div>"
        },
        "status": "final",
        "subject": {
          "reference": "urn:uuid:67aba85f-ca50-4024-b11f-da435802f4e1",
          "display": "Molly Jenkins"
        },
        "effectiveDateTime": "2024-05-23T14:42:11Z",
        "specimen": {
          "reference": "urn:uuid:49beaea4-a228-451e-9d8e-40c922a52ff8"
        }
      }
    },
    {
      "fullUrl": "urn:uuid:cc54b6d4-b261-4df9-889b-586f1e356a50",
      "resource": {
        "resourceType": "Observation",
        "id": "cc54b6d4-b261-4df9-889b-586f1e356a50",
        "meta": {
          "profile": [
            "http://hl7.eu/fhir/laboratory/StructureDefinition/Observation-resultslab-eu-lab"
          ]
        },
        "performer": [
          {
            "display": "The Central European Lab"
          }
        ],
        "category": [
          {
            "coding": [
              {
                "system": "http://terminology.hl7.org/CodeSystem/observation-category",
                "code": "laboratory"
              }
            ]
          }
        ],
        "code": {
          "coding": [
            {
              "code": "20505-4",
              "system": "http://loinc.org",
              "display": "Bilirubin.total [Mass/volume] in Urine by Test strip"
            }
          ],
          "text": "Bilirubin.total [Mass/volume] in Urine by Test strip"
        },
        "valueQuantity": {
          "system": "http://unitsofmeasure.org",
          "value": 1.2,
          "unit": "mg/dL",
          "code": "mg/dL"
        },
        "referenceRange": [
          {
            "low": {
              "value": 0,
              "code": "mg/dL",
              "system": "http://unitsofmeasure.org"
            }
          },
          {
            "high": {
              "value": 1.6,
              "code": "mg/dL",
              "system": "http://unitsofmeasure.org"
            }
          }
        ],
        "text": {
          "status": "generated",
          "div": "<div xmlns=\"http://www.w3.org/1999/xhtml\"><table class=\"hl7__eu__lab__report\"><tr><th>Test</th><th>23-May-2024</th><th>Reference&#xA0;Range</th><th>Unit</th></tr><tr><td>Bilirubin.total [Mass/volume] in Urine by Test strip</td><td>1.2</td><td>0 - 1.6</td><td></td><td>mg/dL</td></tr></table></div>"
        },
        "status": "final",
        "subject": {
          "reference": "urn:uuid:67aba85f-ca50-4024-b11f-da435802f4e1",
          "display": "Molly Jenkins"
        },
        "effectiveDateTime": "2024-05-23T14:42:11Z",
        "specimen": {
          "reference": "urn:uuid:49beaea4-a228-451e-9d8e-40c922a52ff8"
        }
      }
    },
    {
      "fullUrl": "urn:uuid:1ac4a5fc-46da-4a78-9c18-677c7cb37186",
      "resource": {
        "resourceType": "Observation",
        "id": "1ac4a5fc-46da-4a78-9c18-677c7cb37186",
        "meta": {
          "profile": [
            "http://hl7.eu/fhir/laboratory/StructureDefinition/Observation-resultslab-eu-lab"
          ]
        },
        "performer": [
          {
            "display": "The Central European Lab"
          }
        ],
        "category": [
          {
            "coding": [
              {
                "system": "http://terminology.hl7.org/CodeSystem/observation-category",
                "code": "laboratory"
              }
            ]
          }
        ],
        "code": {
          "coding": [
            {
              "code": "5770-3",
              "system": "http://loinc.org",
              "display": "Bilirubin.total [Presence] in Urine by Test strip"
            }
          ],
          "text": "Bilirubin.total [Presence] in Urine by Test strip"
        },
        "text": {
          "status": "generated",
          "div": "<div xmlns=\"http://www.w3.org/1999/xhtml\"><table class=\"hl7__eu__lab__report\"><tr><th>Test</th><th>23-May-2024</th><th>Reference&#xA0;Range</th><th>Unit</th></tr><tr><td>Bilirubin.total [Presence] in Urine by Test strip</td></tr></table></div>"
        },
        "status": "final",
        "subject": {
          "reference": "urn:uuid:67aba85f-ca50-4024-b11f-da435802f4e1",
          "display": "Molly Jenkins"
        },
        "effectiveDateTime": "2024-05-23T14:42:11Z",
        "specimen": {
          "reference": "urn:uuid:49beaea4-a228-451e-9d8e-40c922a52ff8"
        }
      }
    },
    {
      "fullUrl": "urn:uuid:1c20fd19-ce50-4c4a-a457-894020dbc138",
      "resource": {
        "resourceType": "Observation",
        "id": "1c20fd19-ce50-4c4a-a457-894020dbc138",
        "meta": {
          "profile": [
            "http://hl7.eu/fhir/laboratory/StructureDefinition/Observation-resultslab-eu-lab"
          ]
        },
        "performer": [
          {
            "display": "The Central European Lab"
          }
        ],
        "category": [
          {
            "coding": [
              {
                "system": "http://terminology.hl7.org/CodeSystem/observation-category",
                "code": "laboratory"
              }
            ]
          }
        ],
        "code": {
          "coding": [
            {
              "code": "5797-6",
              "system": "http://loinc.org",
              "display": "Ketones [Mass/volume] in Urine by Test strip"
            }
          ],
          "text": "Ketones [Mass/volume] in Urine by Test strip"
        },
        "valueQuantity": {
          "system": "http://unitsofmeasure.org",
          "value": 6.5,
          "unit": "mg/dL",
          "code": "mg/dL"
        },
        "referenceRange": [
          {
            "low": {
              "value": 0,
              "code": "mg/dL",
              "system": "http://unitsofmeasure.org"
            }
          },
          {
            "high": {
              "value": 0.5,
              "code": "mg/dL",
              "system": "http://unitsofmeasure.org"
            }
          }
        ],
        "interpretation": [
          {
            "coding": [
              {
                "code": "H",
                "system": "http://terminology.hl7.org/CodeSystem/v3-ObservationInterpretation",
                "display": "High"
              }
            ]
          }
        ],
        "text": {
          "status": "generated",
          "div": "<div xmlns=\"http://www.w3.org/1999/xhtml\"><table class=\"hl7__eu__lab__report\"><tr><th>Test</th><th>23-May-2024</th><th>Reference&#xA0;Range</th><th>Unit</th></tr><tr><td>Ketones [Mass/volume] in Urine by Test strip</td><td>6.5</td><td>0 - 0.5</td><td>H</td><td>mg/dL</td></tr></table></div>"
        },
        "status": "final",
        "subject": {
          "reference": "urn:uuid:67aba85f-ca50-4024-b11f-da435802f4e1",
          "display": "Molly Jenkins"
        },
        "effectiveDateTime": "2024-05-23T14:42:11Z",
        "specimen": {
          "reference": "urn:uuid:49beaea4-a228-451e-9d8e-40c922a52ff8"
        }
      }
    },
    {
      "fullUrl": "urn:uuid:2ee0e61e-d443-4ff8-b7e4-25c06cef8f24",
      "resource": {
        "resourceType": "Observation",
        "id": "2ee0e61e-d443-4ff8-b7e4-25c06cef8f24",
        "meta": {
          "profile": [
            "http://hl7.eu/fhir/laboratory/StructureDefinition/Observation-resultslab-eu-lab"
          ]
        },
        "performer": [
          {
            "display": "The Central European Lab"
          }
        ],
        "category": [
          {
            "coding": [
              {
                "system": "http://terminology.hl7.org/CodeSystem/observation-category",
                "code": "laboratory"
              }
            ]
          }
        ],
        "code": {
          "coding": [
            {
              "code": "2514-8",
              "system": "http://loinc.org",
              "display": "Ketones [Presence] in Urine by Test strip"
            }
          ],
          "text": "Ketones [Presence] in Urine by Test strip"
        },
        "text": {
          "status": "generated",
          "div": "<div xmlns=\"http://www.w3.org/1999/xhtml\"><table class=\"hl7__eu__lab__report\"><tr><th>Test</th><th>23-May-2024</th><th>Reference&#xA0;Range</th><th>Unit</th></tr><tr><td>Ketones [Presence] in Urine by Test strip</td></tr></table></div>"
        },
        "status": "final",
        "subject": {
          "reference": "urn:uuid:67aba85f-ca50-4024-b11f-da435802f4e1",
          "display": "Molly Jenkins"
        },
        "effectiveDateTime": "2024-05-23T14:42:11Z",
        "specimen": {
          "reference": "urn:uuid:49beaea4-a228-451e-9d8e-40c922a52ff8"
        }
      }
    },
    {
      "fullUrl": "urn:uuid:f2ec9edf-20da-4013-9863-39d855ba8a21",
      "resource": {
        "resourceType": "Observation",
        "id": "f2ec9edf-20da-4013-9863-39d855ba8a21",
        "meta": {
          "profile": [
            "http://hl7.eu/fhir/laboratory/StructureDefinition/Observation-resultslab-eu-lab"
          ]
        },
        "performer": [
          {
            "display": "The Central European Lab"
          }
        ],
        "category": [
          {
            "coding": [
              {
                "system": "http://terminology.hl7.org/CodeSystem/observation-category",
                "code": "laboratory"
              }
            ]
          }
        ],
        "code": {
          "coding": [
            {
              "code": "5811-5",
              "system": "http://loinc.org",
              "display": "Specific gravity of Urine by Test strip"
            }
          ],
          "text": "Specific gravity of Urine by Test strip"
        },
        "valueQuantity": {
          "system": "http://unitsofmeasure.org",
          "value": 1,
          "unit": "{nominal}",
          "code": "{nominal}"
        },
        "referenceRange": [
          {
            "low": {
              "value": 1.005,
              "code": "g/mL",
              "system": "http://unitsofmeasure.org"
            }
          },
          {
            "high": {
              "value": 1.03,
              "code": "g/mL",
              "system": "http://unitsofmeasure.org"
            }
          }
        ],
        "interpretation": [
          {
            "coding": [
              {
                "code": "L",
                "system": "http://terminology.hl7.org/CodeSystem/v3-ObservationInterpretation",
                "display": "Low"
              }
            ]
          }
        ],
        "text": {
          "status": "generated",
          "div": "<div xmlns=\"http://www.w3.org/1999/xhtml\"><table class=\"hl7__eu__lab__report\"><tr><th>Test</th><th>23-May-2024</th><th>Reference&#xA0;Range</th><th>Unit</th></tr><tr><td>Specific gravity of Urine by Test strip</td><td>1.0</td><td>1.005 - 1.03</td><td>L</td><td>{nominal}</td></tr></table></div>"
        },
        "status": "final",
        "subject": {
          "reference": "urn:uuid:67aba85f-ca50-4024-b11f-da435802f4e1",
          "display": "Molly Jenkins"
        },
        "effectiveDateTime": "2024-05-23T14:42:11Z",
        "specimen": {
          "reference": "urn:uuid:49beaea4-a228-451e-9d8e-40c922a52ff8"
        }
      }
    },
    {
      "fullUrl": "urn:uuid:0c6559eb-0b11-416a-901c-64c80cad1a52",
      "resource": {
        "resourceType": "Observation",
        "id": "0c6559eb-0b11-416a-901c-64c80cad1a52",
        "meta": {
          "profile": [
            "http://hl7.eu/fhir/laboratory/StructureDefinition/Observation-resultslab-eu-lab"
          ]
        },
        "performer": [
          {
            "display": "The Central European Lab"
          }
        ],
        "category": [
          {
            "coding": [
              {
                "system": "http://terminology.hl7.org/CodeSystem/observation-category",
                "code": "laboratory"
              }
            ]
          }
        ],
        "code": {
          "coding": [
            {
              "code": "5803-2",
              "system": "http://loinc.org",
              "display": "pH of Urine by Test strip"
            }
          ],
          "text": "pH of Urine by Test strip"
        },
        "valueQuantity": {
          "system": "http://unitsofmeasure.org",
          "value": 5.7,
          "unit": "pH",
          "code": "pH"
        },
        "referenceRange": [
          {
            "low": {
              "value": 4.5,
              "code": "pH",
              "system": "http://unitsofmeasure.org"
            }
          },
          {
            "high": {
              "value": 7.5,
              "code": "pH",
              "system": "http://unitsofmeasure.org"
            }
          }
        ],
        "text": {
          "status": "generated",
          "div": "<div xmlns=\"http://www.w3.org/1999/xhtml\"><table class=\"hl7__eu__lab__report\"><tr><th>Test</th><th>23-May-2024</th><th>Reference&#xA0;Range</th><th>Unit</th></tr><tr><td>pH of Urine by Test strip</td><td>5.7</td><td>4.5 - 7.5</td><td></td><td>pH</td></tr></table></div>"
        },
        "status": "final",
        "subject": {
          "reference": "urn:uuid:67aba85f-ca50-4024-b11f-da435802f4e1",
          "display": "Molly Jenkins"
        },
        "effectiveDateTime": "2024-05-23T14:42:11Z",
        "specimen": {
          "reference": "urn:uuid:49beaea4-a228-451e-9d8e-40c922a52ff8"
        }
      }
    },
    {
      "fullUrl": "urn:uuid:410a1c16-352a-44b4-b335-a69b168585e3",
      "resource": {
        "resourceType": "Observation",
        "id": "410a1c16-352a-44b4-b335-a69b168585e3",
        "meta": {
          "profile": [
            "http://hl7.eu/fhir/laboratory/StructureDefinition/Observation-resultslab-eu-lab"
          ]
        },
        "performer": [
          {
            "display": "The Central European Lab"
          }
        ],
        "category": [
          {
            "coding": [
              {
                "system": "http://terminology.hl7.org/CodeSystem/observation-category",
                "code": "laboratory"
              }
            ]
          }
        ],
        "code": {
          "coding": [
            {
              "code": "5804-0",
              "system": "http://loinc.org",
              "display": "Protein [Mass/volume] in Urine by Test strip"
            }
          ],
          "text": "Protein [Mass/volume] in Urine by Test strip"
        },
        "valueQuantity": {
          "system": "http://unitsofmeasure.org",
          "value": 165.5,
          "unit": "mg/dL",
          "code": "mg/dL"
        },
        "referenceRange": [
          {
            "low": {
              "value": 0,
              "code": "mg/dL",
              "system": "http://unitsofmeasure.org"
            }
          },
          {
            "high": {
              "value": 15,
              "code": "mg/dL",
              "system": "http://unitsofmeasure.org"
            }
          }
        ],
        "interpretation": [
          {
            "coding": [
              {
                "code": "H",
                "system": "http://terminology.hl7.org/CodeSystem/v3-ObservationInterpretation",
                "display": "High"
              }
            ]
          }
        ],
        "text": {
          "status": "generated",
          "div": "<div xmlns=\"http://www.w3.org/1999/xhtml\"><table class=\"hl7__eu__lab__report\"><tr><th>Test</th><th>23-May-2024</th><th>Reference&#xA0;Range</th><th>Unit</th></tr><tr><td>Protein [Mass/volume] in Urine by Test strip</td><td>165.5</td><td>0 - 15</td><td>H</td><td>mg/dL</td></tr></table></div>"
        },
        "status": "final",
        "subject": {
          "reference": "urn:uuid:67aba85f-ca50-4024-b11f-da435802f4e1",
          "display": "Molly Jenkins"
        },
        "effectiveDateTime": "2024-05-23T14:42:11Z",
        "specimen": {
          "reference": "urn:uuid:49beaea4-a228-451e-9d8e-40c922a52ff8"
        }
      }
    },
    {
      "fullUrl": "urn:uuid:703a8cb2-02a6-468f-99cc-a388529cfd6a",
      "resource": {
        "resourceType": "Observation",
        "id": "703a8cb2-02a6-468f-99cc-a388529cfd6a",
        "meta": {
          "profile": [
            "http://hl7.eu/fhir/laboratory/StructureDefinition/Observation-resultslab-eu-lab"
          ]
        },
        "performer": [
          {
            "display": "The Central European Lab"
          }
        ],
        "category": [
          {
            "coding": [
              {
                "system": "http://terminology.hl7.org/CodeSystem/observation-category",
                "code": "laboratory"
              }
            ]
          }
        ],
        "code": {
          "coding": [
            {
              "code": "20454-5",
              "system": "http://loinc.org",
              "display": "Protein [Presence] in Urine by Test strip"
            }
          ],
          "text": "Protein [Presence] in Urine by Test strip"
        },
        "text": {
          "status": "generated",
          "div": "<div xmlns=\"http://www.w3.org/1999/xhtml\"><table class=\"hl7__eu__lab__report\"><tr><th>Test</th><th>23-May-2024</th><th>Reference&#xA0;Range</th><th>Unit</th></tr><tr><td>Protein [Presence] in Urine by Test strip</td></tr></table></div>"
        },
        "status": "final",
        "subject": {
          "reference": "urn:uuid:67aba85f-ca50-4024-b11f-da435802f4e1",
          "display": "Molly Jenkins"
        },
        "effectiveDateTime": "2024-05-23T14:42:11Z",
        "specimen": {
          "reference": "urn:uuid:49beaea4-a228-451e-9d8e-40c922a52ff8"
        }
      }
    },
    {
      "fullUrl": "urn:uuid:5d5aceef-7c7e-4db3-b871-058ceada49e6",
      "resource": {
        "resourceType": "Observation",
        "id": "5d5aceef-7c7e-4db3-b871-058ceada49e6",
        "meta": {
          "profile": [
            "http://hl7.eu/fhir/laboratory/StructureDefinition/Observation-resultslab-eu-lab"
          ]
        },
        "performer": [
          {
            "display": "The Central European Lab"
          }
        ],
        "category": [
          {
            "coding": [
              {
                "system": "http://terminology.hl7.org/CodeSystem/observation-category",
                "code": "laboratory"
              }
            ]
          }
        ],
        "code": {
          "coding": [
            {
              "code": "5802-4",
              "system": "http://loinc.org",
              "display": "Nitrite [Presence] in Urine by Test strip"
            }
          ],
          "text": "Nitrite [Presence] in Urine by Test strip"
        },
        "text": {
          "status": "generated",
          "div": "<div xmlns=\"http://www.w3.org/1999/xhtml\"><table class=\"hl7__eu__lab__report\"><tr><th>Test</th><th>23-May-2024</th><th>Reference&#xA0;Range</th><th>Unit</th></tr><tr><td>Nitrite [Presence] in Urine by Test strip</td></tr></table></div>"
        },
        "status": "final",
        "subject": {
          "reference": "urn:uuid:67aba85f-ca50-4024-b11f-da435802f4e1",
          "display": "Molly Jenkins"
        },
        "effectiveDateTime": "2024-05-23T14:42:11Z",
        "specimen": {
          "reference": "urn:uuid:49beaea4-a228-451e-9d8e-40c922a52ff8"
        }
      }
    },
    {
      "fullUrl": "urn:uuid:0d9fa9b2-d0c6-47f1-9c39-ebdeeeb0abb7",
      "resource": {
        "resourceType": "Observation",
        "id": "0d9fa9b2-d0c6-47f1-9c39-ebdeeeb0abb7",
        "meta": {
          "profile": [
            "http://hl7.eu/fhir/laboratory/StructureDefinition/Observation-resultslab-eu-lab"
          ]
        },
        "performer": [
          {
            "display": "The Central European Lab"
          }
        ],
        "category": [
          {
            "coding": [
              {
                "system": "http://terminology.hl7.org/CodeSystem/observation-category",
                "code": "laboratory"
              }
            ]
          }
        ],
        "code": {
          "coding": [
            {
              "code": "5794-3",
              "system": "http://loinc.org",
              "display": "Hemoglobin [Presence] in Urine by Test strip"
            }
          ],
          "text": "Hemoglobin [Presence] in Urine by Test strip"
        },
        "text": {
          "status": "generated",
          "div": "<div xmlns=\"http://www.w3.org/1999/xhtml\"><table class=\"hl7__eu__lab__report\"><tr><th>Test</th><th>23-May-2024</th><th>Reference&#xA0;Range</th><th>Unit</th></tr><tr><td>Hemoglobin [Presence] in Urine by Test strip</td></tr></table></div>"
        },
        "status": "final",
        "subject": {
          "reference": "urn:uuid:67aba85f-ca50-4024-b11f-da435802f4e1",
          "display": "Molly Jenkins"
        },
        "effectiveDateTime": "2024-05-23T14:42:11Z",
        "specimen": {
          "reference": "urn:uuid:49beaea4-a228-451e-9d8e-40c922a52ff8"
        }
      }
    },
    {
      "fullUrl": "urn:uuid:c7629bbc-5014-44f6-b286-e5ab7f754ede",
      "resource": {
        "resourceType": "Observation",
        "id": "c7629bbc-5014-44f6-b286-e5ab7f754ede",
        "meta": {
          "profile": [
            "http://hl7.eu/fhir/laboratory/StructureDefinition/Observation-resultslab-eu-lab"
          ]
        },
        "performer": [
          {
            "display": "The Central European Lab"
          }
        ],
        "category": [
          {
            "coding": [
              {
                "system": "http://terminology.hl7.org/CodeSystem/observation-category",
                "code": "laboratory"
              }
            ]
          }
        ],
        "code": {
          "coding": [
            {
              "code": "5799-2",
              "system": "http://loinc.org",
              "display": "Leukocyte esterase [Presence] in Urine by Test strip"
            }
          ],
          "text": "Leukocyte esterase [Presence] in Urine by Test strip"
        },
        "text": {
          "status": "generated",
          "div": "<div xmlns=\"http://www.w3.org/1999/xhtml\"><table class=\"hl7__eu__lab__report\"><tr><th>Test</th><th>23-May-2024</th><th>Reference&#xA0;Range</th><th>Unit</th></tr><tr><td>Leukocyte esterase [Presence] in Urine by Test strip</td></tr></table></div>"
        },
        "status": "final",
        "subject": {
          "reference": "urn:uuid:67aba85f-ca50-4024-b11f-da435802f4e1",
          "display": "Molly Jenkins"
        },
        "effectiveDateTime": "2024-05-23T14:42:11Z",
        "specimen": {
          "reference": "urn:uuid:49beaea4-a228-451e-9d8e-40c922a52ff8"
        }
      }
    },
    {
      "fullUrl": "urn:uuid:c9ece6f7-1008-4d4d-ab5c-6c54220321c5",
      "resource": {
        "resourceType": "Observation",
        "id": "c9ece6f7-1008-4d4d-ab5c-6c54220321c5",
        "meta": {
          "profile": [
            "http://hl7.eu/fhir/laboratory/StructureDefinition/Observation-resultslab-eu-lab"
          ]
        },
        "performer": [
          {
            "display": "The Central European Lab"
          }
        ],
        "category": [
          {
            "coding": [
              {
                "system": "http://terminology.hl7.org/CodeSystem/observation-category",
                "code": "laboratory"
              }
            ]
          }
        ],
        "code": {
          "coding": [
            {
              "code": "4548-4",
              "system": "http://loinc.org",
              "display": "Hemoglobin A1c/Hemoglobin.total in Blood"
            }
          ],
          "text": "Hemoglobin A1c/Hemoglobin.total in Blood"
        },
        "valueQuantity": {
          "system": "http://unitsofmeasure.org",
          "value": 3.4,
          "unit": "%",
          "code": "%"
        },
        "referenceRange": [
          {
            "low": {
              "value": 4,
              "code": "%",
              "system": "http://unitsofmeasure.org"
            }
          },
          {
            "high": {
              "value": 6,
              "code": "%",
              "system": "http://unitsofmeasure.org"
            }
          }
        ],
        "interpretation": [
          {
            "coding": [
              {
                "code": "L",
                "system": "http://terminology.hl7.org/CodeSystem/v3-ObservationInterpretation",
                "display": "Low"
              }
            ]
          }
        ],
        "text": {
          "status": "generated",
          "div": "<div xmlns=\"http://www.w3.org/1999/xhtml\"><table class=\"hl7__eu__lab__report\"><tr><th>Test</th><th>23-May-2024</th><th>Reference&#xA0;Range</th><th>Unit</th></tr><tr><td>Hemoglobin A1c/Hemoglobin.total in Blood</td><td>3.4</td><td>4 - 6</td><td>L</td><td>%</td></tr></table></div>"
        },
        "status": "final",
        "subject": {
          "reference": "urn:uuid:67aba85f-ca50-4024-b11f-da435802f4e1",
          "display": "Molly Jenkins"
        },
        "effectiveDateTime": "2024-05-23T14:42:11Z",
        "specimen": {
          "reference": "urn:uuid:4c962fca-09e5-4717-913f-c6a287480319"
        }
      }
    },
    {
      "fullUrl": "urn:uuid:42e5a547-fa77-4222-86fa-c3ab3840ba0d",
      "resource": {
        "resourceType": "Device",
        "id": "42e5a547-fa77-4222-86fa-c3ab3840ba0d",
        "deviceName": [
          {
            "name": "SYNDERAI Synthetic Generator",
            "type": "manufacturer-name"
          }
        ],
        "version": [
          {
            "value": "5.0"
          }
        ],
        "text": {
          "status": "generated",
          "div": "<div xmlns=\"http://www.w3.org/1999/xhtml\">SYNDERAI Synthetic Generator v5.0</div>"
        },
        "status": "active\"",
        "distinctIdentifier": "synderai-generator-50",
        "manufacturer": "SYNDERAI Project"
      }
    },
    {
      "fullUrl": "urn:uuid:6c45373b-28f3-406f-ad88-e98873c6efbf",
      "resource": {
        "resourceType": "Provenance",
        "id": "6c45373b-28f3-406f-ad88-e98873c6efbf",
        "target": [
          {
            "reference": "Patient/67aba85f-ca50-4024-b11f-da435802f4e1"
          },
          {
            "reference": "Bundle/044afc4e-b404-4512-ae90-33e20e00a2ba"
          },
          {
            "reference": "Composition/bc3f7682-3e21-473f-a6da-c12b6e0a7818"
          },
          {
            "reference": "PractitionerRole/468b774f-a79b-4e3d-8147-8f43d4db9c8a"
          },
          {
            "reference": "Practitioner/60bc4a7e-b5fb-47f0-b5f6-c41d0c6f948f"
          },
          {
            "reference": "PractitionerRole/32924df1-b8a9-4f62-b02a-d88f47fb8678"
          },
          {
            "reference": "Organization/5d48d47f-5c27-46d7-890c-d1b6901d3471"
          }
        ],
        "activity": {
          "text": "Synthetic Example Data Generation"
        },
        "policy": [
          "https://synderai.net/synderai-synthetic-data-policy"
        ],
        "agent": [
          {
            "type": {
              "text": "author"
            },
            "who": {
              "reference": "Device/42e5a547-fa77-4222-86fa-c3ab3840ba0d"
            }
          }
        ],
        "reason": [
          {
            "text": "Interoperability Testing and Training (non-clinical use)"
          }
        ],
        "text": {
          "status": "generated",
          "div": "<div xmlns=\"http://www.w3.org/1999/xhtml\">Provenance for SYNDERAI Synthetic Example Data Resource</div>"
        },
        "recorded": "2024-05-23T16:42:11Z"
      }
    },
    {
      "fullUrl": "urn:uuid:468b774f-a79b-4e3d-8147-8f43d4db9c8a",
      "resource": {
        "resourceType": "PractitionerRole",
        "id": "468b774f-a79b-4e3d-8147-8f43d4db9c8a",
        "meta": {
          "profile": [
            "http://hl7.eu/fhir/base/StructureDefinition/practitionerRole-eu"
          ]
        },
        "text": {
          "status": "generated",
          "div": "<div xmlns=\"http://www.w3.org/1999/xhtml\">Laboratory Role Id: 468b774f-a79b-4e3d-8147-8f43d4db9c8a</div>"
        },
        "practitioner": {
          "reference": "urn:uuid:60bc4a7e-b5fb-47f0-b5f6-c41d0c6f948f"
        }
      }
    },
    {
      "fullUrl": "urn:uuid:60bc4a7e-b5fb-47f0-b5f6-c41d0c6f948f",
      "resource": {
        "resourceType": "Practitioner",
        "id": "60bc4a7e-b5fb-47f0-b5f6-c41d0c6f948f",
        "meta": {
          "profile": [
            "http://hl7.eu/fhir/base/StructureDefinition/practitioner-eu"
          ]
        },
        "identifier": [
          {
            "assigner": {
              "display": "HL7 Europe"
            },
            "system": "urn:oid:2.16.840.1.113883.2.51.999",
            "value": "14849c92-9d66-4adb-b1e0-32bccfefdbc5"
          }
        ],
        "name": [
          {
            "prefix": [
              "dr"
            ],
            "given": [
              "Ex"
            ],
            "family": "Ample"
          }
        ],
        "address": [
          {
            "line": [
              "Laboratoire Central Europenne",
              "Boulevard du Jardin Botanique 32"
            ],
            "postalCode": "1000",
            "city": "Brussels",
            "country": "Belgium"
          }
        ],
        "text": {
          "status": "generated",
          "div": "<div xmlns=\"http://www.w3.org/1999/xhtml\">Laboratory: Laboratoire Central Europenne, 1000 Brussels, Belgium</div>"
        }
      }
    }
  ],
  "type": "document",
  "timestamp": "2024-05-23T16:42:11Z"
}
