{
  "resourceType": "Bundle",
  "id": "0e03ce56-3eb5-40d1-b155-4e54417d56dd",
  "meta": {
    "profile": [
      "http://hl7.eu/fhir/laboratory/StructureDefinition/Bundle-eu-lab"
    ]
  },
  "identifier": {
    "assigner": {
      "display": "HL7 Europe"
    },
    "system": "urn:oid:2.16.840.1.113883.2.51.999",
    "value": "307745a8-e4bc-412c-81bb-b62903922481"
  },
  "entry": [
    {
      "fullUrl": "urn:uuid:3ca3ebd5-fe46-4be8-ba8a-a0b848aa726a",
      "resource": {
        "resourceType": "Composition",
        "id": "3ca3ebd5-fe46-4be8-ba8a-a0b848aa726a",
        "meta": {
          "profile": [
            "http://hl7.eu/fhir/laboratory/StructureDefinition/Composition-eu-lab"
          ]
        },
        "identifier": {
          "assigner": {
            "display": "HL7 Europe"
          },
          "system": "urn:oid:2.16.840.1.113883.2.51.999",
          "value": "6cb1fa4f-b27c-49ed-b6e3-160afdbf1139"
        },
        "author": [
          {
            "reference": "urn:uuid:16df5201-713c-4a8b-bf87-6535d4f89d30"
          }
        ],
        "category": [
          {
            "coding": [
              {
                "code": "26436-6",
                "system": "http://loinc.org",
                "display": "Laboratory studies (set)"
              }
            ]
          }
        ],
        "type": {
          "coding": [
            {
              "code": "11502-2",
              "system": "http://loinc.org",
              "display": "Laboratory report"
            }
          ],
          "text": "Laboratory Report"
        },
        "section": [
          {
            "code": {
              "coding": [
                {
                  "code": "26436-6",
                  "system": "http://loinc.org",
                  "display": "Laboratory studies (set)"
                }
              ],
              "text": "Laboratory studies"
            },
            "section": [
              {
                "code": {
                  "coding": [
                    {
                      "code": "$18723-7",
                      "system": "http://loinc.org",
                      "display": "Hematology studies (set)"
                    }
                  ],
                  "text": "Hematology"
                },
                "entry": [
                  {
                    "reference": "urn:uuid:2d3655c2-200b-4530-a90e-9359ce5b26c5"
                  },
                  {
                    "reference": "urn:uuid:b6f37bc8-14c5-4848-9fea-c56b5e7e505a"
                  },
                  {
                    "reference": "urn:uuid:892365d3-6adc-4aa9-9d92-ae87316425d3"
                  },
                  {
                    "reference": "urn:uuid:a389c88f-ae49-4a38-83ea-e624ddc5b56a"
                  },
                  {
                    "reference": "urn:uuid:a300a06b-ec15-426d-93b4-8ced3bb0eef0"
                  },
                  {
                    "reference": "urn:uuid:73cd01e0-26d8-40b4-bfa6-5f8cf97ca789"
                  },
                  {
                    "reference": "urn:uuid:4466804a-142d-40ba-ba92-5bbac6b90513"
                  },
                  {
                    "reference": "urn:uuid:49296f41-6319-4297-acf3-8745ec772227"
                  },
                  {
                    "reference": "urn:uuid:0710bff2-dbcf-4671-9683-fbf941bb3866"
                  }
                ],
                "text": {
                  "status": "generated",
                  "div": "<div xmlns=\"http://www.w3.org/1999/xhtml\"><h3>Hematology</h3><table class=\"hl7__eu__lab__report\"><thead><tr><th>Test</th><th>30-JAN-2025</th><th>Reference&#xA0;Range</th><th>Unit</th></tr></thead><tbody><tr><td>Leukocytes [#/volume] in Blood by Automated count</td><td>10.1</td><td>3.6 - 10.5</td><td>10*3/uL</td></tr><tr><td>Erythrocytes [#/volume] in Blood by Automated count</td><td>5.2</td><td>4.3 - 6.1</td><td>10*6/uL</td></tr><tr><td>Hemoglobin [Mass/volume] in Blood</td><td><strong>11.1 L</strong></td><td>13.5 - 17.5</td><td>g/dL</td></tr><tr><td>Hematocrit [Volume Fraction] of Blood by Automated count</td><td>39.3</td><td>38 - 50</td><td>%</td></tr><tr><td>MCV [Entitic volume] by Automated count</td><td>83.0</td><td>76 - 98</td><td>fL</td></tr><tr><td>MCH [Entitic mass] by Automated count</td><td>30.8</td><td>27 - 33</td><td>pg</td></tr><tr><td>MCHC [Mass/volume] by Automated count</td><td>32.2</td><td>31 - 37</td><td>g/dL</td></tr><tr><td>Erythrocyte distribution width [Ratio] by Automated count</td><td>13.9</td><td>11.6 - 16.5</td><td>%</td></tr><tr><td>Platelets [#/volume] in Blood by Automated count</td><td>244.2</td><td>155 - 415</td><td>10*3/uL</td></tr></tbody></table></div>"
                },
                "title": "Hematology"
              },
              {
                "code": {
                  "coding": [
                    {
                      "code": "$18719-5",
                      "system": "http://loinc.org",
                      "display": "Chemistry studies (set)"
                    }
                  ],
                  "text": "Chemistry"
                },
                "entry": [
                  {
                    "reference": "urn:uuid:74588d1f-0dca-47a0-a5e4-982dd396b65a"
                  },
                  {
                    "reference": "urn:uuid:938f87e0-7412-46be-9215-2e7cbaf15186"
                  },
                  {
                    "reference": "urn:uuid:e38fe16c-3544-4b84-bd5e-d4b13bc2790b"
                  },
                  {
                    "reference": "urn:uuid:650580c9-6ae0-490e-b792-4b9d30671ea3"
                  },
                  {
                    "reference": "urn:uuid:4b8dfb19-650f-41d2-a393-76203ce6f5da"
                  },
                  {
                    "reference": "urn:uuid:6df3deb3-363d-4afe-a4b1-7acb5f00e500"
                  },
                  {
                    "reference": "urn:uuid:263aa89c-016c-4e4f-99a2-669d8d452000"
                  },
                  {
                    "reference": "urn:uuid:a42f23b6-651c-4d90-be12-4c7f0d1e66b1"
                  },
                  {
                    "reference": "urn:uuid:072b2313-7e83-4336-9dfe-e5f9f00a99f0"
                  },
                  {
                    "reference": "urn:uuid:d3faa067-0f23-4ef1-bcea-ab12f6466741"
                  },
                  {
                    "reference": "urn:uuid:724c03dd-ef60-43d6-9506-3c0457b824d8"
                  },
                  {
                    "reference": "urn:uuid:2b6e9e32-0c06-4feb-b044-b1b8de4c283f"
                  },
                  {
                    "reference": "urn:uuid:35b50184-d97b-44cb-a0a8-0318e3d67f20"
                  },
                  {
                    "reference": "urn:uuid:95f1e753-7d98-4f59-b7c2-cb8520dc310e"
                  },
                  {
                    "reference": "urn:uuid:a158bc84-d555-46b7-9ef3-a568a87e4a10"
                  },
                  {
                    "reference": "urn:uuid:f17629cd-6598-40e7-a6a7-8697fd0e9abf"
                  },
                  {
                    "reference": "urn:uuid:caffdd6d-3a0a-456d-ac8c-0d6e182e0dfa"
                  },
                  {
                    "reference": "urn:uuid:672dd9b3-7d2c-418b-99dc-b1f28b33ed67"
                  },
                  {
                    "reference": "urn:uuid:95c9bef8-e481-4f94-9c21-b91b2e0efd19"
                  },
                  {
                    "reference": "urn:uuid:e2266206-a4fd-4bf6-8fe0-b2ee98fb259f"
                  },
                  {
                    "reference": "urn:uuid:c4c92576-97a2-455a-8abc-1017f8c2fd4e"
                  },
                  {
                    "reference": "urn:uuid:61e2763a-f096-4e1e-9ed6-d2eb4dec3706"
                  },
                  {
                    "reference": "urn:uuid:228e1d13-c44d-4843-8ce9-91bd53035506"
                  },
                  {
                    "reference": "urn:uuid:99f718d8-492d-4665-aace-a2e0ceb63e89"
                  },
                  {
                    "reference": "urn:uuid:10c09014-54ea-4adb-83f5-231418e2a3ce"
                  },
                  {
                    "reference": "urn:uuid:a3a32140-de24-41f0-b275-7910f8a07144"
                  }
                ],
                "text": {
                  "status": "generated",
                  "div": "<div xmlns=\"http://www.w3.org/1999/xhtml\"><h3>Chemistry</h3><table class=\"hl7__eu__lab__report\"><thead><tr><th>Test</th><th>30-JAN-2025</th><th>Reference&#xA0;Range</th><th>Unit</th></tr></thead><tbody><tr><td>Natriuretic peptide.B prohormone N-Terminal [Mass/volume] in Serum or Plasma</td><td>561.7</td><td>300 - 900</td><td>pg/mL</td></tr><tr><td>Glucose [Mass/volume] in Serum or Plasma</td><td><strong>193.3 H</strong></td><td>70 - 140</td><td>mg/dL</td></tr><tr><td>Urea nitrogen [Mass/volume] in Serum or Plasma</td><td>7.1</td><td>7 - 50</td><td>mg/dL</td></tr><tr><td>Creatinine [Mass/volume] in Serum or Plasma</td><td><strong>0.8 L</strong></td><td>0.9 - 1.3</td><td>mg/dL</td></tr><tr><td>Calcium [Mass/volume] in Serum or Plasma</td><td>9.0</td><td>8.5 - 10.5</td><td>mg/dL</td></tr><tr><td>Sodium [Moles/volume] in Serum or Plasma</td><td>140.7</td><td>135 - 145</td><td>mmol/L</td></tr><tr><td>Potassium [Moles/volume] in Serum or Plasma</td><td>4.5</td><td>3.5 - 5.1</td><td>mmol/L</td></tr><tr><td>Chloride [Moles/volume] in Serum or Plasma</td><td>106.3</td><td>98 - 108</td><td>mmol/L</td></tr><tr><td>Carbon dioxide, total [Moles/volume] in Serum or Plasma</td><td>25.6</td><td>22 - 32</td><td>mmol/L</td></tr><tr><td>Protein [Mass/volume] in Serum or Plasma</td><td>8.2</td><td>6 - 8.3</td><td>g/dL</td></tr><tr><td>Albumin [Mass/volume] in Serum or Plasma</td><td>4.6</td><td>3.5 - 5.5</td><td>g/dL</td></tr><tr><td>Bilirubin.total [Mass/volume] in Serum or Plasma</td><td>0.5</td><td>0.3 - 1.2</td><td>mg/dL</td></tr><tr><td>Alkaline phosphatase [Enzymatic activity/volume] in Serum or Plasma</td><td>68.1</td><td>40 - 117</td><td>U/L</td></tr><tr><td>Alanine aminotransferase [Enzymatic activity/volume] in Serum or Plasma</td><td>32.2</td><td>10 - 66</td><td>U/L</td></tr><tr><td>Aspartate aminotransferase [Enzymatic activity/volume] in Serum or Plasma</td><td>24.6</td><td>10 - 40</td><td>U/L</td></tr><tr><td>Magnesium [Mass/volume] in Serum or Plasma</td><td>2.2</td><td>1.6 - 2.6</td><td>mg/dL</td></tr><tr><td>Cholesterol [Mass/volume] in Serum or Plasma</td><td><strong>252.0 H</strong></td><td>0 - 200</td><td>mg/dL</td></tr><tr><td>Triglyceride [Mass/volume] in Serum or Plasma</td><td><strong>308.3 H</strong></td><td>0 - 199</td><td>mg/dL</td></tr><tr><td>Cholesterol in LDL [Mass/volume] in Serum or Plasma by Direct assay</td><td><strong>150.4 H</strong></td><td>0 - 130</td><td>mg/dL</td></tr><tr><td>Cholesterol in HDL [Mass/volume] in Serum or Plasma</td><td><strong>39.9 L</strong></td><td>40 - 100</td><td>mg/dL</td></tr><tr><td>Hemoglobin A1c/Hemoglobin.total in Blood</td><td>5.5</td><td>4.5 - 6.4</td><td>%</td></tr><tr><td>Troponin I.cardiac [Mass/volume] in Serum or Plasma by High sensitivity method</td><td>0.0</td><td>0 - 19.9</td><td>pg/mL</td></tr><tr><td>Ferritin [Mass/volume] in Serum or Plasma</td><td>55.7</td><td>30 - 300</td><td>ug/L</td></tr><tr><td>Iron [Mass/volume] in Serum or Plasma</td><td>85.4</td><td>65 - 300</td><td>ug/dL</td></tr><tr><td>Iron binding capacity [Mass/volume] in Serum or Plasma</td><td>413.7</td><td>250 - 450</td><td>ug/dL</td></tr><tr><td>Iron saturation [Mass Fraction] in Serum or Plasma</td><td><strong>54.7 H</strong></td><td>15 - 45</td><td>%</td></tr></tbody></table></div>"
                },
                "title": "Chemistry"
              }
            ],
            "title": "Laboratory Report"
          },
          {
            "text": {
              "status": "generated",
              "div": "<div xmlns=\"http://www.w3.org/1999/xhtml\"><h3>Annotation</h3><table class=\"hl7__eu__lab__report\"><tr><th>Conclusion and Recommendations based on this report and previous findings known to us</th></tr><tr><td>The patient shows mild normocytic anemia (low hemoglobin), hyperglycemia with normal HbA1c (possible stress or acute glucose elevation), dyslipidemia (high total cholesterol, LDL, triglycerides, low HDL), and elevated iron saturation. Cardiac markers (NT-proBNP, troponin) are within or near normal limits for age. Renal and liver function are unremarkable. Recommend further evaluation of anemia, glucose control, and cardiovascular risk management.</td></tr></table></div>"
            },
            "code": {
              "coding": [
                {
                  "system": "http://loinc.org",
                  "code": "48767-8",
                  "display": "Annotation comment"
                }
              ]
            },
            "title": "Annotation comment"
          }
        ],
        "status": "final",
        "subject": {
          "reference": "urn:uuid:bea383bf-f0c4-400e-8ff1-2b07e17c9f4b",
          "display": "Timothy Smith"
        },
        "date": "2025-01-30T04:53:59Z",
        "title": "Laboratory Report",
        "confidentiality": "N"
      }
    },
    {
      "fullUrl": "urn:uuid:9ce58a05-056a-4b2f-91e5-65049daa0642",
      "resource": {
        "resourceType": "DiagnosticReport",
        "id": "9ce58a05-056a-4b2f-91e5-65049daa0642",
        "meta": {
          "profile": [
            "http://hl7.eu/fhir/laboratory/StructureDefinition/DiagnosticReport-eu-lab"
          ]
        },
        "identifier": [
          {
            "assigner": {
              "display": "HL7 Europe"
            },
            "system": "urn:oid:2.16.840.1.113883.2.51.999",
            "value": "d48a6ce9-2919-4da5-90ba-92cae16d2276"
          }
        ],
        "extension": [
          {
            "url": "http://hl7.org/fhir/5.0/StructureDefinition/extension-DiagnosticReport.composition",
            "valueReference": {
              "reference": "urn:uuid:6cb1fa4f-b27c-49ed-b6e3-160afdbf1139"
            }
          }
        ],
        "category": [
          {
            "coding": [
              {
                "code": "26436-6",
                "system": "http://loinc.org",
                "display": "Laboratory studies (set)"
              }
            ]
          }
        ],
        "specimen": [
          {
            "reference": "urn:uuid:9686254a-9af2-4e1b-9fe5-c18f664daa05"
          },
          {
            "reference": "urn:uuid:09cdcb21-7d5b-40c4-ba6a-99119b31c640"
          },
          {
            "reference": "urn:uuid:09cdcb21-7d5b-40c4-ba6a-99119b31c640"
          }
        ],
        "result": [
          {
            "reference": "urn:uuid:74588d1f-0dca-47a0-a5e4-982dd396b65a"
          },
          {
            "reference": "urn:uuid:2d3655c2-200b-4530-a90e-9359ce5b26c5"
          },
          {
            "reference": "urn:uuid:b6f37bc8-14c5-4848-9fea-c56b5e7e505a"
          },
          {
            "reference": "urn:uuid:892365d3-6adc-4aa9-9d92-ae87316425d3"
          },
          {
            "reference": "urn:uuid:a389c88f-ae49-4a38-83ea-e624ddc5b56a"
          },
          {
            "reference": "urn:uuid:a300a06b-ec15-426d-93b4-8ced3bb0eef0"
          },
          {
            "reference": "urn:uuid:73cd01e0-26d8-40b4-bfa6-5f8cf97ca789"
          },
          {
            "reference": "urn:uuid:4466804a-142d-40ba-ba92-5bbac6b90513"
          },
          {
            "reference": "urn:uuid:49296f41-6319-4297-acf3-8745ec772227"
          },
          {
            "reference": "urn:uuid:0710bff2-dbcf-4671-9683-fbf941bb3866"
          },
          {
            "reference": "urn:uuid:938f87e0-7412-46be-9215-2e7cbaf15186"
          },
          {
            "reference": "urn:uuid:e38fe16c-3544-4b84-bd5e-d4b13bc2790b"
          },
          {
            "reference": "urn:uuid:650580c9-6ae0-490e-b792-4b9d30671ea3"
          },
          {
            "reference": "urn:uuid:4b8dfb19-650f-41d2-a393-76203ce6f5da"
          },
          {
            "reference": "urn:uuid:6df3deb3-363d-4afe-a4b1-7acb5f00e500"
          },
          {
            "reference": "urn:uuid:263aa89c-016c-4e4f-99a2-669d8d452000"
          },
          {
            "reference": "urn:uuid:a42f23b6-651c-4d90-be12-4c7f0d1e66b1"
          },
          {
            "reference": "urn:uuid:072b2313-7e83-4336-9dfe-e5f9f00a99f0"
          },
          {
            "reference": "urn:uuid:d3faa067-0f23-4ef1-bcea-ab12f6466741"
          },
          {
            "reference": "urn:uuid:724c03dd-ef60-43d6-9506-3c0457b824d8"
          },
          {
            "reference": "urn:uuid:2b6e9e32-0c06-4feb-b044-b1b8de4c283f"
          },
          {
            "reference": "urn:uuid:35b50184-d97b-44cb-a0a8-0318e3d67f20"
          },
          {
            "reference": "urn:uuid:95f1e753-7d98-4f59-b7c2-cb8520dc310e"
          },
          {
            "reference": "urn:uuid:a158bc84-d555-46b7-9ef3-a568a87e4a10"
          },
          {
            "reference": "urn:uuid:f17629cd-6598-40e7-a6a7-8697fd0e9abf"
          },
          {
            "reference": "urn:uuid:caffdd6d-3a0a-456d-ac8c-0d6e182e0dfa"
          },
          {
            "reference": "urn:uuid:672dd9b3-7d2c-418b-99dc-b1f28b33ed67"
          },
          {
            "reference": "urn:uuid:95c9bef8-e481-4f94-9c21-b91b2e0efd19"
          },
          {
            "reference": "urn:uuid:e2266206-a4fd-4bf6-8fe0-b2ee98fb259f"
          },
          {
            "reference": "urn:uuid:c4c92576-97a2-455a-8abc-1017f8c2fd4e"
          },
          {
            "reference": "urn:uuid:61e2763a-f096-4e1e-9ed6-d2eb4dec3706"
          },
          {
            "reference": "urn:uuid:228e1d13-c44d-4843-8ce9-91bd53035506"
          },
          {
            "reference": "urn:uuid:99f718d8-492d-4665-aace-a2e0ceb63e89"
          },
          {
            "reference": "urn:uuid:10c09014-54ea-4adb-83f5-231418e2a3ce"
          },
          {
            "reference": "urn:uuid:a3a32140-de24-41f0-b275-7910f8a07144"
          }
        ],
        "status": "registered",
        "code": {
          "coding": [
            {
              "code": "11502-2",
              "system": "http://loinc.org",
              "display": "Laboratory report"
            }
          ]
        },
        "subject": {
          "reference": "urn:uuid:bea383bf-f0c4-400e-8ff1-2b07e17c9f4b",
          "display": "Timothy Smith"
        }
      }
    },
    {
      "fullUrl": "urn:uuid:bea383bf-f0c4-400e-8ff1-2b07e17c9f4b",
      "resource": {
        "resourceType": "Patient",
        "id": "bea383bf-f0c4-400e-8ff1-2b07e17c9f4b",
        "meta": {
          "security": [
            {
              "system": "http://terminology.hl7.org/CodeSystem/v3-ActReason",
              "code": "HTEST"
            },
            {
              "system": "http://terminology.hl7.org/CodeSystem/v3-ActReason",
              "code": "TRAIN"
            }
          ],
          "tag": [
            {
              "system": "https://synderai.net/fhir/CodeSystem/tags",
              "code": "synthetic",
              "display": "SYNDERAI Synthetic data"
            }
          ],
          "profile": [
            "http://hl7.eu/fhir/base/StructureDefinition/patient-eu-core"
          ]
        },
        "identifier": [
          {
            "type": {
              "coding": [
                {
                  "code": "PT",
                  "system": "http://terminology.hl7.org/CodeSystem/v2-0203"
                }
              ]
            },
            "system": "http://ec.europa.eu/identifier/eci",
            "value": "8029-862360-6"
          },
          {
            "type": {
              "coding": [
                {
                  "code": "MR",
                  "system": "http://terminology.hl7.org/CodeSystem/v2-0203"
                }
              ]
            },
            "system": "http://local.setting.eu/identifier",
            "value": "1fe71aa8-fb8e-4622-d398-65f6235c4fef"
          }
        ],
        "name": [
          {
            "family": "Smith"
          },
          {
            "given": [
              "Timothy"
            ]
          },
          {
            "text": "Timothy Smith"
          }
        ],
        "address": [
          {
            "line": [
              "9 Jeffrey orchard"
            ],
            "use": "home",
            "type": "physical",
            "postalCode": "NW1",
            "city": "North Joshuaville",
            "country": "United Kingdom"
          }
        ],
        "telecom": [
          {
            "system": "phone",
            "value": "+44(0)28 9018592"
          }
        ],
        "extension": [
          {
            "url": "http://hl7.org/fhir/StructureDefinition/patient-nationality",
            "valueCodeableConcept": {
              "coding": [
                {
                  "code": "GB",
                  "system": "http://hl7.org/fhir/ValueSet/country"
                }
              ]
            }
          }
        ],
        "text": {
          "status": "generated",
          "div": "<div xmlns=\"http://www.w3.org/1999/xhtml\"><table class=\"hl7__ips\"><tr><td>Timothy Smith</td><td>male</td><td>10-Sep-1941</td></tr></table></div>"
        },
        "gender": "male",
        "birthDate": "1941-09-10"
      }
    },
    {
      "fullUrl": "urn:uuid:87a06951-d649-41af-a152-3065055b9b92",
      "resource": {
        "resourceType": "ServiceRequest",
        "id": "87a06951-d649-41af-a152-3065055b9b92",
        "meta": {
          "profile": [
            "http://hl7.eu/fhir/laboratory/StructureDefinition/ServiceRequest-eu-lab"
          ]
        },
        "identifier": [
          {
            "system": "http://example.org",
            "value": "dea6d6a8-87ed-4849-ac12-21b4c7f7c08f"
          }
        ],
        "specimen": [
          {
            "reference": "urn:uuid:9686254a-9af2-4e1b-9fe5-c18f664daa05"
          },
          {
            "reference": "urn:uuid:09cdcb21-7d5b-40c4-ba6a-99119b31c640"
          }
        ],
        "reasonCode": [
          {
            "coding": [
              {
                "code": "88805009",
                "system": "http://snomed.info/sct",
                "display": "Chronic congestive heart failure"
              }
            ]
          },
          {
            "coding": [
              {
                "code": "60573004",
                "system": "http://snomed.info/sct",
                "display": "Aortic valve stenosis"
              }
            ]
          },
          {
            "coding": [
              {
                "code": "414545008",
                "system": "http://snomed.info/sct",
                "display": "Ischemic heart disease"
              }
            ]
          },
          {
            "coding": [
              {
                "code": "64859006",
                "system": "http://snomed.info/sct",
                "display": "Osteoporosis"
              }
            ]
          },
          {
            "coding": [
              {
                "code": "6525002",
                "system": "http://snomed.info/sct",
                "display": "Dependent drug abuse"
              }
            ]
          },
          {
            "coding": [
              {
                "code": "55822004",
                "system": "http://snomed.info/sct",
                "display": "Hyperlipidemia"
              }
            ]
          },
          {
            "coding": [
              {
                "code": "78275009",
                "system": "http://snomed.info/sct",
                "display": "Obstructive sleep apnea syndrome"
              }
            ]
          },
          {
            "coding": [
              {
                "code": "39898005",
                "system": "http://snomed.info/sct",
                "display": "Sleep disorder"
              }
            ]
          },
          {
            "coding": [
              {
                "code": "401314000",
                "system": "http://snomed.info/sct",
                "display": "Acute non-ST segment elevation myocardial infarction"
              }
            ]
          },
          {
            "coding": [
              {
                "code": "124171000119105",
                "system": "http://snomed.info/sct",
                "display": "Chronic intractable migraine without aura"
              }
            ]
          },
          {
            "coding": [
              {
                "code": "196416002",
                "system": "http://snomed.info/sct",
                "display": "Impacted molars"
              }
            ]
          },
          {
            "coding": [
              {
                "code": "59621000",
                "system": "http://snomed.info/sct",
                "display": "Essential hypertension"
              }
            ]
          },
          {
            "coding": [
              {
                "code": "80394007",
                "system": "http://snomed.info/sct",
                "display": "Hyperglycemia"
              }
            ]
          },
          {
            "coding": [
              {
                "code": "237602007",
                "system": "http://snomed.info/sct",
                "display": "Metabolic syndrome X"
              }
            ]
          },
          {
            "coding": [
              {
                "code": "302870006",
                "system": "http://snomed.info/sct",
                "display": "Hypertriglyceridemia"
              }
            ]
          },
          {
            "coding": [
              {
                "code": "44054006",
                "system": "http://snomed.info/sct",
                "display": "Type 2 diabetes mellitus"
              }
            ]
          },
          {
            "coding": [
              {
                "code": "271737000",
                "system": "http://snomed.info/sct",
                "display": "Anemia"
              }
            ]
          },
          {
            "coding": [
              {
                "code": "15777000",
                "system": "http://snomed.info/sct",
                "display": "Prediabetes"
              }
            ]
          }
        ],
        "status": "active",
        "intent": "order",
        "code": {
          "coding": [
            {
              "code": "108252007",
              "system": "http://snomed.info/sct",
              "display": "Laboratory procedure"
            }
          ]
        },
        "subject": {
          "reference": "urn:uuid:bea383bf-f0c4-400e-8ff1-2b07e17c9f4b",
          "display": "Timothy Smith"
        },
        "requester": {
          "reference": "urn:uuid:b62f0dc0-0a16-4c93-bffb-e1539af98df8"
        }
      }
    },
    {
      "fullUrl": "urn:uuid:b62f0dc0-0a16-4c93-bffb-e1539af98df8",
      "resource": {
        "resourceType": "PractitionerRole",
        "id": "b62f0dc0-0a16-4c93-bffb-e1539af98df8",
        "meta": {
          "profile": [
            "http://hl7.eu/fhir/base/StructureDefinition/practitionerRole-eu"
          ]
        },
        "text": {
          "status": "generated",
          "div": "<div xmlns=\"http://www.w3.org/1999/xhtml\">Provider Role Id: b62f0dc0-0a16-4c93-bffb-e1539af98df8</div>"
        },
        "organization": {
          "reference": "urn:uuid:1a433479-b864-4b32-a186-a21e2c461528"
        }
      }
    },
    {
      "fullUrl": "urn:uuid:1a433479-b864-4b32-a186-a21e2c461528",
      "resource": {
        "resourceType": "Organization",
        "id": "1a433479-b864-4b32-a186-a21e2c461528",
        "meta": {
          "profile": [
            "http://hl7.eu/fhir/base/StructureDefinition/organization-eu"
          ]
        },
        "identifier": [
          {
            "assigner": {
              "display": "HL7 Europe"
            },
            "system": "urn:oid:2.16.840.1.113883.2.51.999",
            "value": "6ca3d6a7-cba7-40ca-bf5e-4c4d64f7c59f"
          }
        ],
        "address": [
          {
            "city": "London",
            "postalCode": "SE1 7",
            "country": "United Kingdom"
          }
        ],
        "text": {
          "status": "generated",
          "div": "<div xmlns=\"http://www.w3.org/1999/xhtml\">Provider Organization: Evelina Children&#039;s Hospital</div>"
        },
        "name": "Evelina Children&#039;s Hospital"
      }
    },
    {
      "fullUrl": "urn:uuid:9686254a-9af2-4e1b-9fe5-c18f664daa05",
      "resource": {
        "resourceType": "Specimen",
        "id": "9686254a-9af2-4e1b-9fe5-c18f664daa05",
        "meta": {
          "profile": [
            "http://hl7.eu/fhir/laboratory/StructureDefinition/Specimen-eu-lab"
          ]
        },
        "collection": {
          "collectedDateTime": "2025-01-30"
        },
        "text": {
          "status": "generated",
          "div": "<div xmlns=\"http://www.w3.org/1999/xhtml\"><table class=\"hl7__eu__lab__report\"><tr><th>Specimen</th><th>Collection Date</th></tr><tr><td>Acellular blood (serum or plasma) specimen</td><td><span class=\"nb\">30-Jan-2025</span></td></tr></table></div>"
        },
        "type": {
          "coding": [
            {
              "code": "122592007",
              "system": "http://snomed.info/sct",
              "display": "Acellular blood (serum or plasma) specimen"
            }
          ]
        }
      }
    },
    {
      "fullUrl": "urn:uuid:09cdcb21-7d5b-40c4-ba6a-99119b31c640",
      "resource": {
        "resourceType": "Specimen",
        "id": "09cdcb21-7d5b-40c4-ba6a-99119b31c640",
        "meta": {
          "profile": [
            "http://hl7.eu/fhir/laboratory/StructureDefinition/Specimen-eu-lab"
          ]
        },
        "collection": {
          "collectedDateTime": "2025-01-30"
        },
        "text": {
          "status": "generated",
          "div": "<div xmlns=\"http://www.w3.org/1999/xhtml\"><table class=\"hl7__eu__lab__report\"><tr><th>Specimen</th><th>Collection Date</th></tr><tr><td>Whole blood specimen (specimen)</td><td><span class=\"nb\">30-Jan-2025</span></td></tr></table></div>"
        },
        "type": {
          "coding": [
            {
              "code": "258580003",
              "system": "http://snomed.info/sct",
              "display": "Whole blood specimen (specimen)"
            }
          ]
        }
      }
    },
    {
      "fullUrl": "urn:uuid:09cdcb21-7d5b-40c4-ba6a-99119b31c640",
      "resource": {
        "resourceType": "Specimen",
        "id": "09cdcb21-7d5b-40c4-ba6a-99119b31c640",
        "meta": {
          "profile": [
            "http://hl7.eu/fhir/laboratory/StructureDefinition/Specimen-eu-lab"
          ]
        },
        "collection": {
          "collectedDateTime": "2025-01-30"
        },
        "text": {
          "status": "generated",
          "div": "<div xmlns=\"http://www.w3.org/1999/xhtml\"><table class=\"hl7__eu__lab__report\"><tr><th>Specimen</th><th>Collection Date</th></tr><tr><td>Whole blood specimen (specimen)</td><td><span class=\"nb\">30-Jan-2025</span></td></tr></table></div>"
        },
        "type": {
          "coding": [
            {
              "code": "258580003",
              "system": "http://snomed.info/sct",
              "display": "Whole blood specimen (specimen)"
            }
          ]
        }
      }
    },
    {
      "fullUrl": "urn:uuid:74588d1f-0dca-47a0-a5e4-982dd396b65a",
      "resource": {
        "resourceType": "Observation",
        "id": "74588d1f-0dca-47a0-a5e4-982dd396b65a",
        "meta": {
          "profile": [
            "http://hl7.eu/fhir/laboratory/StructureDefinition/Observation-resultslab-eu-lab"
          ]
        },
        "performer": [
          {
            "display": "The Central European Lab"
          }
        ],
        "category": [
          {
            "coding": [
              {
                "system": "http://terminology.hl7.org/CodeSystem/observation-category",
                "code": "laboratory"
              }
            ]
          }
        ],
        "code": {
          "coding": [
            {
              "code": "33762-6",
              "system": "http://loinc.org",
              "display": "Natriuretic peptide.B prohormone N-Terminal [Mass/volume] in Serum or Plasma"
            }
          ],
          "text": "Natriuretic peptide.B prohormone N-Terminal [Mass/volume] in Serum or Plasma"
        },
        "valueQuantity": {
          "system": "http://unitsofmeasure.org",
          "value": 561.7,
          "unit": "pg/mL",
          "code": "pg/mL"
        },
        "referenceRange": [
          {
            "low": {
              "value": 300,
              "code": "pg/mL",
              "system": "http://unitsofmeasure.org"
            }
          },
          {
            "high": {
              "value": 900,
              "code": "pg/mL",
              "system": "http://unitsofmeasure.org"
            }
          }
        ],
        "text": {
          "status": "generated",
          "div": "<div xmlns=\"http://www.w3.org/1999/xhtml\"><table class=\"hl7__eu__lab__report\"><tr><th>Test</th><th>30-Jan-2025</th><th>Reference&#xA0;Range</th><th>Unit</th></tr><tr><td>Natriuretic peptide.B prohormone N-Terminal [Mass/volume] in Serum or Plasma</td><td>561.7</td><td>300 - 900</td><td></td><td>pg/mL</td></tr></table></div>"
        },
        "status": "final",
        "subject": {
          "reference": "urn:uuid:bea383bf-f0c4-400e-8ff1-2b07e17c9f4b",
          "display": "Timothy Smith"
        },
        "effectiveDateTime": "2025-01-30T03:53:59Z",
        "specimen": {
          "reference": "urn:uuid:9686254a-9af2-4e1b-9fe5-c18f664daa05"
        }
      }
    },
    {
      "fullUrl": "urn:uuid:2d3655c2-200b-4530-a90e-9359ce5b26c5",
      "resource": {
        "resourceType": "Observation",
        "id": "2d3655c2-200b-4530-a90e-9359ce5b26c5",
        "meta": {
          "profile": [
            "http://hl7.eu/fhir/laboratory/StructureDefinition/Observation-resultslab-eu-lab"
          ]
        },
        "performer": [
          {
            "display": "The Central European Lab"
          }
        ],
        "category": [
          {
            "coding": [
              {
                "system": "http://terminology.hl7.org/CodeSystem/observation-category",
                "code": "laboratory"
              }
            ]
          }
        ],
        "code": {
          "coding": [
            {
              "code": "6690-2",
              "system": "http://loinc.org",
              "display": "Leukocytes [#/volume] in Blood by Automated count"
            }
          ],
          "text": "Leukocytes [#/volume] in Blood by Automated count"
        },
        "valueQuantity": {
          "system": "http://unitsofmeasure.org",
          "value": 10.1,
          "unit": "10*3/uL",
          "code": "10*3/uL"
        },
        "referenceRange": [
          {
            "low": {
              "value": 3.6,
              "code": "10*3/uL",
              "system": "http://unitsofmeasure.org"
            }
          },
          {
            "high": {
              "value": 10.5,
              "code": "10*3/uL",
              "system": "http://unitsofmeasure.org"
            }
          }
        ],
        "text": {
          "status": "generated",
          "div": "<div xmlns=\"http://www.w3.org/1999/xhtml\"><table class=\"hl7__eu__lab__report\"><tr><th>Test</th><th>30-Jan-2025</th><th>Reference&#xA0;Range</th><th>Unit</th></tr><tr><td>Leukocytes [#/volume] in Blood by Automated count</td><td>10.1</td><td>3.6 - 10.5</td><td></td><td>10*3/uL</td></tr></table></div>"
        },
        "status": "final",
        "subject": {
          "reference": "urn:uuid:bea383bf-f0c4-400e-8ff1-2b07e17c9f4b",
          "display": "Timothy Smith"
        },
        "effectiveDateTime": "2025-01-30T03:53:59Z",
        "specimen": {
          "reference": "urn:uuid:09cdcb21-7d5b-40c4-ba6a-99119b31c640"
        }
      }
    },
    {
      "fullUrl": "urn:uuid:b6f37bc8-14c5-4848-9fea-c56b5e7e505a",
      "resource": {
        "resourceType": "Observation",
        "id": "b6f37bc8-14c5-4848-9fea-c56b5e7e505a",
        "meta": {
          "profile": [
            "http://hl7.eu/fhir/laboratory/StructureDefinition/Observation-resultslab-eu-lab"
          ]
        },
        "performer": [
          {
            "display": "The Central European Lab"
          }
        ],
        "category": [
          {
            "coding": [
              {
                "system": "http://terminology.hl7.org/CodeSystem/observation-category",
                "code": "laboratory"
              }
            ]
          }
        ],
        "code": {
          "coding": [
            {
              "code": "789-8",
              "system": "http://loinc.org",
              "display": "Erythrocytes [#/volume] in Blood by Automated count"
            }
          ],
          "text": "Erythrocytes [#/volume] in Blood by Automated count"
        },
        "valueQuantity": {
          "system": "http://unitsofmeasure.org",
          "value": 5.2,
          "unit": "10*6/uL",
          "code": "10*6/uL"
        },
        "referenceRange": [
          {
            "low": {
              "value": 4.3,
              "code": "10*6/uL",
              "system": "http://unitsofmeasure.org"
            }
          },
          {
            "high": {
              "value": 6.1,
              "code": "10*6/uL",
              "system": "http://unitsofmeasure.org"
            }
          }
        ],
        "text": {
          "status": "generated",
          "div": "<div xmlns=\"http://www.w3.org/1999/xhtml\"><table class=\"hl7__eu__lab__report\"><tr><th>Test</th><th>30-Jan-2025</th><th>Reference&#xA0;Range</th><th>Unit</th></tr><tr><td>Erythrocytes [#/volume] in Blood by Automated count</td><td>5.2</td><td>4.3 - 6.1</td><td></td><td>10*6/uL</td></tr></table></div>"
        },
        "status": "final",
        "subject": {
          "reference": "urn:uuid:bea383bf-f0c4-400e-8ff1-2b07e17c9f4b",
          "display": "Timothy Smith"
        },
        "effectiveDateTime": "2025-01-30T03:53:59Z",
        "specimen": {
          "reference": "urn:uuid:09cdcb21-7d5b-40c4-ba6a-99119b31c640"
        }
      }
    },
    {
      "fullUrl": "urn:uuid:892365d3-6adc-4aa9-9d92-ae87316425d3",
      "resource": {
        "resourceType": "Observation",
        "id": "892365d3-6adc-4aa9-9d92-ae87316425d3",
        "meta": {
          "profile": [
            "http://hl7.eu/fhir/laboratory/StructureDefinition/Observation-resultslab-eu-lab"
          ]
        },
        "performer": [
          {
            "display": "The Central European Lab"
          }
        ],
        "category": [
          {
            "coding": [
              {
                "system": "http://terminology.hl7.org/CodeSystem/observation-category",
                "code": "laboratory"
              }
            ]
          }
        ],
        "code": {
          "coding": [
            {
              "code": "718-7",
              "system": "http://loinc.org",
              "display": "Hemoglobin [Mass/volume] in Blood"
            }
          ],
          "text": "Hemoglobin [Mass/volume] in Blood"
        },
        "valueQuantity": {
          "system": "http://unitsofmeasure.org",
          "value": 11.1,
          "unit": "g/dL",
          "code": "g/dL"
        },
        "referenceRange": [
          {
            "low": {
              "value": 13.5,
              "code": "g/dL",
              "system": "http://unitsofmeasure.org"
            }
          },
          {
            "high": {
              "value": 17.5,
              "code": "g/dL",
              "system": "http://unitsofmeasure.org"
            }
          }
        ],
        "interpretation": [
          {
            "coding": [
              {
                "code": "L",
                "system": "http://terminology.hl7.org/CodeSystem/v3-ObservationInterpretation",
                "display": "Low"
              }
            ]
          }
        ],
        "text": {
          "status": "generated",
          "div": "<div xmlns=\"http://www.w3.org/1999/xhtml\"><table class=\"hl7__eu__lab__report\"><tr><th>Test</th><th>30-Jan-2025</th><th>Reference&#xA0;Range</th><th>Unit</th></tr><tr><td>Hemoglobin [Mass/volume] in Blood</td><td>11.1</td><td>13.5 - 17.5</td><td>L</td><td>g/dL</td></tr></table></div>"
        },
        "status": "final",
        "subject": {
          "reference": "urn:uuid:bea383bf-f0c4-400e-8ff1-2b07e17c9f4b",
          "display": "Timothy Smith"
        },
        "effectiveDateTime": "2025-01-30T03:53:59Z",
        "specimen": {
          "reference": "urn:uuid:09cdcb21-7d5b-40c4-ba6a-99119b31c640"
        }
      }
    },
    {
      "fullUrl": "urn:uuid:a389c88f-ae49-4a38-83ea-e624ddc5b56a",
      "resource": {
        "resourceType": "Observation",
        "id": "a389c88f-ae49-4a38-83ea-e624ddc5b56a",
        "meta": {
          "profile": [
            "http://hl7.eu/fhir/laboratory/StructureDefinition/Observation-resultslab-eu-lab"
          ]
        },
        "performer": [
          {
            "display": "The Central European Lab"
          }
        ],
        "category": [
          {
            "coding": [
              {
                "system": "http://terminology.hl7.org/CodeSystem/observation-category",
                "code": "laboratory"
              }
            ]
          }
        ],
        "code": {
          "coding": [
            {
              "code": "4544-3",
              "system": "http://loinc.org",
              "display": "Hematocrit [Volume Fraction] of Blood by Automated count"
            }
          ],
          "text": "Hematocrit [Volume Fraction] of Blood by Automated count"
        },
        "valueQuantity": {
          "system": "http://unitsofmeasure.org",
          "value": 39.3,
          "unit": "%",
          "code": "%"
        },
        "referenceRange": [
          {
            "low": {
              "value": 38,
              "code": "%",
              "system": "http://unitsofmeasure.org"
            }
          },
          {
            "high": {
              "value": 50,
              "code": "%",
              "system": "http://unitsofmeasure.org"
            }
          }
        ],
        "text": {
          "status": "generated",
          "div": "<div xmlns=\"http://www.w3.org/1999/xhtml\"><table class=\"hl7__eu__lab__report\"><tr><th>Test</th><th>30-Jan-2025</th><th>Reference&#xA0;Range</th><th>Unit</th></tr><tr><td>Hematocrit [Volume Fraction] of Blood by Automated count</td><td>39.3</td><td>38 - 50</td><td></td><td>%</td></tr></table></div>"
        },
        "status": "final",
        "subject": {
          "reference": "urn:uuid:bea383bf-f0c4-400e-8ff1-2b07e17c9f4b",
          "display": "Timothy Smith"
        },
        "effectiveDateTime": "2025-01-30T03:53:59Z",
        "specimen": {
          "reference": "urn:uuid:09cdcb21-7d5b-40c4-ba6a-99119b31c640"
        }
      }
    },
    {
      "fullUrl": "urn:uuid:a300a06b-ec15-426d-93b4-8ced3bb0eef0",
      "resource": {
        "resourceType": "Observation",
        "id": "a300a06b-ec15-426d-93b4-8ced3bb0eef0",
        "meta": {
          "profile": [
            "http://hl7.eu/fhir/laboratory/StructureDefinition/Observation-resultslab-eu-lab"
          ]
        },
        "performer": [
          {
            "display": "The Central European Lab"
          }
        ],
        "category": [
          {
            "coding": [
              {
                "system": "http://terminology.hl7.org/CodeSystem/observation-category",
                "code": "laboratory"
              }
            ]
          }
        ],
        "code": {
          "coding": [
            {
              "code": "787-2",
              "system": "http://loinc.org",
              "display": "MCV [Entitic volume] by Automated count"
            }
          ],
          "text": "MCV [Entitic volume] by Automated count"
        },
        "valueQuantity": {
          "system": "http://unitsofmeasure.org",
          "value": 83,
          "unit": "fL",
          "code": "fL"
        },
        "referenceRange": [
          {
            "low": {
              "value": 76,
              "code": "fL",
              "system": "http://unitsofmeasure.org"
            }
          },
          {
            "high": {
              "value": 98,
              "code": "fL",
              "system": "http://unitsofmeasure.org"
            }
          }
        ],
        "text": {
          "status": "generated",
          "div": "<div xmlns=\"http://www.w3.org/1999/xhtml\"><table class=\"hl7__eu__lab__report\"><tr><th>Test</th><th>30-Jan-2025</th><th>Reference&#xA0;Range</th><th>Unit</th></tr><tr><td>MCV [Entitic volume] by Automated count</td><td>83.0</td><td>76 - 98</td><td></td><td>fL</td></tr></table></div>"
        },
        "status": "final",
        "subject": {
          "reference": "urn:uuid:bea383bf-f0c4-400e-8ff1-2b07e17c9f4b",
          "display": "Timothy Smith"
        },
        "effectiveDateTime": "2025-01-30T03:53:59Z",
        "specimen": {
          "reference": "urn:uuid:09cdcb21-7d5b-40c4-ba6a-99119b31c640"
        }
      }
    },
    {
      "fullUrl": "urn:uuid:73cd01e0-26d8-40b4-bfa6-5f8cf97ca789",
      "resource": {
        "resourceType": "Observation",
        "id": "73cd01e0-26d8-40b4-bfa6-5f8cf97ca789",
        "meta": {
          "profile": [
            "http://hl7.eu/fhir/laboratory/StructureDefinition/Observation-resultslab-eu-lab"
          ]
        },
        "performer": [
          {
            "display": "The Central European Lab"
          }
        ],
        "category": [
          {
            "coding": [
              {
                "system": "http://terminology.hl7.org/CodeSystem/observation-category",
                "code": "laboratory"
              }
            ]
          }
        ],
        "code": {
          "coding": [
            {
              "code": "785-6",
              "system": "http://loinc.org",
              "display": "MCH [Entitic mass] by Automated count"
            }
          ],
          "text": "MCH [Entitic mass] by Automated count"
        },
        "valueQuantity": {
          "system": "http://unitsofmeasure.org",
          "value": 30.8,
          "unit": "pg",
          "code": "pg"
        },
        "referenceRange": [
          {
            "low": {
              "value": 27,
              "code": "pg",
              "system": "http://unitsofmeasure.org"
            }
          },
          {
            "high": {
              "value": 33,
              "code": "pg",
              "system": "http://unitsofmeasure.org"
            }
          }
        ],
        "text": {
          "status": "generated",
          "div": "<div xmlns=\"http://www.w3.org/1999/xhtml\"><table class=\"hl7__eu__lab__report\"><tr><th>Test</th><th>30-Jan-2025</th><th>Reference&#xA0;Range</th><th>Unit</th></tr><tr><td>MCH [Entitic mass] by Automated count</td><td>30.8</td><td>27 - 33</td><td></td><td>pg</td></tr></table></div>"
        },
        "status": "final",
        "subject": {
          "reference": "urn:uuid:bea383bf-f0c4-400e-8ff1-2b07e17c9f4b",
          "display": "Timothy Smith"
        },
        "effectiveDateTime": "2025-01-30T03:53:59Z",
        "specimen": {
          "reference": "urn:uuid:09cdcb21-7d5b-40c4-ba6a-99119b31c640"
        }
      }
    },
    {
      "fullUrl": "urn:uuid:4466804a-142d-40ba-ba92-5bbac6b90513",
      "resource": {
        "resourceType": "Observation",
        "id": "4466804a-142d-40ba-ba92-5bbac6b90513",
        "meta": {
          "profile": [
            "http://hl7.eu/fhir/laboratory/StructureDefinition/Observation-resultslab-eu-lab"
          ]
        },
        "performer": [
          {
            "display": "The Central European Lab"
          }
        ],
        "category": [
          {
            "coding": [
              {
                "system": "http://terminology.hl7.org/CodeSystem/observation-category",
                "code": "laboratory"
              }
            ]
          }
        ],
        "code": {
          "coding": [
            {
              "code": "786-4",
              "system": "http://loinc.org",
              "display": "MCHC [Mass/volume] by Automated count"
            }
          ],
          "text": "MCHC [Mass/volume] by Automated count"
        },
        "valueQuantity": {
          "system": "http://unitsofmeasure.org",
          "value": 32.2,
          "unit": "g/dL",
          "code": "g/dL"
        },
        "referenceRange": [
          {
            "low": {
              "value": 31,
              "code": "g/dL",
              "system": "http://unitsofmeasure.org"
            }
          },
          {
            "high": {
              "value": 37,
              "code": "g/dL",
              "system": "http://unitsofmeasure.org"
            }
          }
        ],
        "text": {
          "status": "generated",
          "div": "<div xmlns=\"http://www.w3.org/1999/xhtml\"><table class=\"hl7__eu__lab__report\"><tr><th>Test</th><th>30-Jan-2025</th><th>Reference&#xA0;Range</th><th>Unit</th></tr><tr><td>MCHC [Mass/volume] by Automated count</td><td>32.2</td><td>31 - 37</td><td></td><td>g/dL</td></tr></table></div>"
        },
        "status": "final",
        "subject": {
          "reference": "urn:uuid:bea383bf-f0c4-400e-8ff1-2b07e17c9f4b",
          "display": "Timothy Smith"
        },
        "effectiveDateTime": "2025-01-30T03:53:59Z",
        "specimen": {
          "reference": "urn:uuid:09cdcb21-7d5b-40c4-ba6a-99119b31c640"
        }
      }
    },
    {
      "fullUrl": "urn:uuid:49296f41-6319-4297-acf3-8745ec772227",
      "resource": {
        "resourceType": "Observation",
        "id": "49296f41-6319-4297-acf3-8745ec772227",
        "meta": {
          "profile": [
            "http://hl7.eu/fhir/laboratory/StructureDefinition/Observation-resultslab-eu-lab"
          ]
        },
        "performer": [
          {
            "display": "The Central European Lab"
          }
        ],
        "category": [
          {
            "coding": [
              {
                "system": "http://terminology.hl7.org/CodeSystem/observation-category",
                "code": "laboratory"
              }
            ]
          }
        ],
        "code": {
          "coding": [
            {
              "code": "788-0",
              "system": "http://loinc.org",
              "display": "Erythrocyte distribution width [Ratio] by Automated count"
            }
          ],
          "text": "Erythrocyte distribution width [Ratio] by Automated count"
        },
        "valueQuantity": {
          "system": "http://unitsofmeasure.org",
          "value": 13.9,
          "unit": "%",
          "code": "%"
        },
        "referenceRange": [
          {
            "low": {
              "value": 11.6,
              "code": "%",
              "system": "http://unitsofmeasure.org"
            }
          },
          {
            "high": {
              "value": 16.5,
              "code": "%",
              "system": "http://unitsofmeasure.org"
            }
          }
        ],
        "text": {
          "status": "generated",
          "div": "<div xmlns=\"http://www.w3.org/1999/xhtml\"><table class=\"hl7__eu__lab__report\"><tr><th>Test</th><th>30-Jan-2025</th><th>Reference&#xA0;Range</th><th>Unit</th></tr><tr><td>Erythrocyte distribution width [Ratio] by Automated count</td><td>13.9</td><td>11.6 - 16.5</td><td></td><td>%</td></tr></table></div>"
        },
        "status": "final",
        "subject": {
          "reference": "urn:uuid:bea383bf-f0c4-400e-8ff1-2b07e17c9f4b",
          "display": "Timothy Smith"
        },
        "effectiveDateTime": "2025-01-30T03:53:59Z",
        "specimen": {
          "reference": "urn:uuid:09cdcb21-7d5b-40c4-ba6a-99119b31c640"
        }
      }
    },
    {
      "fullUrl": "urn:uuid:0710bff2-dbcf-4671-9683-fbf941bb3866",
      "resource": {
        "resourceType": "Observation",
        "id": "0710bff2-dbcf-4671-9683-fbf941bb3866",
        "meta": {
          "profile": [
            "http://hl7.eu/fhir/laboratory/StructureDefinition/Observation-resultslab-eu-lab"
          ]
        },
        "performer": [
          {
            "display": "The Central European Lab"
          }
        ],
        "category": [
          {
            "coding": [
              {
                "system": "http://terminology.hl7.org/CodeSystem/observation-category",
                "code": "laboratory"
              }
            ]
          }
        ],
        "code": {
          "coding": [
            {
              "code": "777-3",
              "system": "http://loinc.org",
              "display": "Platelets [#/volume] in Blood by Automated count"
            }
          ],
          "text": "Platelets [#/volume] in Blood by Automated count"
        },
        "valueQuantity": {
          "system": "http://unitsofmeasure.org",
          "value": 244.2,
          "unit": "10*3/uL",
          "code": "10*3/uL"
        },
        "referenceRange": [
          {
            "low": {
              "value": 155,
              "code": "10*3/uL",
              "system": "http://unitsofmeasure.org"
            }
          },
          {
            "high": {
              "value": 415,
              "code": "10*3/uL",
              "system": "http://unitsofmeasure.org"
            }
          }
        ],
        "text": {
          "status": "generated",
          "div": "<div xmlns=\"http://www.w3.org/1999/xhtml\"><table class=\"hl7__eu__lab__report\"><tr><th>Test</th><th>30-Jan-2025</th><th>Reference&#xA0;Range</th><th>Unit</th></tr><tr><td>Platelets [#/volume] in Blood by Automated count</td><td>244.2</td><td>155 - 415</td><td></td><td>10*3/uL</td></tr></table></div>"
        },
        "status": "final",
        "subject": {
          "reference": "urn:uuid:bea383bf-f0c4-400e-8ff1-2b07e17c9f4b",
          "display": "Timothy Smith"
        },
        "effectiveDateTime": "2025-01-30T03:53:59Z",
        "specimen": {
          "reference": "urn:uuid:09cdcb21-7d5b-40c4-ba6a-99119b31c640"
        }
      }
    },
    {
      "fullUrl": "urn:uuid:938f87e0-7412-46be-9215-2e7cbaf15186",
      "resource": {
        "resourceType": "Observation",
        "id": "938f87e0-7412-46be-9215-2e7cbaf15186",
        "meta": {
          "profile": [
            "http://hl7.eu/fhir/laboratory/StructureDefinition/Observation-resultslab-eu-lab"
          ]
        },
        "performer": [
          {
            "display": "The Central European Lab"
          }
        ],
        "category": [
          {
            "coding": [
              {
                "system": "http://terminology.hl7.org/CodeSystem/observation-category",
                "code": "laboratory"
              }
            ]
          }
        ],
        "code": {
          "coding": [
            {
              "code": "2345-7",
              "system": "http://loinc.org",
              "display": "Glucose [Mass/volume] in Serum or Plasma"
            }
          ],
          "text": "Glucose [Mass/volume] in Serum or Plasma"
        },
        "valueQuantity": {
          "system": "http://unitsofmeasure.org",
          "value": 193.3,
          "unit": "mg/dL",
          "code": "mg/dL"
        },
        "referenceRange": [
          {
            "low": {
              "value": 70,
              "code": "mg/dL",
              "system": "http://unitsofmeasure.org"
            }
          },
          {
            "high": {
              "value": 140,
              "code": "mg/dL",
              "system": "http://unitsofmeasure.org"
            }
          }
        ],
        "interpretation": [
          {
            "coding": [
              {
                "code": "H",
                "system": "http://terminology.hl7.org/CodeSystem/v3-ObservationInterpretation",
                "display": "High"
              }
            ]
          }
        ],
        "text": {
          "status": "generated",
          "div": "<div xmlns=\"http://www.w3.org/1999/xhtml\"><table class=\"hl7__eu__lab__report\"><tr><th>Test</th><th>30-Jan-2025</th><th>Reference&#xA0;Range</th><th>Unit</th></tr><tr><td>Glucose [Mass/volume] in Serum or Plasma</td><td>193.3</td><td>70 - 140</td><td>H</td><td>mg/dL</td></tr></table></div>"
        },
        "status": "final",
        "subject": {
          "reference": "urn:uuid:bea383bf-f0c4-400e-8ff1-2b07e17c9f4b",
          "display": "Timothy Smith"
        },
        "effectiveDateTime": "2025-01-30T03:53:59Z",
        "specimen": {
          "reference": "urn:uuid:9686254a-9af2-4e1b-9fe5-c18f664daa05"
        }
      }
    },
    {
      "fullUrl": "urn:uuid:e38fe16c-3544-4b84-bd5e-d4b13bc2790b",
      "resource": {
        "resourceType": "Observation",
        "id": "e38fe16c-3544-4b84-bd5e-d4b13bc2790b",
        "meta": {
          "profile": [
            "http://hl7.eu/fhir/laboratory/StructureDefinition/Observation-resultslab-eu-lab"
          ]
        },
        "performer": [
          {
            "display": "The Central European Lab"
          }
        ],
        "category": [
          {
            "coding": [
              {
                "system": "http://terminology.hl7.org/CodeSystem/observation-category",
                "code": "laboratory"
              }
            ]
          }
        ],
        "code": {
          "coding": [
            {
              "code": "3094-0",
              "system": "http://loinc.org",
              "display": "Urea nitrogen [Mass/volume] in Serum or Plasma"
            }
          ],
          "text": "Urea nitrogen [Mass/volume] in Serum or Plasma"
        },
        "valueQuantity": {
          "system": "http://unitsofmeasure.org",
          "value": 7.1,
          "unit": "mg/dL",
          "code": "mg/dL"
        },
        "referenceRange": [
          {
            "low": {
              "value": 7,
              "code": "mg/dL",
              "system": "http://unitsofmeasure.org"
            }
          },
          {
            "high": {
              "value": 50,
              "code": "mg/dL",
              "system": "http://unitsofmeasure.org"
            }
          }
        ],
        "text": {
          "status": "generated",
          "div": "<div xmlns=\"http://www.w3.org/1999/xhtml\"><table class=\"hl7__eu__lab__report\"><tr><th>Test</th><th>30-Jan-2025</th><th>Reference&#xA0;Range</th><th>Unit</th></tr><tr><td>Urea nitrogen [Mass/volume] in Serum or Plasma</td><td>7.1</td><td>7 - 50</td><td></td><td>mg/dL</td></tr></table></div>"
        },
        "status": "final",
        "subject": {
          "reference": "urn:uuid:bea383bf-f0c4-400e-8ff1-2b07e17c9f4b",
          "display": "Timothy Smith"
        },
        "effectiveDateTime": "2025-01-30T03:53:59Z",
        "specimen": {
          "reference": "urn:uuid:9686254a-9af2-4e1b-9fe5-c18f664daa05"
        }
      }
    },
    {
      "fullUrl": "urn:uuid:650580c9-6ae0-490e-b792-4b9d30671ea3",
      "resource": {
        "resourceType": "Observation",
        "id": "650580c9-6ae0-490e-b792-4b9d30671ea3",
        "meta": {
          "profile": [
            "http://hl7.eu/fhir/laboratory/StructureDefinition/Observation-resultslab-eu-lab"
          ]
        },
        "performer": [
          {
            "display": "The Central European Lab"
          }
        ],
        "category": [
          {
            "coding": [
              {
                "system": "http://terminology.hl7.org/CodeSystem/observation-category",
                "code": "laboratory"
              }
            ]
          }
        ],
        "code": {
          "coding": [
            {
              "code": "2160-0",
              "system": "http://loinc.org",
              "display": "Creatinine [Mass/volume] in Serum or Plasma"
            }
          ],
          "text": "Creatinine [Mass/volume] in Serum or Plasma"
        },
        "valueQuantity": {
          "system": "http://unitsofmeasure.org",
          "value": 0.8,
          "unit": "mg/dL",
          "code": "mg/dL"
        },
        "referenceRange": [
          {
            "low": {
              "value": 0.9,
              "code": "mg/dL",
              "system": "http://unitsofmeasure.org"
            }
          },
          {
            "high": {
              "value": 1.3,
              "code": "mg/dL",
              "system": "http://unitsofmeasure.org"
            }
          }
        ],
        "interpretation": [
          {
            "coding": [
              {
                "code": "L",
                "system": "http://terminology.hl7.org/CodeSystem/v3-ObservationInterpretation",
                "display": "Low"
              }
            ]
          }
        ],
        "text": {
          "status": "generated",
          "div": "<div xmlns=\"http://www.w3.org/1999/xhtml\"><table class=\"hl7__eu__lab__report\"><tr><th>Test</th><th>30-Jan-2025</th><th>Reference&#xA0;Range</th><th>Unit</th></tr><tr><td>Creatinine [Mass/volume] in Serum or Plasma</td><td>0.8</td><td>0.9 - 1.3</td><td>L</td><td>mg/dL</td></tr></table></div>"
        },
        "status": "final",
        "subject": {
          "reference": "urn:uuid:bea383bf-f0c4-400e-8ff1-2b07e17c9f4b",
          "display": "Timothy Smith"
        },
        "effectiveDateTime": "2025-01-30T03:53:59Z",
        "specimen": {
          "reference": "urn:uuid:9686254a-9af2-4e1b-9fe5-c18f664daa05"
        }
      }
    },
    {
      "fullUrl": "urn:uuid:4b8dfb19-650f-41d2-a393-76203ce6f5da",
      "resource": {
        "resourceType": "Observation",
        "id": "4b8dfb19-650f-41d2-a393-76203ce6f5da",
        "meta": {
          "profile": [
            "http://hl7.eu/fhir/laboratory/StructureDefinition/Observation-resultslab-eu-lab"
          ]
        },
        "performer": [
          {
            "display": "The Central European Lab"
          }
        ],
        "category": [
          {
            "coding": [
              {
                "system": "http://terminology.hl7.org/CodeSystem/observation-category",
                "code": "laboratory"
              }
            ]
          }
        ],
        "code": {
          "coding": [
            {
              "code": "17861-6",
              "system": "http://loinc.org",
              "display": "Calcium [Mass/volume] in Serum or Plasma"
            }
          ],
          "text": "Calcium [Mass/volume] in Serum or Plasma"
        },
        "valueQuantity": {
          "system": "http://unitsofmeasure.org",
          "value": 9,
          "unit": "mg/dL",
          "code": "mg/dL"
        },
        "referenceRange": [
          {
            "low": {
              "value": 8.5,
              "code": "mg/dL",
              "system": "http://unitsofmeasure.org"
            }
          },
          {
            "high": {
              "value": 10.5,
              "code": "mg/dL",
              "system": "http://unitsofmeasure.org"
            }
          }
        ],
        "text": {
          "status": "generated",
          "div": "<div xmlns=\"http://www.w3.org/1999/xhtml\"><table class=\"hl7__eu__lab__report\"><tr><th>Test</th><th>30-Jan-2025</th><th>Reference&#xA0;Range</th><th>Unit</th></tr><tr><td>Calcium [Mass/volume] in Serum or Plasma</td><td>9.0</td><td>8.5 - 10.5</td><td></td><td>mg/dL</td></tr></table></div>"
        },
        "status": "final",
        "subject": {
          "reference": "urn:uuid:bea383bf-f0c4-400e-8ff1-2b07e17c9f4b",
          "display": "Timothy Smith"
        },
        "effectiveDateTime": "2025-01-30T03:53:59Z",
        "specimen": {
          "reference": "urn:uuid:9686254a-9af2-4e1b-9fe5-c18f664daa05"
        }
      }
    },
    {
      "fullUrl": "urn:uuid:6df3deb3-363d-4afe-a4b1-7acb5f00e500",
      "resource": {
        "resourceType": "Observation",
        "id": "6df3deb3-363d-4afe-a4b1-7acb5f00e500",
        "meta": {
          "profile": [
            "http://hl7.eu/fhir/laboratory/StructureDefinition/Observation-resultslab-eu-lab"
          ]
        },
        "performer": [
          {
            "display": "The Central European Lab"
          }
        ],
        "category": [
          {
            "coding": [
              {
                "system": "http://terminology.hl7.org/CodeSystem/observation-category",
                "code": "laboratory"
              }
            ]
          }
        ],
        "code": {
          "coding": [
            {
              "code": "2951-2",
              "system": "http://loinc.org",
              "display": "Sodium [Moles/volume] in Serum or Plasma"
            }
          ],
          "text": "Sodium [Moles/volume] in Serum or Plasma"
        },
        "valueQuantity": {
          "system": "http://unitsofmeasure.org",
          "value": 140.7,
          "unit": "mmol/L",
          "code": "mmol/L"
        },
        "referenceRange": [
          {
            "low": {
              "value": 135,
              "code": "mmol/L",
              "system": "http://unitsofmeasure.org"
            }
          },
          {
            "high": {
              "value": 145,
              "code": "mmol/L",
              "system": "http://unitsofmeasure.org"
            }
          }
        ],
        "text": {
          "status": "generated",
          "div": "<div xmlns=\"http://www.w3.org/1999/xhtml\"><table class=\"hl7__eu__lab__report\"><tr><th>Test</th><th>30-Jan-2025</th><th>Reference&#xA0;Range</th><th>Unit</th></tr><tr><td>Sodium [Moles/volume] in Serum or Plasma</td><td>140.7</td><td>135 - 145</td><td></td><td>mmol/L</td></tr></table></div>"
        },
        "status": "final",
        "subject": {
          "reference": "urn:uuid:bea383bf-f0c4-400e-8ff1-2b07e17c9f4b",
          "display": "Timothy Smith"
        },
        "effectiveDateTime": "2025-01-30T03:53:59Z",
        "specimen": {
          "reference": "urn:uuid:9686254a-9af2-4e1b-9fe5-c18f664daa05"
        }
      }
    },
    {
      "fullUrl": "urn:uuid:263aa89c-016c-4e4f-99a2-669d8d452000",
      "resource": {
        "resourceType": "Observation",
        "id": "263aa89c-016c-4e4f-99a2-669d8d452000",
        "meta": {
          "profile": [
            "http://hl7.eu/fhir/laboratory/StructureDefinition/Observation-resultslab-eu-lab"
          ]
        },
        "performer": [
          {
            "display": "The Central European Lab"
          }
        ],
        "category": [
          {
            "coding": [
              {
                "system": "http://terminology.hl7.org/CodeSystem/observation-category",
                "code": "laboratory"
              }
            ]
          }
        ],
        "code": {
          "coding": [
            {
              "code": "2823-3",
              "system": "http://loinc.org",
              "display": "Potassium [Moles/volume] in Serum or Plasma"
            }
          ],
          "text": "Potassium [Moles/volume] in Serum or Plasma"
        },
        "valueQuantity": {
          "system": "http://unitsofmeasure.org",
          "value": 4.5,
          "unit": "mmol/L",
          "code": "mmol/L"
        },
        "referenceRange": [
          {
            "low": {
              "value": 3.5,
              "code": "mmol/L",
              "system": "http://unitsofmeasure.org"
            }
          },
          {
            "high": {
              "value": 5.1,
              "code": "mmol/L",
              "system": "http://unitsofmeasure.org"
            }
          }
        ],
        "text": {
          "status": "generated",
          "div": "<div xmlns=\"http://www.w3.org/1999/xhtml\"><table class=\"hl7__eu__lab__report\"><tr><th>Test</th><th>30-Jan-2025</th><th>Reference&#xA0;Range</th><th>Unit</th></tr><tr><td>Potassium [Moles/volume] in Serum or Plasma</td><td>4.5</td><td>3.5 - 5.1</td><td></td><td>mmol/L</td></tr></table></div>"
        },
        "status": "final",
        "subject": {
          "reference": "urn:uuid:bea383bf-f0c4-400e-8ff1-2b07e17c9f4b",
          "display": "Timothy Smith"
        },
        "effectiveDateTime": "2025-01-30T03:53:59Z",
        "specimen": {
          "reference": "urn:uuid:9686254a-9af2-4e1b-9fe5-c18f664daa05"
        }
      }
    },
    {
      "fullUrl": "urn:uuid:a42f23b6-651c-4d90-be12-4c7f0d1e66b1",
      "resource": {
        "resourceType": "Observation",
        "id": "a42f23b6-651c-4d90-be12-4c7f0d1e66b1",
        "meta": {
          "profile": [
            "http://hl7.eu/fhir/laboratory/StructureDefinition/Observation-resultslab-eu-lab"
          ]
        },
        "performer": [
          {
            "display": "The Central European Lab"
          }
        ],
        "category": [
          {
            "coding": [
              {
                "system": "http://terminology.hl7.org/CodeSystem/observation-category",
                "code": "laboratory"
              }
            ]
          }
        ],
        "code": {
          "coding": [
            {
              "code": "2075-0",
              "system": "http://loinc.org",
              "display": "Chloride [Moles/volume] in Serum or Plasma"
            }
          ],
          "text": "Chloride [Moles/volume] in Serum or Plasma"
        },
        "valueQuantity": {
          "system": "http://unitsofmeasure.org",
          "value": 106.3,
          "unit": "mmol/L",
          "code": "mmol/L"
        },
        "referenceRange": [
          {
            "low": {
              "value": 98,
              "code": "mmol/L",
              "system": "http://unitsofmeasure.org"
            }
          },
          {
            "high": {
              "value": 108,
              "code": "mmol/L",
              "system": "http://unitsofmeasure.org"
            }
          }
        ],
        "text": {
          "status": "generated",
          "div": "<div xmlns=\"http://www.w3.org/1999/xhtml\"><table class=\"hl7__eu__lab__report\"><tr><th>Test</th><th>30-Jan-2025</th><th>Reference&#xA0;Range</th><th>Unit</th></tr><tr><td>Chloride [Moles/volume] in Serum or Plasma</td><td>106.3</td><td>98 - 108</td><td></td><td>mmol/L</td></tr></table></div>"
        },
        "status": "final",
        "subject": {
          "reference": "urn:uuid:bea383bf-f0c4-400e-8ff1-2b07e17c9f4b",
          "display": "Timothy Smith"
        },
        "effectiveDateTime": "2025-01-30T03:53:59Z",
        "specimen": {
          "reference": "urn:uuid:9686254a-9af2-4e1b-9fe5-c18f664daa05"
        }
      }
    },
    {
      "fullUrl": "urn:uuid:072b2313-7e83-4336-9dfe-e5f9f00a99f0",
      "resource": {
        "resourceType": "Observation",
        "id": "072b2313-7e83-4336-9dfe-e5f9f00a99f0",
        "meta": {
          "profile": [
            "http://hl7.eu/fhir/laboratory/StructureDefinition/Observation-resultslab-eu-lab"
          ]
        },
        "performer": [
          {
            "display": "The Central European Lab"
          }
        ],
        "category": [
          {
            "coding": [
              {
                "system": "http://terminology.hl7.org/CodeSystem/observation-category",
                "code": "laboratory"
              }
            ]
          }
        ],
        "code": {
          "coding": [
            {
              "code": "2028-9",
              "system": "http://loinc.org",
              "display": "Carbon dioxide, total [Moles/volume] in Serum or Plasma"
            }
          ],
          "text": "Carbon dioxide, total [Moles/volume] in Serum or Plasma"
        },
        "valueQuantity": {
          "system": "http://unitsofmeasure.org",
          "value": 25.6,
          "unit": "mmol/L",
          "code": "mmol/L"
        },
        "referenceRange": [
          {
            "low": {
              "value": 22,
              "code": "mmol/L",
              "system": "http://unitsofmeasure.org"
            }
          },
          {
            "high": {
              "value": 32,
              "code": "mmol/L",
              "system": "http://unitsofmeasure.org"
            }
          }
        ],
        "text": {
          "status": "generated",
          "div": "<div xmlns=\"http://www.w3.org/1999/xhtml\"><table class=\"hl7__eu__lab__report\"><tr><th>Test</th><th>30-Jan-2025</th><th>Reference&#xA0;Range</th><th>Unit</th></tr><tr><td>Carbon dioxide, total [Moles/volume] in Serum or Plasma</td><td>25.6</td><td>22 - 32</td><td></td><td>mmol/L</td></tr></table></div>"
        },
        "status": "final",
        "subject": {
          "reference": "urn:uuid:bea383bf-f0c4-400e-8ff1-2b07e17c9f4b",
          "display": "Timothy Smith"
        },
        "effectiveDateTime": "2025-01-30T03:53:59Z",
        "specimen": {
          "reference": "urn:uuid:9686254a-9af2-4e1b-9fe5-c18f664daa05"
        }
      }
    },
    {
      "fullUrl": "urn:uuid:d3faa067-0f23-4ef1-bcea-ab12f6466741",
      "resource": {
        "resourceType": "Observation",
        "id": "d3faa067-0f23-4ef1-bcea-ab12f6466741",
        "meta": {
          "profile": [
            "http://hl7.eu/fhir/laboratory/StructureDefinition/Observation-resultslab-eu-lab"
          ]
        },
        "performer": [
          {
            "display": "The Central European Lab"
          }
        ],
        "category": [
          {
            "coding": [
              {
                "system": "http://terminology.hl7.org/CodeSystem/observation-category",
                "code": "laboratory"
              }
            ]
          }
        ],
        "code": {
          "coding": [
            {
              "code": "2885-2",
              "system": "http://loinc.org",
              "display": "Protein [Mass/volume] in Serum or Plasma"
            }
          ],
          "text": "Protein [Mass/volume] in Serum or Plasma"
        },
        "valueQuantity": {
          "system": "http://unitsofmeasure.org",
          "value": 8.2,
          "unit": "g/dL",
          "code": "g/dL"
        },
        "referenceRange": [
          {
            "low": {
              "value": 6,
              "code": "g/dL",
              "system": "http://unitsofmeasure.org"
            }
          },
          {
            "high": {
              "value": 8.3,
              "code": "g/dL",
              "system": "http://unitsofmeasure.org"
            }
          }
        ],
        "text": {
          "status": "generated",
          "div": "<div xmlns=\"http://www.w3.org/1999/xhtml\"><table class=\"hl7__eu__lab__report\"><tr><th>Test</th><th>30-Jan-2025</th><th>Reference&#xA0;Range</th><th>Unit</th></tr><tr><td>Protein [Mass/volume] in Serum or Plasma</td><td>8.2</td><td>6 - 8.3</td><td></td><td>g/dL</td></tr></table></div>"
        },
        "status": "final",
        "subject": {
          "reference": "urn:uuid:bea383bf-f0c4-400e-8ff1-2b07e17c9f4b",
          "display": "Timothy Smith"
        },
        "effectiveDateTime": "2025-01-30T03:53:59Z",
        "specimen": {
          "reference": "urn:uuid:9686254a-9af2-4e1b-9fe5-c18f664daa05"
        }
      }
    },
    {
      "fullUrl": "urn:uuid:724c03dd-ef60-43d6-9506-3c0457b824d8",
      "resource": {
        "resourceType": "Observation",
        "id": "724c03dd-ef60-43d6-9506-3c0457b824d8",
        "meta": {
          "profile": [
            "http://hl7.eu/fhir/laboratory/StructureDefinition/Observation-resultslab-eu-lab"
          ]
        },
        "performer": [
          {
            "display": "The Central European Lab"
          }
        ],
        "category": [
          {
            "coding": [
              {
                "system": "http://terminology.hl7.org/CodeSystem/observation-category",
                "code": "laboratory"
              }
            ]
          }
        ],
        "code": {
          "coding": [
            {
              "code": "1751-7",
              "system": "http://loinc.org",
              "display": "Albumin [Mass/volume] in Serum or Plasma"
            }
          ],
          "text": "Albumin [Mass/volume] in Serum or Plasma"
        },
        "valueQuantity": {
          "system": "http://unitsofmeasure.org",
          "value": 4.6,
          "unit": "g/dL",
          "code": "g/dL"
        },
        "referenceRange": [
          {
            "low": {
              "value": 3.5,
              "code": "g/dL",
              "system": "http://unitsofmeasure.org"
            }
          },
          {
            "high": {
              "value": 5.5,
              "code": "g/dL",
              "system": "http://unitsofmeasure.org"
            }
          }
        ],
        "text": {
          "status": "generated",
          "div": "<div xmlns=\"http://www.w3.org/1999/xhtml\"><table class=\"hl7__eu__lab__report\"><tr><th>Test</th><th>30-Jan-2025</th><th>Reference&#xA0;Range</th><th>Unit</th></tr><tr><td>Albumin [Mass/volume] in Serum or Plasma</td><td>4.6</td><td>3.5 - 5.5</td><td></td><td>g/dL</td></tr></table></div>"
        },
        "status": "final",
        "subject": {
          "reference": "urn:uuid:bea383bf-f0c4-400e-8ff1-2b07e17c9f4b",
          "display": "Timothy Smith"
        },
        "effectiveDateTime": "2025-01-30T03:53:59Z",
        "specimen": {
          "reference": "urn:uuid:9686254a-9af2-4e1b-9fe5-c18f664daa05"
        }
      }
    },
    {
      "fullUrl": "urn:uuid:2b6e9e32-0c06-4feb-b044-b1b8de4c283f",
      "resource": {
        "resourceType": "Observation",
        "id": "2b6e9e32-0c06-4feb-b044-b1b8de4c283f",
        "meta": {
          "profile": [
            "http://hl7.eu/fhir/laboratory/StructureDefinition/Observation-resultslab-eu-lab"
          ]
        },
        "performer": [
          {
            "display": "The Central European Lab"
          }
        ],
        "category": [
          {
            "coding": [
              {
                "system": "http://terminology.hl7.org/CodeSystem/observation-category",
                "code": "laboratory"
              }
            ]
          }
        ],
        "code": {
          "coding": [
            {
              "code": "1975-2",
              "system": "http://loinc.org",
              "display": "Bilirubin.total [Mass/volume] in Serum or Plasma"
            }
          ],
          "text": "Bilirubin.total [Mass/volume] in Serum or Plasma"
        },
        "valueQuantity": {
          "system": "http://unitsofmeasure.org",
          "value": 0.5,
          "unit": "mg/dL",
          "code": "mg/dL"
        },
        "referenceRange": [
          {
            "low": {
              "value": 0.3,
              "code": "mg/dL",
              "system": "http://unitsofmeasure.org"
            }
          },
          {
            "high": {
              "value": 1.2,
              "code": "mg/dL",
              "system": "http://unitsofmeasure.org"
            }
          }
        ],
        "text": {
          "status": "generated",
          "div": "<div xmlns=\"http://www.w3.org/1999/xhtml\"><table class=\"hl7__eu__lab__report\"><tr><th>Test</th><th>30-Jan-2025</th><th>Reference&#xA0;Range</th><th>Unit</th></tr><tr><td>Bilirubin.total [Mass/volume] in Serum or Plasma</td><td>0.5</td><td>0.3 - 1.2</td><td></td><td>mg/dL</td></tr></table></div>"
        },
        "status": "final",
        "subject": {
          "reference": "urn:uuid:bea383bf-f0c4-400e-8ff1-2b07e17c9f4b",
          "display": "Timothy Smith"
        },
        "effectiveDateTime": "2025-01-30T03:53:59Z",
        "specimen": {
          "reference": "urn:uuid:9686254a-9af2-4e1b-9fe5-c18f664daa05"
        }
      }
    },
    {
      "fullUrl": "urn:uuid:35b50184-d97b-44cb-a0a8-0318e3d67f20",
      "resource": {
        "resourceType": "Observation",
        "id": "35b50184-d97b-44cb-a0a8-0318e3d67f20",
        "meta": {
          "profile": [
            "http://hl7.eu/fhir/laboratory/StructureDefinition/Observation-resultslab-eu-lab"
          ]
        },
        "performer": [
          {
            "display": "The Central European Lab"
          }
        ],
        "category": [
          {
            "coding": [
              {
                "system": "http://terminology.hl7.org/CodeSystem/observation-category",
                "code": "laboratory"
              }
            ]
          }
        ],
        "code": {
          "coding": [
            {
              "code": "6768-6",
              "system": "http://loinc.org",
              "display": "Alkaline phosphatase [Enzymatic activity/volume] in Serum or Plasma"
            }
          ],
          "text": "Alkaline phosphatase [Enzymatic activity/volume] in Serum or Plasma"
        },
        "valueQuantity": {
          "system": "http://unitsofmeasure.org",
          "value": 68.1,
          "unit": "U/L",
          "code": "U/L"
        },
        "referenceRange": [
          {
            "low": {
              "value": 40,
              "code": "U/L",
              "system": "http://unitsofmeasure.org"
            }
          },
          {
            "high": {
              "value": 117,
              "code": "U/L",
              "system": "http://unitsofmeasure.org"
            }
          }
        ],
        "text": {
          "status": "generated",
          "div": "<div xmlns=\"http://www.w3.org/1999/xhtml\"><table class=\"hl7__eu__lab__report\"><tr><th>Test</th><th>30-Jan-2025</th><th>Reference&#xA0;Range</th><th>Unit</th></tr><tr><td>Alkaline phosphatase [Enzymatic activity/volume] in Serum or Plasma</td><td>68.1</td><td>40 - 117</td><td></td><td>U/L</td></tr></table></div>"
        },
        "status": "final",
        "subject": {
          "reference": "urn:uuid:bea383bf-f0c4-400e-8ff1-2b07e17c9f4b",
          "display": "Timothy Smith"
        },
        "effectiveDateTime": "2025-01-30T03:53:59Z",
        "specimen": {
          "reference": "urn:uuid:9686254a-9af2-4e1b-9fe5-c18f664daa05"
        }
      }
    },
    {
      "fullUrl": "urn:uuid:95f1e753-7d98-4f59-b7c2-cb8520dc310e",
      "resource": {
        "resourceType": "Observation",
        "id": "95f1e753-7d98-4f59-b7c2-cb8520dc310e",
        "meta": {
          "profile": [
            "http://hl7.eu/fhir/laboratory/StructureDefinition/Observation-resultslab-eu-lab"
          ]
        },
        "performer": [
          {
            "display": "The Central European Lab"
          }
        ],
        "category": [
          {
            "coding": [
              {
                "system": "http://terminology.hl7.org/CodeSystem/observation-category",
                "code": "laboratory"
              }
            ]
          }
        ],
        "code": {
          "coding": [
            {
              "code": "1742-6",
              "system": "http://loinc.org",
              "display": "Alanine aminotransferase [Enzymatic activity/volume] in Serum or Plasma"
            }
          ],
          "text": "Alanine aminotransferase [Enzymatic activity/volume] in Serum or Plasma"
        },
        "valueQuantity": {
          "system": "http://unitsofmeasure.org",
          "value": 32.2,
          "unit": "U/L",
          "code": "U/L"
        },
        "referenceRange": [
          {
            "low": {
              "value": 10,
              "code": "U/L",
              "system": "http://unitsofmeasure.org"
            }
          },
          {
            "high": {
              "value": 66,
              "code": "U/L",
              "system": "http://unitsofmeasure.org"
            }
          }
        ],
        "text": {
          "status": "generated",
          "div": "<div xmlns=\"http://www.w3.org/1999/xhtml\"><table class=\"hl7__eu__lab__report\"><tr><th>Test</th><th>30-Jan-2025</th><th>Reference&#xA0;Range</th><th>Unit</th></tr><tr><td>Alanine aminotransferase [Enzymatic activity/volume] in Serum or Plasma</td><td>32.2</td><td>10 - 66</td><td></td><td>U/L</td></tr></table></div>"
        },
        "status": "final",
        "subject": {
          "reference": "urn:uuid:bea383bf-f0c4-400e-8ff1-2b07e17c9f4b",
          "display": "Timothy Smith"
        },
        "effectiveDateTime": "2025-01-30T03:53:59Z",
        "specimen": {
          "reference": "urn:uuid:9686254a-9af2-4e1b-9fe5-c18f664daa05"
        }
      }
    },
    {
      "fullUrl": "urn:uuid:a158bc84-d555-46b7-9ef3-a568a87e4a10",
      "resource": {
        "resourceType": "Observation",
        "id": "a158bc84-d555-46b7-9ef3-a568a87e4a10",
        "meta": {
          "profile": [
            "http://hl7.eu/fhir/laboratory/StructureDefinition/Observation-resultslab-eu-lab"
          ]
        },
        "performer": [
          {
            "display": "The Central European Lab"
          }
        ],
        "category": [
          {
            "coding": [
              {
                "system": "http://terminology.hl7.org/CodeSystem/observation-category",
                "code": "laboratory"
              }
            ]
          }
        ],
        "code": {
          "coding": [
            {
              "code": "1920-8",
              "system": "http://loinc.org",
              "display": "Aspartate aminotransferase [Enzymatic activity/volume] in Serum or Plasma"
            }
          ],
          "text": "Aspartate aminotransferase [Enzymatic activity/volume] in Serum or Plasma"
        },
        "valueQuantity": {
          "system": "http://unitsofmeasure.org",
          "value": 24.6,
          "unit": "U/L",
          "code": "U/L"
        },
        "referenceRange": [
          {
            "low": {
              "value": 10,
              "code": "U/L",
              "system": "http://unitsofmeasure.org"
            }
          },
          {
            "high": {
              "value": 40,
              "code": "U/L",
              "system": "http://unitsofmeasure.org"
            }
          }
        ],
        "text": {
          "status": "generated",
          "div": "<div xmlns=\"http://www.w3.org/1999/xhtml\"><table class=\"hl7__eu__lab__report\"><tr><th>Test</th><th>30-Jan-2025</th><th>Reference&#xA0;Range</th><th>Unit</th></tr><tr><td>Aspartate aminotransferase [Enzymatic activity/volume] in Serum or Plasma</td><td>24.6</td><td>10 - 40</td><td></td><td>U/L</td></tr></table></div>"
        },
        "status": "final",
        "subject": {
          "reference": "urn:uuid:bea383bf-f0c4-400e-8ff1-2b07e17c9f4b",
          "display": "Timothy Smith"
        },
        "effectiveDateTime": "2025-01-30T03:53:59Z",
        "specimen": {
          "reference": "urn:uuid:9686254a-9af2-4e1b-9fe5-c18f664daa05"
        }
      }
    },
    {
      "fullUrl": "urn:uuid:f17629cd-6598-40e7-a6a7-8697fd0e9abf",
      "resource": {
        "resourceType": "Observation",
        "id": "f17629cd-6598-40e7-a6a7-8697fd0e9abf",
        "meta": {
          "profile": [
            "http://hl7.eu/fhir/laboratory/StructureDefinition/Observation-resultslab-eu-lab"
          ]
        },
        "performer": [
          {
            "display": "The Central European Lab"
          }
        ],
        "category": [
          {
            "coding": [
              {
                "system": "http://terminology.hl7.org/CodeSystem/observation-category",
                "code": "laboratory"
              }
            ]
          }
        ],
        "code": {
          "coding": [
            {
              "code": "19123-9",
              "system": "http://loinc.org",
              "display": "Magnesium [Mass/volume] in Serum or Plasma"
            }
          ],
          "text": "Magnesium [Mass/volume] in Serum or Plasma"
        },
        "valueQuantity": {
          "system": "http://unitsofmeasure.org",
          "value": 2.2,
          "unit": "mg/dL",
          "code": "mg/dL"
        },
        "referenceRange": [
          {
            "low": {
              "value": 1.6,
              "code": "mg/dL",
              "system": "http://unitsofmeasure.org"
            }
          },
          {
            "high": {
              "value": 2.6,
              "code": "mg/dL",
              "system": "http://unitsofmeasure.org"
            }
          }
        ],
        "text": {
          "status": "generated",
          "div": "<div xmlns=\"http://www.w3.org/1999/xhtml\"><table class=\"hl7__eu__lab__report\"><tr><th>Test</th><th>30-Jan-2025</th><th>Reference&#xA0;Range</th><th>Unit</th></tr><tr><td>Magnesium [Mass/volume] in Serum or Plasma</td><td>2.2</td><td>1.6 - 2.6</td><td></td><td>mg/dL</td></tr></table></div>"
        },
        "status": "final",
        "subject": {
          "reference": "urn:uuid:bea383bf-f0c4-400e-8ff1-2b07e17c9f4b",
          "display": "Timothy Smith"
        },
        "effectiveDateTime": "2025-01-30T03:53:59Z",
        "specimen": {
          "reference": "urn:uuid:9686254a-9af2-4e1b-9fe5-c18f664daa05"
        }
      }
    },
    {
      "fullUrl": "urn:uuid:caffdd6d-3a0a-456d-ac8c-0d6e182e0dfa",
      "resource": {
        "resourceType": "Observation",
        "id": "caffdd6d-3a0a-456d-ac8c-0d6e182e0dfa",
        "meta": {
          "profile": [
            "http://hl7.eu/fhir/laboratory/StructureDefinition/Observation-resultslab-eu-lab"
          ]
        },
        "performer": [
          {
            "display": "The Central European Lab"
          }
        ],
        "category": [
          {
            "coding": [
              {
                "system": "http://terminology.hl7.org/CodeSystem/observation-category",
                "code": "laboratory"
              }
            ]
          }
        ],
        "code": {
          "coding": [
            {
              "code": "2093-3",
              "system": "http://loinc.org",
              "display": "Cholesterol [Mass/volume] in Serum or Plasma"
            }
          ],
          "text": "Cholesterol [Mass/volume] in Serum or Plasma"
        },
        "valueQuantity": {
          "system": "http://unitsofmeasure.org",
          "value": 252,
          "unit": "mg/dL",
          "code": "mg/dL"
        },
        "referenceRange": [
          {
            "low": {
              "value": 0,
              "code": "mg/dL",
              "system": "http://unitsofmeasure.org"
            }
          },
          {
            "high": {
              "value": 200,
              "code": "mg/dL",
              "system": "http://unitsofmeasure.org"
            }
          }
        ],
        "interpretation": [
          {
            "coding": [
              {
                "code": "H",
                "system": "http://terminology.hl7.org/CodeSystem/v3-ObservationInterpretation",
                "display": "High"
              }
            ]
          }
        ],
        "text": {
          "status": "generated",
          "div": "<div xmlns=\"http://www.w3.org/1999/xhtml\"><table class=\"hl7__eu__lab__report\"><tr><th>Test</th><th>30-Jan-2025</th><th>Reference&#xA0;Range</th><th>Unit</th></tr><tr><td>Cholesterol [Mass/volume] in Serum or Plasma</td><td>252.0</td><td>0 - 200</td><td>H</td><td>mg/dL</td></tr></table></div>"
        },
        "status": "final",
        "subject": {
          "reference": "urn:uuid:bea383bf-f0c4-400e-8ff1-2b07e17c9f4b",
          "display": "Timothy Smith"
        },
        "effectiveDateTime": "2025-01-30T03:53:59Z",
        "specimen": {
          "reference": "urn:uuid:9686254a-9af2-4e1b-9fe5-c18f664daa05"
        }
      }
    },
    {
      "fullUrl": "urn:uuid:672dd9b3-7d2c-418b-99dc-b1f28b33ed67",
      "resource": {
        "resourceType": "Observation",
        "id": "672dd9b3-7d2c-418b-99dc-b1f28b33ed67",
        "meta": {
          "profile": [
            "http://hl7.eu/fhir/laboratory/StructureDefinition/Observation-resultslab-eu-lab"
          ]
        },
        "performer": [
          {
            "display": "The Central European Lab"
          }
        ],
        "category": [
          {
            "coding": [
              {
                "system": "http://terminology.hl7.org/CodeSystem/observation-category",
                "code": "laboratory"
              }
            ]
          }
        ],
        "code": {
          "coding": [
            {
              "code": "2571-8",
              "system": "http://loinc.org",
              "display": "Triglyceride [Mass/volume] in Serum or Plasma"
            }
          ],
          "text": "Triglyceride [Mass/volume] in Serum or Plasma"
        },
        "valueQuantity": {
          "system": "http://unitsofmeasure.org",
          "value": 308.3,
          "unit": "mg/dL",
          "code": "mg/dL"
        },
        "referenceRange": [
          {
            "low": {
              "value": 0,
              "code": "mg/dL",
              "system": "http://unitsofmeasure.org"
            }
          },
          {
            "high": {
              "value": 199,
              "code": "mg/dL",
              "system": "http://unitsofmeasure.org"
            }
          }
        ],
        "interpretation": [
          {
            "coding": [
              {
                "code": "H",
                "system": "http://terminology.hl7.org/CodeSystem/v3-ObservationInterpretation",
                "display": "High"
              }
            ]
          }
        ],
        "text": {
          "status": "generated",
          "div": "<div xmlns=\"http://www.w3.org/1999/xhtml\"><table class=\"hl7__eu__lab__report\"><tr><th>Test</th><th>30-Jan-2025</th><th>Reference&#xA0;Range</th><th>Unit</th></tr><tr><td>Triglyceride [Mass/volume] in Serum or Plasma</td><td>308.3</td><td>0 - 199</td><td>H</td><td>mg/dL</td></tr></table></div>"
        },
        "status": "final",
        "subject": {
          "reference": "urn:uuid:bea383bf-f0c4-400e-8ff1-2b07e17c9f4b",
          "display": "Timothy Smith"
        },
        "effectiveDateTime": "2025-01-30T03:53:59Z",
        "specimen": {
          "reference": "urn:uuid:9686254a-9af2-4e1b-9fe5-c18f664daa05"
        }
      }
    },
    {
      "fullUrl": "urn:uuid:95c9bef8-e481-4f94-9c21-b91b2e0efd19",
      "resource": {
        "resourceType": "Observation",
        "id": "95c9bef8-e481-4f94-9c21-b91b2e0efd19",
        "meta": {
          "profile": [
            "http://hl7.eu/fhir/laboratory/StructureDefinition/Observation-resultslab-eu-lab"
          ]
        },
        "performer": [
          {
            "display": "The Central European Lab"
          }
        ],
        "category": [
          {
            "coding": [
              {
                "system": "http://terminology.hl7.org/CodeSystem/observation-category",
                "code": "laboratory"
              }
            ]
          }
        ],
        "code": {
          "coding": [
            {
              "code": "18262-6",
              "system": "http://loinc.org",
              "display": "Cholesterol in LDL [Mass/volume] in Serum or Plasma by Direct assay"
            }
          ],
          "text": "Cholesterol in LDL [Mass/volume] in Serum or Plasma by Direct assay"
        },
        "valueQuantity": {
          "system": "http://unitsofmeasure.org",
          "value": 150.4,
          "unit": "mg/dL",
          "code": "mg/dL"
        },
        "referenceRange": [
          {
            "low": {
              "value": 0,
              "code": "mg/dL",
              "system": "http://unitsofmeasure.org"
            }
          },
          {
            "high": {
              "value": 130,
              "code": "mg/dL",
              "system": "http://unitsofmeasure.org"
            }
          }
        ],
        "interpretation": [
          {
            "coding": [
              {
                "code": "H",
                "system": "http://terminology.hl7.org/CodeSystem/v3-ObservationInterpretation",
                "display": "High"
              }
            ]
          }
        ],
        "text": {
          "status": "generated",
          "div": "<div xmlns=\"http://www.w3.org/1999/xhtml\"><table class=\"hl7__eu__lab__report\"><tr><th>Test</th><th>30-Jan-2025</th><th>Reference&#xA0;Range</th><th>Unit</th></tr><tr><td>Cholesterol in LDL [Mass/volume] in Serum or Plasma by Direct assay</td><td>150.4</td><td>0 - 130</td><td>H</td><td>mg/dL</td></tr></table></div>"
        },
        "status": "final",
        "subject": {
          "reference": "urn:uuid:bea383bf-f0c4-400e-8ff1-2b07e17c9f4b",
          "display": "Timothy Smith"
        },
        "effectiveDateTime": "2025-01-30T03:53:59Z",
        "specimen": {
          "reference": "urn:uuid:9686254a-9af2-4e1b-9fe5-c18f664daa05"
        }
      }
    },
    {
      "fullUrl": "urn:uuid:e2266206-a4fd-4bf6-8fe0-b2ee98fb259f",
      "resource": {
        "resourceType": "Observation",
        "id": "e2266206-a4fd-4bf6-8fe0-b2ee98fb259f",
        "meta": {
          "profile": [
            "http://hl7.eu/fhir/laboratory/StructureDefinition/Observation-resultslab-eu-lab"
          ]
        },
        "performer": [
          {
            "display": "The Central European Lab"
          }
        ],
        "category": [
          {
            "coding": [
              {
                "system": "http://terminology.hl7.org/CodeSystem/observation-category",
                "code": "laboratory"
              }
            ]
          }
        ],
        "code": {
          "coding": [
            {
              "code": "2085-9",
              "system": "http://loinc.org",
              "display": "Cholesterol in HDL [Mass/volume] in Serum or Plasma"
            }
          ],
          "text": "Cholesterol in HDL [Mass/volume] in Serum or Plasma"
        },
        "valueQuantity": {
          "system": "http://unitsofmeasure.org",
          "value": 39.9,
          "unit": "mg/dL",
          "code": "mg/dL"
        },
        "referenceRange": [
          {
            "low": {
              "value": 40,
              "code": "mg/dL",
              "system": "http://unitsofmeasure.org"
            }
          },
          {
            "high": {
              "value": 100,
              "code": "mg/dL",
              "system": "http://unitsofmeasure.org"
            }
          }
        ],
        "interpretation": [
          {
            "coding": [
              {
                "code": "L",
                "system": "http://terminology.hl7.org/CodeSystem/v3-ObservationInterpretation",
                "display": "Low"
              }
            ]
          }
        ],
        "text": {
          "status": "generated",
          "div": "<div xmlns=\"http://www.w3.org/1999/xhtml\"><table class=\"hl7__eu__lab__report\"><tr><th>Test</th><th>30-Jan-2025</th><th>Reference&#xA0;Range</th><th>Unit</th></tr><tr><td>Cholesterol in HDL [Mass/volume] in Serum or Plasma</td><td>39.9</td><td>40 - 100</td><td>L</td><td>mg/dL</td></tr></table></div>"
        },
        "status": "final",
        "subject": {
          "reference": "urn:uuid:bea383bf-f0c4-400e-8ff1-2b07e17c9f4b",
          "display": "Timothy Smith"
        },
        "effectiveDateTime": "2025-01-30T03:53:59Z",
        "specimen": {
          "reference": "urn:uuid:9686254a-9af2-4e1b-9fe5-c18f664daa05"
        }
      }
    },
    {
      "fullUrl": "urn:uuid:c4c92576-97a2-455a-8abc-1017f8c2fd4e",
      "resource": {
        "resourceType": "Observation",
        "id": "c4c92576-97a2-455a-8abc-1017f8c2fd4e",
        "meta": {
          "profile": [
            "http://hl7.eu/fhir/laboratory/StructureDefinition/Observation-resultslab-eu-lab"
          ]
        },
        "performer": [
          {
            "display": "The Central European Lab"
          }
        ],
        "category": [
          {
            "coding": [
              {
                "system": "http://terminology.hl7.org/CodeSystem/observation-category",
                "code": "laboratory"
              }
            ]
          }
        ],
        "code": {
          "coding": [
            {
              "code": "4548-4",
              "system": "http://loinc.org",
              "display": "Hemoglobin A1c/Hemoglobin.total in Blood"
            }
          ],
          "text": "Hemoglobin A1c/Hemoglobin.total in Blood"
        },
        "valueQuantity": {
          "system": "http://unitsofmeasure.org",
          "value": 5.5,
          "unit": "%",
          "code": "%"
        },
        "referenceRange": [
          {
            "low": {
              "value": 4.5,
              "code": "%",
              "system": "http://unitsofmeasure.org"
            }
          },
          {
            "high": {
              "value": 6.4,
              "code": "%",
              "system": "http://unitsofmeasure.org"
            }
          }
        ],
        "text": {
          "status": "generated",
          "div": "<div xmlns=\"http://www.w3.org/1999/xhtml\"><table class=\"hl7__eu__lab__report\"><tr><th>Test</th><th>30-Jan-2025</th><th>Reference&#xA0;Range</th><th>Unit</th></tr><tr><td>Hemoglobin A1c/Hemoglobin.total in Blood</td><td>5.5</td><td>4.5 - 6.4</td><td></td><td>%</td></tr></table></div>"
        },
        "status": "final",
        "subject": {
          "reference": "urn:uuid:bea383bf-f0c4-400e-8ff1-2b07e17c9f4b",
          "display": "Timothy Smith"
        },
        "effectiveDateTime": "2025-01-30T03:53:59Z",
        "specimen": {
          "reference": "urn:uuid:09cdcb21-7d5b-40c4-ba6a-99119b31c640"
        }
      }
    },
    {
      "fullUrl": "urn:uuid:61e2763a-f096-4e1e-9ed6-d2eb4dec3706",
      "resource": {
        "resourceType": "Observation",
        "id": "61e2763a-f096-4e1e-9ed6-d2eb4dec3706",
        "meta": {
          "profile": [
            "http://hl7.eu/fhir/laboratory/StructureDefinition/Observation-resultslab-eu-lab"
          ]
        },
        "performer": [
          {
            "display": "The Central European Lab"
          }
        ],
        "category": [
          {
            "coding": [
              {
                "system": "http://terminology.hl7.org/CodeSystem/observation-category",
                "code": "laboratory"
              }
            ]
          }
        ],
        "code": {
          "coding": [
            {
              "code": "89579-7",
              "system": "http://loinc.org",
              "display": "Troponin I.cardiac [Mass/volume] in Serum or Plasma by High sensitivity method"
            }
          ],
          "text": "Troponin I.cardiac [Mass/volume] in Serum or Plasma by High sensitivity method"
        },
        "valueQuantity": {
          "system": "http://unitsofmeasure.org",
          "value": 0,
          "unit": "pg/mL",
          "code": "pg/mL"
        },
        "referenceRange": [
          {
            "low": {
              "value": 0,
              "code": "pg/mL",
              "system": "http://unitsofmeasure.org"
            }
          },
          {
            "high": {
              "value": 19.9,
              "code": "pg/mL",
              "system": "http://unitsofmeasure.org"
            }
          }
        ],
        "text": {
          "status": "generated",
          "div": "<div xmlns=\"http://www.w3.org/1999/xhtml\"><table class=\"hl7__eu__lab__report\"><tr><th>Test</th><th>30-Jan-2025</th><th>Reference&#xA0;Range</th><th>Unit</th></tr><tr><td>Troponin I.cardiac [Mass/volume] in Serum or Plasma by High sensitivity method</td><td>0.0</td><td>0 - 19.9</td><td></td><td>pg/mL</td></tr></table></div>"
        },
        "status": "final",
        "subject": {
          "reference": "urn:uuid:bea383bf-f0c4-400e-8ff1-2b07e17c9f4b",
          "display": "Timothy Smith"
        },
        "effectiveDateTime": "2025-01-30T03:53:59Z",
        "specimen": {
          "reference": "urn:uuid:9686254a-9af2-4e1b-9fe5-c18f664daa05"
        }
      }
    },
    {
      "fullUrl": "urn:uuid:228e1d13-c44d-4843-8ce9-91bd53035506",
      "resource": {
        "resourceType": "Observation",
        "id": "228e1d13-c44d-4843-8ce9-91bd53035506",
        "meta": {
          "profile": [
            "http://hl7.eu/fhir/laboratory/StructureDefinition/Observation-resultslab-eu-lab"
          ]
        },
        "performer": [
          {
            "display": "The Central European Lab"
          }
        ],
        "category": [
          {
            "coding": [
              {
                "system": "http://terminology.hl7.org/CodeSystem/observation-category",
                "code": "laboratory"
              }
            ]
          }
        ],
        "code": {
          "coding": [
            {
              "code": "2276-4",
              "system": "http://loinc.org",
              "display": "Ferritin [Mass/volume] in Serum or Plasma"
            }
          ],
          "text": "Ferritin [Mass/volume] in Serum or Plasma"
        },
        "valueQuantity": {
          "system": "http://unitsofmeasure.org",
          "value": 55.7,
          "unit": "ug/L",
          "code": "ug/L"
        },
        "referenceRange": [
          {
            "low": {
              "value": 30,
              "code": "ug/L",
              "system": "http://unitsofmeasure.org"
            }
          },
          {
            "high": {
              "value": 300,
              "code": "ug/L",
              "system": "http://unitsofmeasure.org"
            }
          }
        ],
        "text": {
          "status": "generated",
          "div": "<div xmlns=\"http://www.w3.org/1999/xhtml\"><table class=\"hl7__eu__lab__report\"><tr><th>Test</th><th>30-Jan-2025</th><th>Reference&#xA0;Range</th><th>Unit</th></tr><tr><td>Ferritin [Mass/volume] in Serum or Plasma</td><td>55.7</td><td>30 - 300</td><td></td><td>ug/L</td></tr></table></div>"
        },
        "status": "final",
        "subject": {
          "reference": "urn:uuid:bea383bf-f0c4-400e-8ff1-2b07e17c9f4b",
          "display": "Timothy Smith"
        },
        "effectiveDateTime": "2025-01-30T03:53:59Z",
        "specimen": {
          "reference": "urn:uuid:9686254a-9af2-4e1b-9fe5-c18f664daa05"
        }
      }
    },
    {
      "fullUrl": "urn:uuid:99f718d8-492d-4665-aace-a2e0ceb63e89",
      "resource": {
        "resourceType": "Observation",
        "id": "99f718d8-492d-4665-aace-a2e0ceb63e89",
        "meta": {
          "profile": [
            "http://hl7.eu/fhir/laboratory/StructureDefinition/Observation-resultslab-eu-lab"
          ]
        },
        "performer": [
          {
            "display": "The Central European Lab"
          }
        ],
        "category": [
          {
            "coding": [
              {
                "system": "http://terminology.hl7.org/CodeSystem/observation-category",
                "code": "laboratory"
              }
            ]
          }
        ],
        "code": {
          "coding": [
            {
              "code": "2498-4",
              "system": "http://loinc.org",
              "display": "Iron [Mass/volume] in Serum or Plasma"
            }
          ],
          "text": "Iron [Mass/volume] in Serum or Plasma"
        },
        "valueQuantity": {
          "system": "http://unitsofmeasure.org",
          "value": 85.4,
          "unit": "ug/dL",
          "code": "ug/dL"
        },
        "referenceRange": [
          {
            "low": {
              "value": 65,
              "code": "ug/dL",
              "system": "http://unitsofmeasure.org"
            }
          },
          {
            "high": {
              "value": 300,
              "code": "ug/dL",
              "system": "http://unitsofmeasure.org"
            }
          }
        ],
        "text": {
          "status": "generated",
          "div": "<div xmlns=\"http://www.w3.org/1999/xhtml\"><table class=\"hl7__eu__lab__report\"><tr><th>Test</th><th>30-Jan-2025</th><th>Reference&#xA0;Range</th><th>Unit</th></tr><tr><td>Iron [Mass/volume] in Serum or Plasma</td><td>85.4</td><td>65 - 300</td><td></td><td>ug/dL</td></tr></table></div>"
        },
        "status": "final",
        "subject": {
          "reference": "urn:uuid:bea383bf-f0c4-400e-8ff1-2b07e17c9f4b",
          "display": "Timothy Smith"
        },
        "effectiveDateTime": "2025-01-30T03:53:59Z",
        "specimen": {
          "reference": "urn:uuid:9686254a-9af2-4e1b-9fe5-c18f664daa05"
        }
      }
    },
    {
      "fullUrl": "urn:uuid:10c09014-54ea-4adb-83f5-231418e2a3ce",
      "resource": {
        "resourceType": "Observation",
        "id": "10c09014-54ea-4adb-83f5-231418e2a3ce",
        "meta": {
          "profile": [
            "http://hl7.eu/fhir/laboratory/StructureDefinition/Observation-resultslab-eu-lab"
          ]
        },
        "performer": [
          {
            "display": "The Central European Lab"
          }
        ],
        "category": [
          {
            "coding": [
              {
                "system": "http://terminology.hl7.org/CodeSystem/observation-category",
                "code": "laboratory"
              }
            ]
          }
        ],
        "code": {
          "coding": [
            {
              "code": "2500-7",
              "system": "http://loinc.org",
              "display": "Iron binding capacity [Mass/volume] in Serum or Plasma"
            }
          ],
          "text": "Iron binding capacity [Mass/volume] in Serum or Plasma"
        },
        "valueQuantity": {
          "system": "http://unitsofmeasure.org",
          "value": 413.7,
          "unit": "ug/dL",
          "code": "ug/dL"
        },
        "referenceRange": [
          {
            "low": {
              "value": 250,
              "code": "ug/dL",
              "system": "http://unitsofmeasure.org"
            }
          },
          {
            "high": {
              "value": 450,
              "code": "ug/dL",
              "system": "http://unitsofmeasure.org"
            }
          }
        ],
        "text": {
          "status": "generated",
          "div": "<div xmlns=\"http://www.w3.org/1999/xhtml\"><table class=\"hl7__eu__lab__report\"><tr><th>Test</th><th>30-Jan-2025</th><th>Reference&#xA0;Range</th><th>Unit</th></tr><tr><td>Iron binding capacity [Mass/volume] in Serum or Plasma</td><td>413.7</td><td>250 - 450</td><td></td><td>ug/dL</td></tr></table></div>"
        },
        "status": "final",
        "subject": {
          "reference": "urn:uuid:bea383bf-f0c4-400e-8ff1-2b07e17c9f4b",
          "display": "Timothy Smith"
        },
        "effectiveDateTime": "2025-01-30T03:53:59Z",
        "specimen": {
          "reference": "urn:uuid:9686254a-9af2-4e1b-9fe5-c18f664daa05"
        }
      }
    },
    {
      "fullUrl": "urn:uuid:a3a32140-de24-41f0-b275-7910f8a07144",
      "resource": {
        "resourceType": "Observation",
        "id": "a3a32140-de24-41f0-b275-7910f8a07144",
        "meta": {
          "profile": [
            "http://hl7.eu/fhir/laboratory/StructureDefinition/Observation-resultslab-eu-lab"
          ]
        },
        "performer": [
          {
            "display": "The Central European Lab"
          }
        ],
        "category": [
          {
            "coding": [
              {
                "system": "http://terminology.hl7.org/CodeSystem/observation-category",
                "code": "laboratory"
              }
            ]
          }
        ],
        "code": {
          "coding": [
            {
              "code": "2502-3",
              "system": "http://loinc.org",
              "display": "Iron saturation [Mass Fraction] in Serum or Plasma"
            }
          ],
          "text": "Iron saturation [Mass Fraction] in Serum or Plasma"
        },
        "valueQuantity": {
          "system": "http://unitsofmeasure.org",
          "value": 54.7,
          "unit": "%",
          "code": "%"
        },
        "referenceRange": [
          {
            "low": {
              "value": 15,
              "code": "%",
              "system": "http://unitsofmeasure.org"
            }
          },
          {
            "high": {
              "value": 45,
              "code": "%",
              "system": "http://unitsofmeasure.org"
            }
          }
        ],
        "interpretation": [
          {
            "coding": [
              {
                "code": "H",
                "system": "http://terminology.hl7.org/CodeSystem/v3-ObservationInterpretation",
                "display": "High"
              }
            ]
          }
        ],
        "text": {
          "status": "generated",
          "div": "<div xmlns=\"http://www.w3.org/1999/xhtml\"><table class=\"hl7__eu__lab__report\"><tr><th>Test</th><th>30-Jan-2025</th><th>Reference&#xA0;Range</th><th>Unit</th></tr><tr><td>Iron saturation [Mass Fraction] in Serum or Plasma</td><td>54.7</td><td>15 - 45</td><td>H</td><td>%</td></tr></table></div>"
        },
        "status": "final",
        "subject": {
          "reference": "urn:uuid:bea383bf-f0c4-400e-8ff1-2b07e17c9f4b",
          "display": "Timothy Smith"
        },
        "effectiveDateTime": "2025-01-30T03:53:59Z",
        "specimen": {
          "reference": "urn:uuid:9686254a-9af2-4e1b-9fe5-c18f664daa05"
        }
      }
    },
    {
      "fullUrl": "urn:uuid:847e7be1-5c10-417e-a5c7-c9a004bad797",
      "resource": {
        "resourceType": "Device",
        "id": "847e7be1-5c10-417e-a5c7-c9a004bad797",
        "deviceName": [
          {
            "name": "SYNDERAI Synthetic Generator",
            "type": "manufacturer-name"
          }
        ],
        "version": [
          {
            "value": "5.0"
          }
        ],
        "text": {
          "status": "generated",
          "div": "<div xmlns=\"http://www.w3.org/1999/xhtml\">SYNDERAI Synthetic Generator v5.0</div>"
        },
        "status": "active\"",
        "distinctIdentifier": "synderai-generator-50",
        "manufacturer": "SYNDERAI Project"
      }
    },
    {
      "fullUrl": "urn:uuid:d3969b84-7c86-480d-bc34-2c43d4a4603d",
      "resource": {
        "resourceType": "Provenance",
        "id": "d3969b84-7c86-480d-bc34-2c43d4a4603d",
        "target": [
          {
            "reference": "Patient/bea383bf-f0c4-400e-8ff1-2b07e17c9f4b"
          },
          {
            "reference": "Bundle/0e03ce56-3eb5-40d1-b155-4e54417d56dd"
          },
          {
            "reference": "Composition/3ca3ebd5-fe46-4be8-ba8a-a0b848aa726a"
          },
          {
            "reference": "PractitionerRole/16df5201-713c-4a8b-bf87-6535d4f89d30"
          },
          {
            "reference": "Practitioner/5ced4003-ebee-4365-b998-d611a7cf1b08"
          },
          {
            "reference": "PractitionerRole/b62f0dc0-0a16-4c93-bffb-e1539af98df8"
          },
          {
            "reference": "Organization/1a433479-b864-4b32-a186-a21e2c461528"
          }
        ],
        "activity": {
          "text": "Synthetic Example Data Generation"
        },
        "policy": [
          "https://synderai.net/synderai-synthetic-data-policy"
        ],
        "agent": [
          {
            "type": {
              "text": "author"
            },
            "who": {
              "reference": "Device/847e7be1-5c10-417e-a5c7-c9a004bad797"
            }
          }
        ],
        "reason": [
          {
            "text": "Interoperability Testing and Training (non-clinical use)"
          }
        ],
        "text": {
          "status": "generated",
          "div": "<div xmlns=\"http://www.w3.org/1999/xhtml\">Provenance for SYNDERAI Synthetic Example Data Resource</div>"
        },
        "recorded": "2025-01-30T04:53:59Z"
      }
    },
    {
      "fullUrl": "urn:uuid:16df5201-713c-4a8b-bf87-6535d4f89d30",
      "resource": {
        "resourceType": "PractitionerRole",
        "id": "16df5201-713c-4a8b-bf87-6535d4f89d30",
        "meta": {
          "profile": [
            "http://hl7.eu/fhir/base/StructureDefinition/practitionerRole-eu"
          ]
        },
        "text": {
          "status": "generated",
          "div": "<div xmlns=\"http://www.w3.org/1999/xhtml\">Laboratory Role Id: 16df5201-713c-4a8b-bf87-6535d4f89d30</div>"
        },
        "practitioner": {
          "reference": "urn:uuid:5ced4003-ebee-4365-b998-d611a7cf1b08"
        }
      }
    },
    {
      "fullUrl": "urn:uuid:5ced4003-ebee-4365-b998-d611a7cf1b08",
      "resource": {
        "resourceType": "Practitioner",
        "id": "5ced4003-ebee-4365-b998-d611a7cf1b08",
        "meta": {
          "profile": [
            "http://hl7.eu/fhir/base/StructureDefinition/practitioner-eu"
          ]
        },
        "identifier": [
          {
            "assigner": {
              "display": "HL7 Europe"
            },
            "system": "urn:oid:2.16.840.1.113883.2.51.999",
            "value": "3094c586-c5a9-44d1-83da-298b0d081178"
          }
        ],
        "name": [
          {
            "prefix": [
              "dr"
            ],
            "given": [
              "Ex"
            ],
            "family": "Ample"
          }
        ],
        "address": [
          {
            "line": [
              "Laboratoire Central Européenne",
              "Boulevard du Jardin Botanique 32"
            ],
            "postalCode": "1000",
            "city": "Brussels",
            "country": "Belgium"
          }
        ],
        "text": {
          "status": "generated",
          "div": "<div xmlns=\"http://www.w3.org/1999/xhtml\">Laboratory: Laboratoire Central Européenne, 1000 Brussels, Belgium</div>"
        }
      }
    }
  ],
  "type": "document",
  "timestamp": "2025-01-30T04:53:59Z"
}
