{
  "resourceType": "Bundle",
  "id": "6cb41768-9bc5-4539-9c24-4be21b2e19b1",
  "meta": {
    "profile": [
      "http://hl7.eu/fhir/laboratory/StructureDefinition/Bundle-eu-lab"
    ]
  },
  "identifier": {
    "assigner": {
      "display": "HL7 Europe"
    },
    "system": "urn:oid:2.16.840.1.113883.2.51.999",
    "value": "ebd04946-a077-4568-9c3f-d7dd70adee81"
  },
  "entry": [
    {
      "fullUrl": "urn:uuid:2f11f622-ad40-4cb0-85af-018d01a85bfb",
      "resource": {
        "resourceType": "Composition",
        "id": "2f11f622-ad40-4cb0-85af-018d01a85bfb",
        "meta": {
          "profile": [
            "http://hl7.eu/fhir/laboratory/StructureDefinition/Composition-eu-lab"
          ]
        },
        "identifier": {
          "assigner": {
            "display": "HL7 Europe"
          },
          "system": "urn:oid:2.16.840.1.113883.2.51.999",
          "value": "3e41fe68-e2bf-4b9a-8386-3e201360fafb"
        },
        "author": [
          {
            "reference": "urn:uuid:19db50c3-ba54-44d8-8a7e-436d48a6ded7"
          }
        ],
        "category": [
          {
            "coding": [
              {
                "code": "26436-6",
                "system": "http://loinc.org",
                "display": "Laboratory studies (set)"
              }
            ]
          }
        ],
        "type": {
          "coding": [
            {
              "code": "11502-2",
              "system": "http://loinc.org",
              "display": "Laboratory report"
            }
          ],
          "text": "Laboratory Report"
        },
        "section": [
          {
            "code": {
              "coding": [
                {
                  "code": "26436-6",
                  "system": "http://loinc.org",
                  "display": "Laboratory studies (set)"
                }
              ],
              "text": "Laboratory studies"
            },
            "section": [
              {
                "code": {
                  "coding": [
                    {
                      "code": "$18723-7",
                      "system": "http://loinc.org",
                      "display": "Hematology studies (set)"
                    }
                  ],
                  "text": "Hematology"
                },
                "entry": [
                  {
                    "reference": "urn:uuid:0793adcd-5bc2-4182-9f2d-487b4cedf040"
                  },
                  {
                    "reference": "urn:uuid:4d982cc5-4f6d-4193-be9c-49a7e8e1ab11"
                  },
                  {
                    "reference": "urn:uuid:b922f8e0-3765-498c-b553-f2de6d66730b"
                  },
                  {
                    "reference": "urn:uuid:4a92eb4a-ef12-4f9d-aaa1-3ac76c6a8e82"
                  },
                  {
                    "reference": "urn:uuid:adbddda9-c5c8-47fb-9b3d-6625942d343f"
                  },
                  {
                    "reference": "urn:uuid:c457e106-20db-4daa-8403-1c3a21a43280"
                  },
                  {
                    "reference": "urn:uuid:cde78612-1100-4580-acc4-f97b4da25b3e"
                  },
                  {
                    "reference": "urn:uuid:d4c9d4e7-c856-49a3-9f76-99c1f05f40b5"
                  },
                  {
                    "reference": "urn:uuid:bf83bff2-773a-4c59-a79c-f40fdc7fd810"
                  },
                  {
                    "reference": "urn:uuid:dfd193f5-19e0-40b9-ae96-b167b983a727"
                  },
                  {
                    "reference": "urn:uuid:1bf7d372-5e53-40f4-a31a-79ac1e3af059"
                  }
                ],
                "text": {
                  "status": "generated",
                  "div": "<div xmlns=\"http://www.w3.org/1999/xhtml\"><h3>Hematology</h3><table class=\"hl7__eu__lab__report\"><thead><tr><th>Test</th><th>10-MAY-2021</th><th>Reference&#xA0;Range</th><th>Unit</th></tr></thead><tbody><tr><td>Leukocytes [#/volume] in Blood by Automated count</td><td>10.2</td><td>3.4 - 10.6</td><td>10*3/uL</td></tr><tr><td>Erythrocytes [#/volume] in Blood by Automated count</td><td>5.1</td><td>4.2 - 6.2</td><td>10*6/uL</td></tr><tr><td>Hemoglobin [Mass/volume] in Blood</td><td>14.9</td><td>13.5 - 17.5</td><td>g/dL</td></tr><tr><td>Hematocrit [Volume Fraction] of Blood by Automated count</td><td>44.9</td><td>40 - 52</td><td>%</td></tr><tr><td>MCV [Entitic volume] by Automated count</td><td>83.6</td><td>82 - 98</td><td>fL</td></tr><tr><td>MCH [Entitic mass] by Automated count</td><td>32.3</td><td>27 - 33</td><td>pg</td></tr><tr><td>MCHC [Mass/volume] by Automated count</td><td><strong>35.2 H</strong></td><td>31 - 35</td><td>g/dL</td></tr><tr><td>Erythrocyte distribution width [Entitic volume] by Automated count</td><td>44.7</td><td>39 - 55</td><td>fL</td></tr><tr><td>Platelets [#/volume] in Blood by Automated count</td><td>320.0</td><td>140 - 363</td><td>10*3/uL</td></tr><tr><td>Platelet distribution width [Entitic volume] in Blood by Automated count</td><td><strong>334.1 H</strong></td><td>13.4 - 17.4</td><td>fL</td></tr><tr><td>Platelet mean volume [Entitic volume] in Blood by Automated count</td><td><strong>12.1 H</strong></td><td>7.4 - 12</td><td>fL</td></tr></tbody></table></div>"
                },
                "title": "Hematology"
              }
            ],
            "title": "Laboratory Report"
          },
          {
            "text": {
              "status": "generated",
              "div": "<div xmlns=\"http://www.w3.org/1999/xhtml\"><h3>Annotation</h3><table class=\"hl7__eu__lab__report\"><tr><th>Conclusion and Recommendations based on this report and previous findings known to us</th></tr><tr><td>All hematological parameters are within or near normal limits, except for mildly elevated MCHC, platelet mean volume, and platelet distribution width. These findings may indicate larger and more heterogeneous platelets, possibly reflecting increased platelet turnover or activation, but are nonspecific. No evidence of anemia, leukocytosis, or thrombocytopenia. Correlate with clinical context if platelet disorders are suspected.</td></tr></table></div>"
            },
            "code": {
              "coding": [
                {
                  "system": "http://loinc.org",
                  "code": "48767-8",
                  "display": "Annotation comment"
                }
              ]
            },
            "title": "Annotation comment"
          }
        ],
        "status": "final",
        "subject": {
          "reference": "urn:uuid:ae4a9f2b-536c-4c6c-82fb-c1c2384a68e3",
          "display": "Gioele Fabbri"
        },
        "date": "2021-05-10T17:46:20Z",
        "title": "Laboratory Report",
        "confidentiality": "N"
      }
    },
    {
      "fullUrl": "urn:uuid:ab9578e4-9585-4638-9795-6658bd571fa1",
      "resource": {
        "resourceType": "DiagnosticReport",
        "id": "ab9578e4-9585-4638-9795-6658bd571fa1",
        "meta": {
          "profile": [
            "http://hl7.eu/fhir/laboratory/StructureDefinition/DiagnosticReport-eu-lab"
          ]
        },
        "identifier": [
          {
            "assigner": {
              "display": "HL7 Europe"
            },
            "system": "urn:oid:2.16.840.1.113883.2.51.999",
            "value": "1679fd76-29d0-4bc2-b6df-65670fa425db"
          }
        ],
        "extension": [
          {
            "url": "http://hl7.org/fhir/5.0/StructureDefinition/extension-DiagnosticReport.composition",
            "valueReference": {
              "reference": "urn:uuid:3e41fe68-e2bf-4b9a-8386-3e201360fafb"
            }
          }
        ],
        "category": [
          {
            "coding": [
              {
                "code": "26436-6",
                "system": "http://loinc.org",
                "display": "Laboratory studies (set)"
              }
            ]
          }
        ],
        "specimen": [
          {
            "reference": "urn:uuid:931536a8-f25a-41b4-aa4f-a2af6eafaf96"
          },
          {
            "reference": "urn:uuid:931536a8-f25a-41b4-aa4f-a2af6eafaf96"
          }
        ],
        "result": [
          {
            "reference": "urn:uuid:0793adcd-5bc2-4182-9f2d-487b4cedf040"
          },
          {
            "reference": "urn:uuid:4d982cc5-4f6d-4193-be9c-49a7e8e1ab11"
          },
          {
            "reference": "urn:uuid:b922f8e0-3765-498c-b553-f2de6d66730b"
          },
          {
            "reference": "urn:uuid:4a92eb4a-ef12-4f9d-aaa1-3ac76c6a8e82"
          },
          {
            "reference": "urn:uuid:adbddda9-c5c8-47fb-9b3d-6625942d343f"
          },
          {
            "reference": "urn:uuid:c457e106-20db-4daa-8403-1c3a21a43280"
          },
          {
            "reference": "urn:uuid:cde78612-1100-4580-acc4-f97b4da25b3e"
          },
          {
            "reference": "urn:uuid:d4c9d4e7-c856-49a3-9f76-99c1f05f40b5"
          },
          {
            "reference": "urn:uuid:bf83bff2-773a-4c59-a79c-f40fdc7fd810"
          },
          {
            "reference": "urn:uuid:dfd193f5-19e0-40b9-ae96-b167b983a727"
          },
          {
            "reference": "urn:uuid:1bf7d372-5e53-40f4-a31a-79ac1e3af059"
          }
        ],
        "status": "registered",
        "code": {
          "coding": [
            {
              "code": "11502-2",
              "system": "http://loinc.org",
              "display": "Laboratory report"
            }
          ]
        },
        "subject": {
          "reference": "urn:uuid:ae4a9f2b-536c-4c6c-82fb-c1c2384a68e3",
          "display": "Gioele Fabbri"
        }
      }
    },
    {
      "fullUrl": "urn:uuid:ae4a9f2b-536c-4c6c-82fb-c1c2384a68e3",
      "resource": {
        "resourceType": "Patient",
        "id": "ae4a9f2b-536c-4c6c-82fb-c1c2384a68e3",
        "meta": {
          "security": [
            {
              "system": "http://terminology.hl7.org/CodeSystem/v3-ActReason",
              "code": "HTEST"
            },
            {
              "system": "http://terminology.hl7.org/CodeSystem/v3-ActReason",
              "code": "TRAIN"
            }
          ],
          "tag": [
            {
              "system": "https://synderai.net/fhir/CodeSystem/tags",
              "code": "synthetic",
              "display": "SYNDERAI Synthetic data"
            }
          ],
          "profile": [
            "http://hl7.eu/fhir/base/StructureDefinition/patient-eu-core"
          ]
        },
        "identifier": [
          {
            "type": {
              "coding": [
                {
                  "code": "PT",
                  "system": "http://terminology.hl7.org/CodeSystem/v2-0203"
                }
              ]
            },
            "system": "http://ec.europa.eu/identifier/eci",
            "value": "3631-767680-1"
          },
          {
            "type": {
              "coding": [
                {
                  "code": "MR",
                  "system": "http://terminology.hl7.org/CodeSystem/v2-0203"
                }
              ]
            },
            "system": "http://local.setting.eu/identifier",
            "value": "0a14935e-e0f7-2e1e-46fa-42b10e75d1f9"
          }
        ],
        "name": [
          {
            "family": "Fabbri"
          },
          {
            "given": [
              "Gioele"
            ]
          },
          {
            "text": "Gioele Fabbri"
          }
        ],
        "address": [
          {
            "line": [
              "Canale Armani, 25"
            ],
            "use": "home",
            "type": "physical",
            "postalCode": "23887",
            "city": "Revislate",
            "country": "Italy"
          }
        ],
        "telecom": [
          {
            "system": "phone",
            "value": "+39 0423197768"
          }
        ],
        "extension": [
          {
            "url": "http://hl7.org/fhir/StructureDefinition/patient-nationality",
            "valueCodeableConcept": {
              "coding": [
                {
                  "code": "IT",
                  "system": "http://hl7.org/fhir/ValueSet/country"
                }
              ]
            }
          }
        ],
        "text": {
          "status": "generated",
          "div": "<div xmlns=\"http://www.w3.org/1999/xhtml\"><table class=\"hl7__ips\"><tr><td>Gioele Fabbri</td><td>male</td><td>12-Sep-1972</td></tr></table></div>"
        },
        "gender": "male",
        "birthDate": "1972-09-12"
      }
    },
    {
      "fullUrl": "urn:uuid:caec0d1b-fdb1-4b2a-944e-14546a12eb6a",
      "resource": {
        "resourceType": "ServiceRequest",
        "id": "caec0d1b-fdb1-4b2a-944e-14546a12eb6a",
        "meta": {
          "profile": [
            "http://hl7.eu/fhir/laboratory/StructureDefinition/ServiceRequest-eu-lab"
          ]
        },
        "identifier": [
          {
            "system": "http://example.org",
            "value": "b6e23472-b120-446d-8289-955eeb58a585"
          }
        ],
        "specimen": [
          {
            "reference": "urn:uuid:931536a8-f25a-41b4-aa4f-a2af6eafaf96"
          }
        ],
        "reasonCode": [
          {
            "coding": [
              {
                "code": "271737000",
                "system": "http://snomed.info/sct",
                "display": "Anemia"
              }
            ]
          },
          {
            "coding": [
              {
                "code": "15777000",
                "system": "http://snomed.info/sct",
                "display": "Prediabetes"
              }
            ]
          },
          {
            "coding": [
              {
                "code": "713197008",
                "system": "http://snomed.info/sct",
                "display": "Recurrent rectal polyp"
              }
            ]
          },
          {
            "coding": [
              {
                "code": "68496003",
                "system": "http://snomed.info/sct",
                "display": "Polyp of colon"
              }
            ]
          },
          {
            "coding": [
              {
                "code": "55822004",
                "system": "http://snomed.info/sct",
                "display": "Hyperlipidemia"
              }
            ]
          },
          {
            "coding": [
              {
                "code": "124171000119105",
                "system": "http://snomed.info/sct",
                "display": "Chronic intractable migraine without aura"
              }
            ]
          }
        ],
        "status": "active",
        "intent": "order",
        "code": {
          "coding": [
            {
              "code": "108252007",
              "system": "http://snomed.info/sct",
              "display": "Laboratory procedure"
            }
          ]
        },
        "subject": {
          "reference": "urn:uuid:ae4a9f2b-536c-4c6c-82fb-c1c2384a68e3",
          "display": "Gioele Fabbri"
        },
        "requester": {
          "reference": "urn:uuid:840c0b37-bce6-41f4-bd07-6a9f1334654c"
        }
      }
    },
    {
      "fullUrl": "urn:uuid:840c0b37-bce6-41f4-bd07-6a9f1334654c",
      "resource": {
        "resourceType": "PractitionerRole",
        "id": "840c0b37-bce6-41f4-bd07-6a9f1334654c",
        "meta": {
          "profile": [
            "http://hl7.eu/fhir/base/StructureDefinition/practitionerRole-eu"
          ]
        },
        "text": {
          "status": "generated",
          "div": "<div xmlns=\"http://www.w3.org/1999/xhtml\">Provider Role Id: 840c0b37-bce6-41f4-bd07-6a9f1334654c</div>"
        },
        "organization": {
          "reference": "urn:uuid:ec401100-3c02-41ed-b2c7-0747404476b1"
        }
      }
    },
    {
      "fullUrl": "urn:uuid:ec401100-3c02-41ed-b2c7-0747404476b1",
      "resource": {
        "resourceType": "Organization",
        "id": "ec401100-3c02-41ed-b2c7-0747404476b1",
        "meta": {
          "profile": [
            "http://hl7.eu/fhir/base/StructureDefinition/organization-eu"
          ]
        },
        "identifier": [
          {
            "assigner": {
              "display": "HL7 Europe"
            },
            "system": "urn:oid:2.16.840.1.113883.2.51.999",
            "value": "6b013820-a386-48a7-a42f-c83d5120b982"
          }
        ],
        "address": [
          {
            "line": [
              "Piazza Ospedale 3"
            ],
            "city": "Calcinate",
            "postalCode": "24050",
            "country": "Italy"
          }
        ],
        "text": {
          "status": "generated",
          "div": "<div xmlns=\"http://www.w3.org/1999/xhtml\">Provider Organization: Ospedale di Calcinate &quot;F.M. Passi&quot;</div>"
        },
        "name": "Ospedale di Calcinate &quot;F.M. Passi&quot;"
      }
    },
    {
      "fullUrl": "urn:uuid:931536a8-f25a-41b4-aa4f-a2af6eafaf96",
      "resource": {
        "resourceType": "Specimen",
        "id": "931536a8-f25a-41b4-aa4f-a2af6eafaf96",
        "meta": {
          "profile": [
            "http://hl7.eu/fhir/laboratory/StructureDefinition/Specimen-eu-lab"
          ]
        },
        "collection": {
          "collectedDateTime": "2021-05-10"
        },
        "text": {
          "status": "generated",
          "div": "<div xmlns=\"http://www.w3.org/1999/xhtml\"><table class=\"hl7__eu__lab__report\"><tr><th>Specimen</th><th>Collection Date</th></tr><tr><td>Whole blood specimen (specimen)</td><td><span class=\"nb\">10-May-2021</span></td></tr></table></div>"
        },
        "type": {
          "coding": [
            {
              "code": "258580003",
              "system": "http://snomed.info/sct",
              "display": "Whole blood specimen (specimen)"
            }
          ]
        }
      }
    },
    {
      "fullUrl": "urn:uuid:931536a8-f25a-41b4-aa4f-a2af6eafaf96",
      "resource": {
        "resourceType": "Specimen",
        "id": "931536a8-f25a-41b4-aa4f-a2af6eafaf96",
        "meta": {
          "profile": [
            "http://hl7.eu/fhir/laboratory/StructureDefinition/Specimen-eu-lab"
          ]
        },
        "collection": {
          "collectedDateTime": "2021-05-10"
        },
        "text": {
          "status": "generated",
          "div": "<div xmlns=\"http://www.w3.org/1999/xhtml\"><table class=\"hl7__eu__lab__report\"><tr><th>Specimen</th><th>Collection Date</th></tr><tr><td>Whole blood specimen (specimen)</td><td><span class=\"nb\">10-May-2021</span></td></tr></table></div>"
        },
        "type": {
          "coding": [
            {
              "code": "258580003",
              "system": "http://snomed.info/sct",
              "display": "Whole blood specimen (specimen)"
            }
          ]
        }
      }
    },
    {
      "fullUrl": "urn:uuid:0793adcd-5bc2-4182-9f2d-487b4cedf040",
      "resource": {
        "resourceType": "Observation",
        "id": "0793adcd-5bc2-4182-9f2d-487b4cedf040",
        "meta": {
          "profile": [
            "http://hl7.eu/fhir/laboratory/StructureDefinition/Observation-resultslab-eu-lab"
          ]
        },
        "performer": [
          {
            "display": "The Central European Lab"
          }
        ],
        "category": [
          {
            "coding": [
              {
                "system": "http://terminology.hl7.org/CodeSystem/observation-category",
                "code": "laboratory"
              }
            ]
          }
        ],
        "code": {
          "coding": [
            {
              "code": "6690-2",
              "system": "http://loinc.org",
              "display": "Leukocytes [#/volume] in Blood by Automated count"
            }
          ],
          "text": "Leukocytes [#/volume] in Blood by Automated count"
        },
        "valueQuantity": {
          "system": "http://unitsofmeasure.org",
          "value": 10.2,
          "unit": "10*3/uL",
          "code": "10*3/uL"
        },
        "referenceRange": [
          {
            "low": {
              "value": 3.4,
              "code": "10*3/uL",
              "system": "http://unitsofmeasure.org"
            }
          },
          {
            "high": {
              "value": 10.6,
              "code": "10*3/uL",
              "system": "http://unitsofmeasure.org"
            }
          }
        ],
        "text": {
          "status": "generated",
          "div": "<div xmlns=\"http://www.w3.org/1999/xhtml\"><table class=\"hl7__eu__lab__report\"><tr><th>Test</th><th>10-May-2021</th><th>Reference&#xA0;Range</th><th>Unit</th></tr><tr><td>Leukocytes [#/volume] in Blood by Automated count</td><td>10.2</td><td>3.4 - 10.6</td><td></td><td>10*3/uL</td></tr></table></div>"
        },
        "status": "final",
        "subject": {
          "reference": "urn:uuid:ae4a9f2b-536c-4c6c-82fb-c1c2384a68e3",
          "display": "Gioele Fabbri"
        },
        "effectiveDateTime": "2021-05-10T15:46:20Z",
        "specimen": {
          "reference": "urn:uuid:931536a8-f25a-41b4-aa4f-a2af6eafaf96"
        }
      }
    },
    {
      "fullUrl": "urn:uuid:4d982cc5-4f6d-4193-be9c-49a7e8e1ab11",
      "resource": {
        "resourceType": "Observation",
        "id": "4d982cc5-4f6d-4193-be9c-49a7e8e1ab11",
        "meta": {
          "profile": [
            "http://hl7.eu/fhir/laboratory/StructureDefinition/Observation-resultslab-eu-lab"
          ]
        },
        "performer": [
          {
            "display": "The Central European Lab"
          }
        ],
        "category": [
          {
            "coding": [
              {
                "system": "http://terminology.hl7.org/CodeSystem/observation-category",
                "code": "laboratory"
              }
            ]
          }
        ],
        "code": {
          "coding": [
            {
              "code": "789-8",
              "system": "http://loinc.org",
              "display": "Erythrocytes [#/volume] in Blood by Automated count"
            }
          ],
          "text": "Erythrocytes [#/volume] in Blood by Automated count"
        },
        "valueQuantity": {
          "system": "http://unitsofmeasure.org",
          "value": 5.1,
          "unit": "10*6/uL",
          "code": "10*6/uL"
        },
        "referenceRange": [
          {
            "low": {
              "value": 4.2,
              "code": "10*6/uL",
              "system": "http://unitsofmeasure.org"
            }
          },
          {
            "high": {
              "value": 6.2,
              "code": "10*6/uL",
              "system": "http://unitsofmeasure.org"
            }
          }
        ],
        "text": {
          "status": "generated",
          "div": "<div xmlns=\"http://www.w3.org/1999/xhtml\"><table class=\"hl7__eu__lab__report\"><tr><th>Test</th><th>10-May-2021</th><th>Reference&#xA0;Range</th><th>Unit</th></tr><tr><td>Erythrocytes [#/volume] in Blood by Automated count</td><td>5.1</td><td>4.2 - 6.2</td><td></td><td>10*6/uL</td></tr></table></div>"
        },
        "status": "final",
        "subject": {
          "reference": "urn:uuid:ae4a9f2b-536c-4c6c-82fb-c1c2384a68e3",
          "display": "Gioele Fabbri"
        },
        "effectiveDateTime": "2021-05-10T15:46:20Z",
        "specimen": {
          "reference": "urn:uuid:931536a8-f25a-41b4-aa4f-a2af6eafaf96"
        }
      }
    },
    {
      "fullUrl": "urn:uuid:b922f8e0-3765-498c-b553-f2de6d66730b",
      "resource": {
        "resourceType": "Observation",
        "id": "b922f8e0-3765-498c-b553-f2de6d66730b",
        "meta": {
          "profile": [
            "http://hl7.eu/fhir/laboratory/StructureDefinition/Observation-resultslab-eu-lab"
          ]
        },
        "performer": [
          {
            "display": "The Central European Lab"
          }
        ],
        "category": [
          {
            "coding": [
              {
                "system": "http://terminology.hl7.org/CodeSystem/observation-category",
                "code": "laboratory"
              }
            ]
          }
        ],
        "code": {
          "coding": [
            {
              "code": "718-7",
              "system": "http://loinc.org",
              "display": "Hemoglobin [Mass/volume] in Blood"
            }
          ],
          "text": "Hemoglobin [Mass/volume] in Blood"
        },
        "valueQuantity": {
          "system": "http://unitsofmeasure.org",
          "value": 14.9,
          "unit": "g/dL",
          "code": "g/dL"
        },
        "referenceRange": [
          {
            "low": {
              "value": 13.5,
              "code": "g/dL",
              "system": "http://unitsofmeasure.org"
            }
          },
          {
            "high": {
              "value": 17.5,
              "code": "g/dL",
              "system": "http://unitsofmeasure.org"
            }
          }
        ],
        "text": {
          "status": "generated",
          "div": "<div xmlns=\"http://www.w3.org/1999/xhtml\"><table class=\"hl7__eu__lab__report\"><tr><th>Test</th><th>10-May-2021</th><th>Reference&#xA0;Range</th><th>Unit</th></tr><tr><td>Hemoglobin [Mass/volume] in Blood</td><td>14.9</td><td>13.5 - 17.5</td><td></td><td>g/dL</td></tr></table></div>"
        },
        "status": "final",
        "subject": {
          "reference": "urn:uuid:ae4a9f2b-536c-4c6c-82fb-c1c2384a68e3",
          "display": "Gioele Fabbri"
        },
        "effectiveDateTime": "2021-05-10T15:46:20Z",
        "specimen": {
          "reference": "urn:uuid:931536a8-f25a-41b4-aa4f-a2af6eafaf96"
        }
      }
    },
    {
      "fullUrl": "urn:uuid:4a92eb4a-ef12-4f9d-aaa1-3ac76c6a8e82",
      "resource": {
        "resourceType": "Observation",
        "id": "4a92eb4a-ef12-4f9d-aaa1-3ac76c6a8e82",
        "meta": {
          "profile": [
            "http://hl7.eu/fhir/laboratory/StructureDefinition/Observation-resultslab-eu-lab"
          ]
        },
        "performer": [
          {
            "display": "The Central European Lab"
          }
        ],
        "category": [
          {
            "coding": [
              {
                "system": "http://terminology.hl7.org/CodeSystem/observation-category",
                "code": "laboratory"
              }
            ]
          }
        ],
        "code": {
          "coding": [
            {
              "code": "4544-3",
              "system": "http://loinc.org",
              "display": "Hematocrit [Volume Fraction] of Blood by Automated count"
            }
          ],
          "text": "Hematocrit [Volume Fraction] of Blood by Automated count"
        },
        "valueQuantity": {
          "system": "http://unitsofmeasure.org",
          "value": 44.9,
          "unit": "%",
          "code": "%"
        },
        "referenceRange": [
          {
            "low": {
              "value": 40,
              "code": "%",
              "system": "http://unitsofmeasure.org"
            }
          },
          {
            "high": {
              "value": 52,
              "code": "%",
              "system": "http://unitsofmeasure.org"
            }
          }
        ],
        "text": {
          "status": "generated",
          "div": "<div xmlns=\"http://www.w3.org/1999/xhtml\"><table class=\"hl7__eu__lab__report\"><tr><th>Test</th><th>10-May-2021</th><th>Reference&#xA0;Range</th><th>Unit</th></tr><tr><td>Hematocrit [Volume Fraction] of Blood by Automated count</td><td>44.9</td><td>40 - 52</td><td></td><td>%</td></tr></table></div>"
        },
        "status": "final",
        "subject": {
          "reference": "urn:uuid:ae4a9f2b-536c-4c6c-82fb-c1c2384a68e3",
          "display": "Gioele Fabbri"
        },
        "effectiveDateTime": "2021-05-10T15:46:20Z",
        "specimen": {
          "reference": "urn:uuid:931536a8-f25a-41b4-aa4f-a2af6eafaf96"
        }
      }
    },
    {
      "fullUrl": "urn:uuid:adbddda9-c5c8-47fb-9b3d-6625942d343f",
      "resource": {
        "resourceType": "Observation",
        "id": "adbddda9-c5c8-47fb-9b3d-6625942d343f",
        "meta": {
          "profile": [
            "http://hl7.eu/fhir/laboratory/StructureDefinition/Observation-resultslab-eu-lab"
          ]
        },
        "performer": [
          {
            "display": "The Central European Lab"
          }
        ],
        "category": [
          {
            "coding": [
              {
                "system": "http://terminology.hl7.org/CodeSystem/observation-category",
                "code": "laboratory"
              }
            ]
          }
        ],
        "code": {
          "coding": [
            {
              "code": "787-2",
              "system": "http://loinc.org",
              "display": "MCV [Entitic volume] by Automated count"
            }
          ],
          "text": "MCV [Entitic volume] by Automated count"
        },
        "valueQuantity": {
          "system": "http://unitsofmeasure.org",
          "value": 83.6,
          "unit": "fL",
          "code": "fL"
        },
        "referenceRange": [
          {
            "low": {
              "value": 82,
              "code": "fL",
              "system": "http://unitsofmeasure.org"
            }
          },
          {
            "high": {
              "value": 98,
              "code": "fL",
              "system": "http://unitsofmeasure.org"
            }
          }
        ],
        "text": {
          "status": "generated",
          "div": "<div xmlns=\"http://www.w3.org/1999/xhtml\"><table class=\"hl7__eu__lab__report\"><tr><th>Test</th><th>10-May-2021</th><th>Reference&#xA0;Range</th><th>Unit</th></tr><tr><td>MCV [Entitic volume] by Automated count</td><td>83.6</td><td>82 - 98</td><td></td><td>fL</td></tr></table></div>"
        },
        "status": "final",
        "subject": {
          "reference": "urn:uuid:ae4a9f2b-536c-4c6c-82fb-c1c2384a68e3",
          "display": "Gioele Fabbri"
        },
        "effectiveDateTime": "2021-05-10T15:46:20Z",
        "specimen": {
          "reference": "urn:uuid:931536a8-f25a-41b4-aa4f-a2af6eafaf96"
        }
      }
    },
    {
      "fullUrl": "urn:uuid:c457e106-20db-4daa-8403-1c3a21a43280",
      "resource": {
        "resourceType": "Observation",
        "id": "c457e106-20db-4daa-8403-1c3a21a43280",
        "meta": {
          "profile": [
            "http://hl7.eu/fhir/laboratory/StructureDefinition/Observation-resultslab-eu-lab"
          ]
        },
        "performer": [
          {
            "display": "The Central European Lab"
          }
        ],
        "category": [
          {
            "coding": [
              {
                "system": "http://terminology.hl7.org/CodeSystem/observation-category",
                "code": "laboratory"
              }
            ]
          }
        ],
        "code": {
          "coding": [
            {
              "code": "785-6",
              "system": "http://loinc.org",
              "display": "MCH [Entitic mass] by Automated count"
            }
          ],
          "text": "MCH [Entitic mass] by Automated count"
        },
        "valueQuantity": {
          "system": "http://unitsofmeasure.org",
          "value": 32.3,
          "unit": "pg",
          "code": "pg"
        },
        "referenceRange": [
          {
            "low": {
              "value": 27,
              "code": "pg",
              "system": "http://unitsofmeasure.org"
            }
          },
          {
            "high": {
              "value": 33,
              "code": "pg",
              "system": "http://unitsofmeasure.org"
            }
          }
        ],
        "text": {
          "status": "generated",
          "div": "<div xmlns=\"http://www.w3.org/1999/xhtml\"><table class=\"hl7__eu__lab__report\"><tr><th>Test</th><th>10-May-2021</th><th>Reference&#xA0;Range</th><th>Unit</th></tr><tr><td>MCH [Entitic mass] by Automated count</td><td>32.3</td><td>27 - 33</td><td></td><td>pg</td></tr></table></div>"
        },
        "status": "final",
        "subject": {
          "reference": "urn:uuid:ae4a9f2b-536c-4c6c-82fb-c1c2384a68e3",
          "display": "Gioele Fabbri"
        },
        "effectiveDateTime": "2021-05-10T15:46:20Z",
        "specimen": {
          "reference": "urn:uuid:931536a8-f25a-41b4-aa4f-a2af6eafaf96"
        }
      }
    },
    {
      "fullUrl": "urn:uuid:cde78612-1100-4580-acc4-f97b4da25b3e",
      "resource": {
        "resourceType": "Observation",
        "id": "cde78612-1100-4580-acc4-f97b4da25b3e",
        "meta": {
          "profile": [
            "http://hl7.eu/fhir/laboratory/StructureDefinition/Observation-resultslab-eu-lab"
          ]
        },
        "performer": [
          {
            "display": "The Central European Lab"
          }
        ],
        "category": [
          {
            "coding": [
              {
                "system": "http://terminology.hl7.org/CodeSystem/observation-category",
                "code": "laboratory"
              }
            ]
          }
        ],
        "code": {
          "coding": [
            {
              "code": "786-4",
              "system": "http://loinc.org",
              "display": "MCHC [Mass/volume] by Automated count"
            }
          ],
          "text": "MCHC [Mass/volume] by Automated count"
        },
        "valueQuantity": {
          "system": "http://unitsofmeasure.org",
          "value": 35.2,
          "unit": "g/dL",
          "code": "g/dL"
        },
        "referenceRange": [
          {
            "low": {
              "value": 31,
              "code": "g/dL",
              "system": "http://unitsofmeasure.org"
            }
          },
          {
            "high": {
              "value": 35,
              "code": "g/dL",
              "system": "http://unitsofmeasure.org"
            }
          }
        ],
        "interpretation": [
          {
            "coding": [
              {
                "code": "H",
                "system": "http://terminology.hl7.org/CodeSystem/v3-ObservationInterpretation",
                "display": "High"
              }
            ]
          }
        ],
        "text": {
          "status": "generated",
          "div": "<div xmlns=\"http://www.w3.org/1999/xhtml\"><table class=\"hl7__eu__lab__report\"><tr><th>Test</th><th>10-May-2021</th><th>Reference&#xA0;Range</th><th>Unit</th></tr><tr><td>MCHC [Mass/volume] by Automated count</td><td>35.2</td><td>31 - 35</td><td>H</td><td>g/dL</td></tr></table></div>"
        },
        "status": "final",
        "subject": {
          "reference": "urn:uuid:ae4a9f2b-536c-4c6c-82fb-c1c2384a68e3",
          "display": "Gioele Fabbri"
        },
        "effectiveDateTime": "2021-05-10T15:46:20Z",
        "specimen": {
          "reference": "urn:uuid:931536a8-f25a-41b4-aa4f-a2af6eafaf96"
        }
      }
    },
    {
      "fullUrl": "urn:uuid:d4c9d4e7-c856-49a3-9f76-99c1f05f40b5",
      "resource": {
        "resourceType": "Observation",
        "id": "d4c9d4e7-c856-49a3-9f76-99c1f05f40b5",
        "meta": {
          "profile": [
            "http://hl7.eu/fhir/laboratory/StructureDefinition/Observation-resultslab-eu-lab"
          ]
        },
        "performer": [
          {
            "display": "The Central European Lab"
          }
        ],
        "category": [
          {
            "coding": [
              {
                "system": "http://terminology.hl7.org/CodeSystem/observation-category",
                "code": "laboratory"
              }
            ]
          }
        ],
        "code": {
          "coding": [
            {
              "code": "21000-5",
              "system": "http://loinc.org",
              "display": "Erythrocyte distribution width [Entitic volume] by Automated count"
            }
          ],
          "text": "Erythrocyte distribution width [Entitic volume] by Automated count"
        },
        "valueQuantity": {
          "system": "http://unitsofmeasure.org",
          "value": 44.7,
          "unit": "fL",
          "code": "fL"
        },
        "referenceRange": [
          {
            "low": {
              "value": 39,
              "code": "fL",
              "system": "http://unitsofmeasure.org"
            }
          },
          {
            "high": {
              "value": 55,
              "code": "fL",
              "system": "http://unitsofmeasure.org"
            }
          }
        ],
        "text": {
          "status": "generated",
          "div": "<div xmlns=\"http://www.w3.org/1999/xhtml\"><table class=\"hl7__eu__lab__report\"><tr><th>Test</th><th>10-May-2021</th><th>Reference&#xA0;Range</th><th>Unit</th></tr><tr><td>Erythrocyte distribution width [Entitic volume] by Automated count</td><td>44.7</td><td>39 - 55</td><td></td><td>fL</td></tr></table></div>"
        },
        "status": "final",
        "subject": {
          "reference": "urn:uuid:ae4a9f2b-536c-4c6c-82fb-c1c2384a68e3",
          "display": "Gioele Fabbri"
        },
        "effectiveDateTime": "2021-05-10T15:46:20Z",
        "specimen": {
          "reference": "urn:uuid:931536a8-f25a-41b4-aa4f-a2af6eafaf96"
        }
      }
    },
    {
      "fullUrl": "urn:uuid:bf83bff2-773a-4c59-a79c-f40fdc7fd810",
      "resource": {
        "resourceType": "Observation",
        "id": "bf83bff2-773a-4c59-a79c-f40fdc7fd810",
        "meta": {
          "profile": [
            "http://hl7.eu/fhir/laboratory/StructureDefinition/Observation-resultslab-eu-lab"
          ]
        },
        "performer": [
          {
            "display": "The Central European Lab"
          }
        ],
        "category": [
          {
            "coding": [
              {
                "system": "http://terminology.hl7.org/CodeSystem/observation-category",
                "code": "laboratory"
              }
            ]
          }
        ],
        "code": {
          "coding": [
            {
              "code": "777-3",
              "system": "http://loinc.org",
              "display": "Platelets [#/volume] in Blood by Automated count"
            }
          ],
          "text": "Platelets [#/volume] in Blood by Automated count"
        },
        "valueQuantity": {
          "system": "http://unitsofmeasure.org",
          "value": 320,
          "unit": "10*3/uL",
          "code": "10*3/uL"
        },
        "referenceRange": [
          {
            "low": {
              "value": 140,
              "code": "10*3/uL",
              "system": "http://unitsofmeasure.org"
            }
          },
          {
            "high": {
              "value": 363,
              "code": "10*3/uL",
              "system": "http://unitsofmeasure.org"
            }
          }
        ],
        "text": {
          "status": "generated",
          "div": "<div xmlns=\"http://www.w3.org/1999/xhtml\"><table class=\"hl7__eu__lab__report\"><tr><th>Test</th><th>10-May-2021</th><th>Reference&#xA0;Range</th><th>Unit</th></tr><tr><td>Platelets [#/volume] in Blood by Automated count</td><td>320.0</td><td>140 - 363</td><td></td><td>10*3/uL</td></tr></table></div>"
        },
        "status": "final",
        "subject": {
          "reference": "urn:uuid:ae4a9f2b-536c-4c6c-82fb-c1c2384a68e3",
          "display": "Gioele Fabbri"
        },
        "effectiveDateTime": "2021-05-10T15:46:20Z",
        "specimen": {
          "reference": "urn:uuid:931536a8-f25a-41b4-aa4f-a2af6eafaf96"
        }
      }
    },
    {
      "fullUrl": "urn:uuid:dfd193f5-19e0-40b9-ae96-b167b983a727",
      "resource": {
        "resourceType": "Observation",
        "id": "dfd193f5-19e0-40b9-ae96-b167b983a727",
        "meta": {
          "profile": [
            "http://hl7.eu/fhir/laboratory/StructureDefinition/Observation-resultslab-eu-lab"
          ]
        },
        "performer": [
          {
            "display": "The Central European Lab"
          }
        ],
        "category": [
          {
            "coding": [
              {
                "system": "http://terminology.hl7.org/CodeSystem/observation-category",
                "code": "laboratory"
              }
            ]
          }
        ],
        "code": {
          "coding": [
            {
              "code": "32207-3",
              "system": "http://loinc.org",
              "display": "Platelet distribution width [Entitic volume] in Blood by Automated count"
            }
          ],
          "text": "Platelet distribution width [Entitic volume] in Blood by Automated count"
        },
        "valueQuantity": {
          "system": "http://unitsofmeasure.org",
          "value": 334.1,
          "unit": "fL",
          "code": "fL"
        },
        "referenceRange": [
          {
            "low": {
              "value": 13.4,
              "code": "fL",
              "system": "http://unitsofmeasure.org"
            }
          },
          {
            "high": {
              "value": 17.4,
              "code": "fL",
              "system": "http://unitsofmeasure.org"
            }
          }
        ],
        "interpretation": [
          {
            "coding": [
              {
                "code": "H",
                "system": "http://terminology.hl7.org/CodeSystem/v3-ObservationInterpretation",
                "display": "High"
              }
            ]
          }
        ],
        "text": {
          "status": "generated",
          "div": "<div xmlns=\"http://www.w3.org/1999/xhtml\"><table class=\"hl7__eu__lab__report\"><tr><th>Test</th><th>10-May-2021</th><th>Reference&#xA0;Range</th><th>Unit</th></tr><tr><td>Platelet distribution width [Entitic volume] in Blood by Automated count</td><td>334.1</td><td>13.4 - 17.4</td><td>H</td><td>fL</td></tr></table></div>"
        },
        "status": "final",
        "subject": {
          "reference": "urn:uuid:ae4a9f2b-536c-4c6c-82fb-c1c2384a68e3",
          "display": "Gioele Fabbri"
        },
        "effectiveDateTime": "2021-05-10T15:46:20Z",
        "specimen": {
          "reference": "urn:uuid:931536a8-f25a-41b4-aa4f-a2af6eafaf96"
        }
      }
    },
    {
      "fullUrl": "urn:uuid:1bf7d372-5e53-40f4-a31a-79ac1e3af059",
      "resource": {
        "resourceType": "Observation",
        "id": "1bf7d372-5e53-40f4-a31a-79ac1e3af059",
        "meta": {
          "profile": [
            "http://hl7.eu/fhir/laboratory/StructureDefinition/Observation-resultslab-eu-lab"
          ]
        },
        "performer": [
          {
            "display": "The Central European Lab"
          }
        ],
        "category": [
          {
            "coding": [
              {
                "system": "http://terminology.hl7.org/CodeSystem/observation-category",
                "code": "laboratory"
              }
            ]
          }
        ],
        "code": {
          "coding": [
            {
              "code": "32623-1",
              "system": "http://loinc.org",
              "display": "Platelet mean volume [Entitic volume] in Blood by Automated count"
            }
          ],
          "text": "Platelet mean volume [Entitic volume] in Blood by Automated count"
        },
        "valueQuantity": {
          "system": "http://unitsofmeasure.org",
          "value": 12.1,
          "unit": "fL",
          "code": "fL"
        },
        "referenceRange": [
          {
            "low": {
              "value": 7.4,
              "code": "fL",
              "system": "http://unitsofmeasure.org"
            }
          },
          {
            "high": {
              "value": 12,
              "code": "fL",
              "system": "http://unitsofmeasure.org"
            }
          }
        ],
        "interpretation": [
          {
            "coding": [
              {
                "code": "H",
                "system": "http://terminology.hl7.org/CodeSystem/v3-ObservationInterpretation",
                "display": "High"
              }
            ]
          }
        ],
        "text": {
          "status": "generated",
          "div": "<div xmlns=\"http://www.w3.org/1999/xhtml\"><table class=\"hl7__eu__lab__report\"><tr><th>Test</th><th>10-May-2021</th><th>Reference&#xA0;Range</th><th>Unit</th></tr><tr><td>Platelet mean volume [Entitic volume] in Blood by Automated count</td><td>12.1</td><td>7.4 - 12</td><td>H</td><td>fL</td></tr></table></div>"
        },
        "status": "final",
        "subject": {
          "reference": "urn:uuid:ae4a9f2b-536c-4c6c-82fb-c1c2384a68e3",
          "display": "Gioele Fabbri"
        },
        "effectiveDateTime": "2021-05-10T15:46:20Z",
        "specimen": {
          "reference": "urn:uuid:931536a8-f25a-41b4-aa4f-a2af6eafaf96"
        }
      }
    },
    {
      "fullUrl": "urn:uuid:b7533548-ea10-4e87-8979-167a6bbef1b7",
      "resource": {
        "resourceType": "Device",
        "id": "b7533548-ea10-4e87-8979-167a6bbef1b7",
        "deviceName": [
          {
            "name": "SYNDERAI Synthetic Generator",
            "type": "manufacturer-name"
          }
        ],
        "version": [
          {
            "value": "5.0"
          }
        ],
        "text": {
          "status": "generated",
          "div": "<div xmlns=\"http://www.w3.org/1999/xhtml\">SYNDERAI Synthetic Generator v5.0</div>"
        },
        "status": "active\"",
        "distinctIdentifier": "synderai-generator-50",
        "manufacturer": "SYNDERAI Project"
      }
    },
    {
      "fullUrl": "urn:uuid:85e2ab29-658f-4958-a7a7-19127e78ffac",
      "resource": {
        "resourceType": "Provenance",
        "id": "85e2ab29-658f-4958-a7a7-19127e78ffac",
        "target": [
          {
            "reference": "Patient/ae4a9f2b-536c-4c6c-82fb-c1c2384a68e3"
          },
          {
            "reference": "Bundle/6cb41768-9bc5-4539-9c24-4be21b2e19b1"
          },
          {
            "reference": "Composition/2f11f622-ad40-4cb0-85af-018d01a85bfb"
          },
          {
            "reference": "PractitionerRole/19db50c3-ba54-44d8-8a7e-436d48a6ded7"
          },
          {
            "reference": "Practitioner/744dd1cc-3698-4f93-9e6c-14c57ad26d33"
          },
          {
            "reference": "PractitionerRole/840c0b37-bce6-41f4-bd07-6a9f1334654c"
          },
          {
            "reference": "Organization/ec401100-3c02-41ed-b2c7-0747404476b1"
          }
        ],
        "activity": {
          "text": "Synthetic Example Data Generation"
        },
        "policy": [
          "https://synderai.net/synderai-synthetic-data-policy"
        ],
        "agent": [
          {
            "type": {
              "text": "author"
            },
            "who": {
              "reference": "Device/b7533548-ea10-4e87-8979-167a6bbef1b7"
            }
          }
        ],
        "reason": [
          {
            "text": "Interoperability Testing and Training (non-clinical use)"
          }
        ],
        "text": {
          "status": "generated",
          "div": "<div xmlns=\"http://www.w3.org/1999/xhtml\">Provenance for SYNDERAI Synthetic Example Data Resource</div>"
        },
        "recorded": "2021-05-10T17:46:20Z"
      }
    },
    {
      "fullUrl": "urn:uuid:19db50c3-ba54-44d8-8a7e-436d48a6ded7",
      "resource": {
        "resourceType": "PractitionerRole",
        "id": "19db50c3-ba54-44d8-8a7e-436d48a6ded7",
        "meta": {
          "profile": [
            "http://hl7.eu/fhir/base/StructureDefinition/practitionerRole-eu"
          ]
        },
        "text": {
          "status": "generated",
          "div": "<div xmlns=\"http://www.w3.org/1999/xhtml\">Laboratory Role Id: 19db50c3-ba54-44d8-8a7e-436d48a6ded7</div>"
        },
        "practitioner": {
          "reference": "urn:uuid:744dd1cc-3698-4f93-9e6c-14c57ad26d33"
        }
      }
    },
    {
      "fullUrl": "urn:uuid:744dd1cc-3698-4f93-9e6c-14c57ad26d33",
      "resource": {
        "resourceType": "Practitioner",
        "id": "744dd1cc-3698-4f93-9e6c-14c57ad26d33",
        "meta": {
          "profile": [
            "http://hl7.eu/fhir/base/StructureDefinition/practitioner-eu"
          ]
        },
        "identifier": [
          {
            "assigner": {
              "display": "HL7 Europe"
            },
            "system": "urn:oid:2.16.840.1.113883.2.51.999",
            "value": "3dbb3df6-6c0f-4bed-a4d4-aea0425146bf"
          }
        ],
        "name": [
          {
            "prefix": [
              "dr"
            ],
            "given": [
              "Ex"
            ],
            "family": "Ample"
          }
        ],
        "address": [
          {
            "line": [
              "Laboratoire Central Européenne",
              "Boulevard du Jardin Botanique 32"
            ],
            "postalCode": "1000",
            "city": "Brussels",
            "country": "Belgium"
          }
        ],
        "text": {
          "status": "generated",
          "div": "<div xmlns=\"http://www.w3.org/1999/xhtml\">Laboratory: Laboratoire Central Européenne, 1000 Brussels, Belgium</div>"
        }
      }
    }
  ],
  "type": "document",
  "timestamp": "2021-05-10T17:46:20Z"
}
