{
  "resourceType": "Bundle",
  "id": "d95cc003-5796-4a88-9966-8a75471e0f44",
  "meta": {
    "profile": [
      "http://hl7.eu/fhir/laboratory/StructureDefinition/Bundle-eu-lab"
    ]
  },
  "identifier": {
    "assigner": {
      "display": "HL7 Europe"
    },
    "system": "urn:oid:2.16.840.1.113883.2.51.999",
    "value": "b0b63358-edfc-4c35-8d25-d476f3dcc871"
  },
  "entry": [
    {
      "fullUrl": "urn:uuid:a8e6caf9-1501-4e57-b0c8-2c8f4a2df042",
      "resource": {
        "resourceType": "Composition",
        "id": "a8e6caf9-1501-4e57-b0c8-2c8f4a2df042",
        "meta": {
          "profile": [
            "http://hl7.eu/fhir/laboratory/StructureDefinition/Composition-eu-lab"
          ]
        },
        "identifier": {
          "assigner": {
            "display": "HL7 Europe"
          },
          "system": "urn:oid:2.16.840.1.113883.2.51.999",
          "value": "717a5835-4984-454c-901d-fcd89438429f"
        },
        "author": [
          {
            "reference": "urn:uuid:06db9963-6a76-4890-8d4d-2e939bd82b2d"
          }
        ],
        "category": [
          {
            "coding": [
              {
                "code": "26436-6",
                "system": "http://loinc.org",
                "display": "Laboratory studies (set)"
              }
            ]
          }
        ],
        "type": {
          "coding": [
            {
              "code": "11502-2",
              "system": "http://loinc.org",
              "display": "Laboratory report"
            }
          ],
          "text": "Laboratory Report"
        },
        "section": [
          {
            "code": {
              "coding": [
                {
                  "code": "26436-6",
                  "system": "http://loinc.org",
                  "display": "Laboratory studies (set)"
                }
              ],
              "text": "Laboratory studies"
            },
            "section": [
              {
                "code": {
                  "coding": [
                    {
                      "code": "$18723-7",
                      "system": "http://loinc.org",
                      "display": "Hematology studies (set)"
                    }
                  ],
                  "text": "Hematology"
                },
                "entry": [
                  {
                    "reference": "urn:uuid:202991ed-fb56-464c-a5ff-883cdcba38fd"
                  },
                  {
                    "reference": "urn:uuid:6b2fcb7d-9d45-4e8a-ac1d-f2e08a90bbbc"
                  },
                  {
                    "reference": "urn:uuid:38d74af3-3797-4145-a3b7-e8cdbc50e5a6"
                  },
                  {
                    "reference": "urn:uuid:4cbafecb-ad3f-47b9-8b67-72a3eb18b2ba"
                  },
                  {
                    "reference": "urn:uuid:949587c7-0a09-4251-bf12-e13040b900ea"
                  },
                  {
                    "reference": "urn:uuid:8bc82f5e-aa49-4f6e-86d2-7de857c96573"
                  },
                  {
                    "reference": "urn:uuid:fa15b97c-83fa-4c8b-a568-6680494fd4c6"
                  },
                  {
                    "reference": "urn:uuid:cb498841-9421-4f3a-be13-3356086420e7"
                  },
                  {
                    "reference": "urn:uuid:00db8fa4-8a10-465e-a5fd-1b95bfd6e8e3"
                  }
                ],
                "text": {
                  "status": "generated",
                  "div": "<div xmlns=\"http://www.w3.org/1999/xhtml\"><h3>Hematology</h3><table class=\"hl7__eu__lab__report\"><thead><tr><th>Test</th><th>20-JUN-2017</th><th>Reference&#xA0;Range</th><th>Unit</th></tr></thead><tbody><tr><td>Leukocytes [#/volume] in Blood by Automated count</td><td>9.0</td><td>4 - 11</td><td>10*3/uL</td></tr><tr><td>Erythrocytes [#/volume] in Blood by Automated count</td><td>4.8</td><td>4.2 - 5.8</td><td>10*6/uL</td></tr><tr><td>Hemoglobin [Mass/volume] in Blood</td><td>14.6</td><td>12 - 16</td><td>g/dL</td></tr><tr><td>Hematocrit [Volume Fraction] of Blood by Automated count</td><td>41.7</td><td>36 - 48</td><td>%</td></tr><tr><td>MCV [Entitic volume] by Automated count</td><td>86.4</td><td>78 - 98</td><td>fL</td></tr><tr><td>MCH [Entitic mass] by Automated count</td><td>32.8</td><td>27 - 34.5</td><td>pg</td></tr><tr><td>MCHC [Mass/volume] by Automated count</td><td>32.3</td><td>31.5 - 35.5</td><td>g/dL</td></tr><tr><td>Erythrocyte distribution width [Ratio] by Automated count</td><td>13.4</td><td>11.5 - 16</td><td>%</td></tr><tr><td>Platelets [#/volume] in Blood by Automated count</td><td><strong>441.2 H</strong></td><td>150 - 350</td><td>10*3/uL</td></tr></tbody></table></div>"
                },
                "title": "Hematology"
              },
              {
                "code": {
                  "coding": [
                    {
                      "code": "$18719-5",
                      "system": "http://loinc.org",
                      "display": "Chemistry studies (set)"
                    }
                  ],
                  "text": "Chemistry"
                },
                "entry": [
                  {
                    "reference": "urn:uuid:f3db1e4a-b1ac-43cd-9e37-0e5d902a5bbd"
                  },
                  {
                    "reference": "urn:uuid:d4bccba7-1661-42cc-ae40-7dc790afc258"
                  },
                  {
                    "reference": "urn:uuid:3e0ae2f6-ccd1-4a58-b522-2ebfef2c5d8b"
                  },
                  {
                    "reference": "urn:uuid:8202b013-5d56-4970-a250-9ab9c0870380"
                  },
                  {
                    "reference": "urn:uuid:8a4b2ea6-3d86-43aa-910a-0afdfe9be6ef"
                  },
                  {
                    "reference": "urn:uuid:038b3988-646d-4249-a23d-d2b0f537af2a"
                  },
                  {
                    "reference": "urn:uuid:878db1d0-ed20-46a1-a5d1-ad957dae6378"
                  },
                  {
                    "reference": "urn:uuid:8d8cdbd6-cecd-4c8f-83e1-0ec3c03f5b89"
                  },
                  {
                    "reference": "urn:uuid:0631dfee-21a4-4f83-8a5c-4a76b05d2528"
                  },
                  {
                    "reference": "urn:uuid:08ca0d21-6109-4253-b01d-20249820eebb"
                  },
                  {
                    "reference": "urn:uuid:adf9abfa-3aec-44f8-907d-951a6ea5ac05"
                  },
                  {
                    "reference": "urn:uuid:314460fe-9f5f-4fe0-a139-bcb611c6514c"
                  },
                  {
                    "reference": "urn:uuid:f5167644-af18-4cc3-bba9-b111a25cb6e4"
                  },
                  {
                    "reference": "urn:uuid:4e9321a2-d211-4f2d-a32c-f3e440d60910"
                  },
                  {
                    "reference": "urn:uuid:232c6203-0d34-4bfe-be91-f9260e9fdd77"
                  },
                  {
                    "reference": "urn:uuid:26a58cf1-3e15-4c95-a711-75145e33b834"
                  },
                  {
                    "reference": "urn:uuid:3487744b-a5d2-451b-95eb-d9198830337f"
                  },
                  {
                    "reference": "urn:uuid:0b0a5e82-73de-4421-9ba4-e05da4d19e27"
                  },
                  {
                    "reference": "urn:uuid:37405e13-0916-4494-9132-322349f1e3d5"
                  },
                  {
                    "reference": "urn:uuid:12796433-cda0-4ee4-b208-4a1f74092e3f"
                  },
                  {
                    "reference": "urn:uuid:9af18ea9-f4bf-47e5-9ae6-ece312b09828"
                  },
                  {
                    "reference": "urn:uuid:d59402c9-dd4d-4f96-abb8-697bf1a2ce8c"
                  },
                  {
                    "reference": "urn:uuid:0ad49c0c-fe6e-411e-87bb-cb3b7c1a580e"
                  },
                  {
                    "reference": "urn:uuid:62face7f-542a-4aca-96b6-585f36378b0d"
                  },
                  {
                    "reference": "urn:uuid:f609fae2-c3ed-4d10-9038-dbe789288260"
                  }
                ],
                "text": {
                  "status": "generated",
                  "div": "<div xmlns=\"http://www.w3.org/1999/xhtml\"><h3>Chemistry</h3><table class=\"hl7__eu__lab__report\"><thead><tr><th>Test</th><th>20-JUN-2017</th><th>Reference&#xA0;Range</th><th>Unit</th></tr></thead><tbody><tr><td>Glucose [Mass/volume] in Serum or Plasma</td><td>83.3</td><td>70 - 140</td><td>mg/dL</td></tr><tr><td>Urea nitrogen [Mass/volume] in Serum or Plasma</td><td>16.7</td><td>7 - 25</td><td>mg/dL</td></tr><tr><td>Creatinine [Mass/volume] in Serum or Plasma</td><td><strong>2.5 H</strong></td><td>0.6 - 1.1</td><td>mg/dL</td></tr><tr><td>Calcium [Mass/volume] in Serum or Plasma</td><td>10.2</td><td>8.5 - 10.4</td><td>mg/dL</td></tr><tr><td>Sodium [Moles/volume] in Serum or Plasma</td><td>142.6</td><td>135 - 145</td><td>mmol/L</td></tr><tr><td>Potassium [Moles/volume] in Serum or Plasma</td><td>4.0</td><td>3.5 - 5.3</td><td>mmol/L</td></tr><tr><td>Chloride [Moles/volume] in Serum or Plasma</td><td>105.7</td><td>98 - 108</td><td>mmol/L</td></tr><tr><td>Carbon dioxide, total [Moles/volume] in Serum or Plasma</td><td>25.6</td><td>22 - 29</td><td>mmol/L</td></tr><tr><td>Protein [Mass/volume] in Serum or Plasma</td><td>6.9</td><td>6 - 8.3</td><td>g/dL</td></tr><tr><td>Albumin [Mass/volume] in Serum or Plasma</td><td>4.8</td><td>3.5 - 5.5</td><td>g/dL</td></tr><tr><td>Bilirubin.total [Mass/volume] in Serum or Plasma</td><td><strong>11.5 H</strong></td><td>0.3 - 1.2</td><td>mg/dL</td></tr><tr><td>Alkaline phosphatase [Enzymatic activity/volume] in Serum or Plasma</td><td>69.6</td><td>35 - 270</td><td>U/L</td></tr><tr><td>Alanine aminotransferase [Enzymatic activity/volume] in Serum or Plasma</td><td>33.0</td><td>7 - 60</td><td>U/L</td></tr><tr><td>Aspartate aminotransferase [Enzymatic activity/volume] in Serum or Plasma</td><td>22.2</td><td>10 - 40</td><td>U/L</td></tr><tr><td>Magnesium [Mass/volume] in Serum or Plasma</td><td>1.9</td><td>1.6 - 2.3</td><td>mg/dL</td></tr><tr><td>Phosphate [Mass/volume] in Serum or Plasma</td><td>3.5</td><td>2.5 - 4.5</td><td>mg/dL</td></tr><tr><td>pH of Arterial blood</td><td><strong>7.2 L</strong></td><td>7.35 - 7.45</td><td>[pH]</td></tr><tr><td>Carbon dioxide [Partial pressure] in Arterial blood</td><td>40.2</td><td>38 - 48</td><td>mm[Hg]</td></tr><tr><td>Oxygen [Partial pressure] in Arterial blood</td><td>93.9</td><td>75 - 100</td><td>mm[Hg]</td></tr><tr><td>Bicarbonate [Moles/volume] in Arterial blood</td><td>24.2</td><td>22 - 31</td><td>mmol/L</td></tr><tr><td>Oxygen saturation in Arterial blood</td><td><strong>94.0 L</strong></td><td>95 - 100</td><td>%</td></tr><tr><td>Cholesterol [Mass/volume] in Serum or Plasma</td><td>159.4</td><td>125 - 200</td><td>mg/dL</td></tr><tr><td>Triglyceride [Mass/volume] in Serum or Plasma</td><td>126.3</td><td>0 - 150</td><td>mg/dL</td></tr><tr><td>Cholesterol in LDL [Mass/volume] in Serum or Plasma by Direct assay</td><td>79.3</td><td>0 - 130</td><td>mg/dL</td></tr><tr><td>Cholesterol in HDL [Mass/volume] in Serum or Plasma</td><td>54.9</td><td>50 - 100</td><td>mg/dL</td></tr></tbody></table></div>"
                },
                "title": "Chemistry"
              },
              {
                "code": {
                  "coding": [
                    {
                      "code": "$18720-3",
                      "system": "http://loinc.org",
                      "display": "Coagulation studies (set)"
                    }
                  ],
                  "text": "Coagulation"
                },
                "entry": [
                  {
                    "reference": "urn:uuid:1031e89e-8847-4725-9465-d44a9c432ceb"
                  },
                  {
                    "reference": "urn:uuid:adf1b473-0c9c-44d0-8605-981836401040"
                  },
                  {
                    "reference": "urn:uuid:de10af8c-fc72-4d07-af6f-107bdb4a6bf0"
                  }
                ],
                "text": {
                  "status": "generated",
                  "div": "<div xmlns=\"http://www.w3.org/1999/xhtml\"><h3>Coagulation</h3><table class=\"hl7__eu__lab__report\"><thead><tr><th>Test</th><th>20-JUN-2017</th><th>Reference&#xA0;Range</th><th>Unit</th></tr></thead><tbody><tr><td>Prothrombin time (PT)</td><td><strong>9.9 L</strong></td><td>11 - 15</td><td>s</td></tr><tr><td>INR in Platelet poor plasma by Coagulation assay</td><td>1.0</td><td>0.9 - 3</td><td>{INR}</td></tr><tr><td>aPTT in Blood by Coagulation assay</td><td>26.4</td><td>25 - 40</td><td>s</td></tr></tbody></table></div>"
                },
                "title": "Coagulation"
              }
            ],
            "title": "Laboratory Report"
          },
          {
            "text": {
              "status": "generated",
              "div": "<div xmlns=\"http://www.w3.org/1999/xhtml\"><h3>Annotation</h3><table class=\"hl7__eu__lab__report\"><tr><th>Conclusion and Recommendations based on this report and previous findings known to us</th></tr><tr><td>Most parameters are within normal limits. Notable findings include thrombocytosis (elevated platelets), markedly increased total bilirubin, elevated creatinine (suggesting impaired renal function), low prothrombin time, low arterial pH (acidemia), and mildly reduced arterial oxygen saturation. These findings may indicate renal dysfunction, possible liver dysfunction or hemolysis, and mild respiratory or metabolic acidosis. Clinical correlation and further evaluation are recommended.</td></tr></table></div>"
            },
            "code": {
              "coding": [
                {
                  "system": "http://loinc.org",
                  "code": "48767-8",
                  "display": "Annotation comment"
                }
              ]
            },
            "title": "Annotation comment"
          }
        ],
        "status": "final",
        "subject": {
          "reference": "urn:uuid:78620944-3324-43f3-a06c-c3b3879e00fa",
          "display": "Magdolna Balog"
        },
        "date": "2017-06-20T06:22:23Z",
        "title": "Laboratory Report",
        "confidentiality": "N"
      }
    },
    {
      "fullUrl": "urn:uuid:c572c524-7329-4f45-8c9b-358504c469dc",
      "resource": {
        "resourceType": "DiagnosticReport",
        "id": "c572c524-7329-4f45-8c9b-358504c469dc",
        "meta": {
          "profile": [
            "http://hl7.eu/fhir/laboratory/StructureDefinition/DiagnosticReport-eu-lab"
          ]
        },
        "identifier": [
          {
            "assigner": {
              "display": "HL7 Europe"
            },
            "system": "urn:oid:2.16.840.1.113883.2.51.999",
            "value": "577a0605-cbd5-48b0-96ae-39d9fbe10b56"
          }
        ],
        "extension": [
          {
            "url": "http://hl7.org/fhir/5.0/StructureDefinition/extension-DiagnosticReport.composition",
            "valueReference": {
              "reference": "urn:uuid:717a5835-4984-454c-901d-fcd89438429f"
            }
          }
        ],
        "category": [
          {
            "coding": [
              {
                "code": "26436-6",
                "system": "http://loinc.org",
                "display": "Laboratory studies (set)"
              }
            ]
          }
        ],
        "specimen": [
          {
            "reference": "urn:uuid:fb116013-04c7-4e1e-a39c-296656b39db3"
          },
          {
            "reference": "urn:uuid:fb116013-04c7-4e1e-a39c-296656b39db3"
          },
          {
            "reference": "urn:uuid:cb6c30d9-d686-40a1-ab37-89632478ba1a"
          },
          {
            "reference": "urn:uuid:165dd512-6ac5-46ba-8bc6-2af881532b8d"
          },
          {
            "reference": "urn:uuid:aac92db2-4d37-4332-9555-5eedbbaef4a6"
          }
        ],
        "result": [
          {
            "reference": "urn:uuid:202991ed-fb56-464c-a5ff-883cdcba38fd"
          },
          {
            "reference": "urn:uuid:6b2fcb7d-9d45-4e8a-ac1d-f2e08a90bbbc"
          },
          {
            "reference": "urn:uuid:38d74af3-3797-4145-a3b7-e8cdbc50e5a6"
          },
          {
            "reference": "urn:uuid:4cbafecb-ad3f-47b9-8b67-72a3eb18b2ba"
          },
          {
            "reference": "urn:uuid:949587c7-0a09-4251-bf12-e13040b900ea"
          },
          {
            "reference": "urn:uuid:8bc82f5e-aa49-4f6e-86d2-7de857c96573"
          },
          {
            "reference": "urn:uuid:fa15b97c-83fa-4c8b-a568-6680494fd4c6"
          },
          {
            "reference": "urn:uuid:cb498841-9421-4f3a-be13-3356086420e7"
          },
          {
            "reference": "urn:uuid:00db8fa4-8a10-465e-a5fd-1b95bfd6e8e3"
          },
          {
            "reference": "urn:uuid:f3db1e4a-b1ac-43cd-9e37-0e5d902a5bbd"
          },
          {
            "reference": "urn:uuid:d4bccba7-1661-42cc-ae40-7dc790afc258"
          },
          {
            "reference": "urn:uuid:3e0ae2f6-ccd1-4a58-b522-2ebfef2c5d8b"
          },
          {
            "reference": "urn:uuid:8202b013-5d56-4970-a250-9ab9c0870380"
          },
          {
            "reference": "urn:uuid:8a4b2ea6-3d86-43aa-910a-0afdfe9be6ef"
          },
          {
            "reference": "urn:uuid:038b3988-646d-4249-a23d-d2b0f537af2a"
          },
          {
            "reference": "urn:uuid:878db1d0-ed20-46a1-a5d1-ad957dae6378"
          },
          {
            "reference": "urn:uuid:8d8cdbd6-cecd-4c8f-83e1-0ec3c03f5b89"
          },
          {
            "reference": "urn:uuid:0631dfee-21a4-4f83-8a5c-4a76b05d2528"
          },
          {
            "reference": "urn:uuid:08ca0d21-6109-4253-b01d-20249820eebb"
          },
          {
            "reference": "urn:uuid:adf9abfa-3aec-44f8-907d-951a6ea5ac05"
          },
          {
            "reference": "urn:uuid:314460fe-9f5f-4fe0-a139-bcb611c6514c"
          },
          {
            "reference": "urn:uuid:f5167644-af18-4cc3-bba9-b111a25cb6e4"
          },
          {
            "reference": "urn:uuid:4e9321a2-d211-4f2d-a32c-f3e440d60910"
          },
          {
            "reference": "urn:uuid:232c6203-0d34-4bfe-be91-f9260e9fdd77"
          },
          {
            "reference": "urn:uuid:26a58cf1-3e15-4c95-a711-75145e33b834"
          },
          {
            "reference": "urn:uuid:1031e89e-8847-4725-9465-d44a9c432ceb"
          },
          {
            "reference": "urn:uuid:adf1b473-0c9c-44d0-8605-981836401040"
          },
          {
            "reference": "urn:uuid:de10af8c-fc72-4d07-af6f-107bdb4a6bf0"
          },
          {
            "reference": "urn:uuid:3487744b-a5d2-451b-95eb-d9198830337f"
          },
          {
            "reference": "urn:uuid:0b0a5e82-73de-4421-9ba4-e05da4d19e27"
          },
          {
            "reference": "urn:uuid:37405e13-0916-4494-9132-322349f1e3d5"
          },
          {
            "reference": "urn:uuid:12796433-cda0-4ee4-b208-4a1f74092e3f"
          },
          {
            "reference": "urn:uuid:9af18ea9-f4bf-47e5-9ae6-ece312b09828"
          },
          {
            "reference": "urn:uuid:d59402c9-dd4d-4f96-abb8-697bf1a2ce8c"
          },
          {
            "reference": "urn:uuid:0ad49c0c-fe6e-411e-87bb-cb3b7c1a580e"
          },
          {
            "reference": "urn:uuid:62face7f-542a-4aca-96b6-585f36378b0d"
          },
          {
            "reference": "urn:uuid:f609fae2-c3ed-4d10-9038-dbe789288260"
          }
        ],
        "status": "registered",
        "code": {
          "coding": [
            {
              "code": "11502-2",
              "system": "http://loinc.org",
              "display": "Laboratory report"
            }
          ]
        },
        "subject": {
          "reference": "urn:uuid:78620944-3324-43f3-a06c-c3b3879e00fa",
          "display": "Magdolna Balog"
        }
      }
    },
    {
      "fullUrl": "urn:uuid:78620944-3324-43f3-a06c-c3b3879e00fa",
      "resource": {
        "resourceType": "Patient",
        "id": "78620944-3324-43f3-a06c-c3b3879e00fa",
        "meta": {
          "security": [
            {
              "system": "http://terminology.hl7.org/CodeSystem/v3-ActReason",
              "code": "HTEST"
            },
            {
              "system": "http://terminology.hl7.org/CodeSystem/v3-ActReason",
              "code": "TRAIN"
            }
          ],
          "tag": [
            {
              "system": "https://synderai.net/fhir/CodeSystem/tags",
              "code": "synthetic",
              "display": "SYNDERAI Synthetic data"
            }
          ],
          "profile": [
            "http://hl7.eu/fhir/base/StructureDefinition/patient-eu-core"
          ]
        },
        "identifier": [
          {
            "type": {
              "coding": [
                {
                  "code": "PT",
                  "system": "http://terminology.hl7.org/CodeSystem/v2-0203"
                }
              ]
            },
            "system": "http://ec.europa.eu/identifier/eci",
            "value": "2437-386280-4"
          },
          {
            "type": {
              "coding": [
                {
                  "code": "MR",
                  "system": "http://terminology.hl7.org/CodeSystem/v2-0203"
                }
              ]
            },
            "system": "http://local.setting.eu/identifier",
            "value": "1d8dc8c5-3a85-b1b5-4101-cca776d0be28"
          }
        ],
        "name": [
          {
            "family": "Balog"
          },
          {
            "given": [
              "Magdolna"
            ]
          },
          {
            "text": "Magdolna Balog"
          }
        ],
        "address": [
          {
            "line": [
              "Ady endre utca 160."
            ],
            "use": "home",
            "type": "physical",
            "postalCode": "3989",
            "city": "Némethídfa",
            "country": "Hungary"
          }
        ],
        "telecom": [
          {
            "system": "phone",
            "value": "+36 46 091-2914"
          }
        ],
        "extension": [
          {
            "url": "http://hl7.org/fhir/StructureDefinition/patient-nationality",
            "valueCodeableConcept": {
              "coding": [
                {
                  "code": "HU",
                  "system": "http://hl7.org/fhir/ValueSet/country"
                }
              ]
            }
          }
        ],
        "text": {
          "status": "generated",
          "div": "<div xmlns=\"http://www.w3.org/1999/xhtml\"><table class=\"hl7__ips\"><tr><td>Magdolna Balog</td><td>female</td><td>21-May-1946</td></tr></table></div>"
        },
        "gender": "female",
        "birthDate": "1946-05-21"
      }
    },
    {
      "fullUrl": "urn:uuid:b3e13f93-a0fb-4fd0-af73-da6b31332c78",
      "resource": {
        "resourceType": "ServiceRequest",
        "id": "b3e13f93-a0fb-4fd0-af73-da6b31332c78",
        "meta": {
          "profile": [
            "http://hl7.eu/fhir/laboratory/StructureDefinition/ServiceRequest-eu-lab"
          ]
        },
        "identifier": [
          {
            "system": "http://example.org",
            "value": "90019c54-3bec-4bce-b76d-22e53c7f9eb1"
          }
        ],
        "specimen": [
          {
            "reference": "urn:uuid:fb116013-04c7-4e1e-a39c-296656b39db3"
          },
          {
            "reference": "urn:uuid:cb6c30d9-d686-40a1-ab37-89632478ba1a"
          },
          {
            "reference": "urn:uuid:165dd512-6ac5-46ba-8bc6-2af881532b8d"
          },
          {
            "reference": "urn:uuid:aac92db2-4d37-4332-9555-5eedbbaef4a6"
          }
        ],
        "reasonCode": [
          {
            "coding": [
              {
                "code": "26929004",
                "system": "http://snomed.info/sct",
                "display": "Alzheimer&#039;s disease"
              }
            ]
          },
          {
            "coding": [
              {
                "code": "414545008",
                "system": "http://snomed.info/sct",
                "display": "Ischemic heart disease"
              }
            ]
          },
          {
            "coding": [
              {
                "code": "49436004",
                "system": "http://snomed.info/sct",
                "display": "Atrial fibrillation"
              }
            ]
          },
          {
            "coding": [
              {
                "code": "64859006",
                "system": "http://snomed.info/sct",
                "display": "Osteoporosis"
              }
            ]
          },
          {
            "coding": [
              {
                "code": "15777000",
                "system": "http://snomed.info/sct",
                "display": "Prediabetes"
              }
            ]
          },
          {
            "coding": [
              {
                "code": "271737000",
                "system": "http://snomed.info/sct",
                "display": "Anemia"
              }
            ]
          }
        ],
        "status": "active",
        "intent": "order",
        "code": {
          "coding": [
            {
              "code": "108252007",
              "system": "http://snomed.info/sct",
              "display": "Laboratory procedure"
            }
          ]
        },
        "subject": {
          "reference": "urn:uuid:78620944-3324-43f3-a06c-c3b3879e00fa",
          "display": "Magdolna Balog"
        },
        "requester": {
          "reference": "urn:uuid:e0d20b59-dd92-4606-ad09-4848f3e8ca83"
        }
      }
    },
    {
      "fullUrl": "urn:uuid:e0d20b59-dd92-4606-ad09-4848f3e8ca83",
      "resource": {
        "resourceType": "PractitionerRole",
        "id": "e0d20b59-dd92-4606-ad09-4848f3e8ca83",
        "meta": {
          "profile": [
            "http://hl7.eu/fhir/base/StructureDefinition/practitionerRole-eu"
          ]
        },
        "text": {
          "status": "generated",
          "div": "<div xmlns=\"http://www.w3.org/1999/xhtml\">Provider Role Id: e0d20b59-dd92-4606-ad09-4848f3e8ca83</div>"
        },
        "organization": {
          "reference": "urn:uuid:b4982003-8aeb-41b9-89bc-47150ca49198"
        }
      }
    },
    {
      "fullUrl": "urn:uuid:b4982003-8aeb-41b9-89bc-47150ca49198",
      "resource": {
        "resourceType": "Organization",
        "id": "b4982003-8aeb-41b9-89bc-47150ca49198",
        "meta": {
          "profile": [
            "http://hl7.eu/fhir/base/StructureDefinition/organization-eu"
          ]
        },
        "identifier": [
          {
            "assigner": {
              "display": "HL7 Europe"
            },
            "system": "urn:oid:2.16.840.1.113883.2.51.999",
            "value": "c90d6be5-226f-4c4a-b086-7d130f5afd89"
          }
        ],
        "address": [
          {
            "line": [
              "Csabai kapu 9-11"
            ],
            "city": "Miskolc",
            "postalCode": "3529",
            "country": "Hungary"
          }
        ],
        "text": {
          "status": "generated",
          "div": "<div xmlns=\"http://www.w3.org/1999/xhtml\">Provider Organization: Semmelweis Ignác Egészségügyi Központ és Egyetemi Oktató Kórház</div>"
        },
        "name": "Semmelweis Ignác Egészségügyi Központ és Egyetemi Oktató Kórház"
      }
    },
    {
      "fullUrl": "urn:uuid:fb116013-04c7-4e1e-a39c-296656b39db3",
      "resource": {
        "resourceType": "Specimen",
        "id": "fb116013-04c7-4e1e-a39c-296656b39db3",
        "meta": {
          "profile": [
            "http://hl7.eu/fhir/laboratory/StructureDefinition/Specimen-eu-lab"
          ]
        },
        "collection": {
          "collectedDateTime": "2017-06-20"
        },
        "text": {
          "status": "generated",
          "div": "<div xmlns=\"http://www.w3.org/1999/xhtml\"><table class=\"hl7__eu__lab__report\"><tr><th>Specimen</th><th>Collection Date</th></tr><tr><td>Whole blood specimen (specimen)</td><td><span class=\"nb\">20-Jun-2017</span></td></tr></table></div>"
        },
        "type": {
          "coding": [
            {
              "code": "258580003",
              "system": "http://snomed.info/sct",
              "display": "Whole blood specimen (specimen)"
            }
          ]
        }
      }
    },
    {
      "fullUrl": "urn:uuid:fb116013-04c7-4e1e-a39c-296656b39db3",
      "resource": {
        "resourceType": "Specimen",
        "id": "fb116013-04c7-4e1e-a39c-296656b39db3",
        "meta": {
          "profile": [
            "http://hl7.eu/fhir/laboratory/StructureDefinition/Specimen-eu-lab"
          ]
        },
        "collection": {
          "collectedDateTime": "2017-06-20"
        },
        "text": {
          "status": "generated",
          "div": "<div xmlns=\"http://www.w3.org/1999/xhtml\"><table class=\"hl7__eu__lab__report\"><tr><th>Specimen</th><th>Collection Date</th></tr><tr><td>Whole blood specimen (specimen)</td><td><span class=\"nb\">20-Jun-2017</span></td></tr></table></div>"
        },
        "type": {
          "coding": [
            {
              "code": "258580003",
              "system": "http://snomed.info/sct",
              "display": "Whole blood specimen (specimen)"
            }
          ]
        }
      }
    },
    {
      "fullUrl": "urn:uuid:cb6c30d9-d686-40a1-ab37-89632478ba1a",
      "resource": {
        "resourceType": "Specimen",
        "id": "cb6c30d9-d686-40a1-ab37-89632478ba1a",
        "meta": {
          "profile": [
            "http://hl7.eu/fhir/laboratory/StructureDefinition/Specimen-eu-lab"
          ]
        },
        "collection": {
          "collectedDateTime": "2017-06-20"
        },
        "text": {
          "status": "generated",
          "div": "<div xmlns=\"http://www.w3.org/1999/xhtml\"><table class=\"hl7__eu__lab__report\"><tr><th>Specimen</th><th>Collection Date</th></tr><tr><td>Acellular blood (serum or plasma) specimen</td><td><span class=\"nb\">20-Jun-2017</span></td></tr></table></div>"
        },
        "type": {
          "coding": [
            {
              "code": "122592007",
              "system": "http://snomed.info/sct",
              "display": "Acellular blood (serum or plasma) specimen"
            }
          ]
        }
      }
    },
    {
      "fullUrl": "urn:uuid:165dd512-6ac5-46ba-8bc6-2af881532b8d",
      "resource": {
        "resourceType": "Specimen",
        "id": "165dd512-6ac5-46ba-8bc6-2af881532b8d",
        "meta": {
          "profile": [
            "http://hl7.eu/fhir/laboratory/StructureDefinition/Specimen-eu-lab"
          ]
        },
        "collection": {
          "collectedDateTime": "2017-06-20"
        },
        "text": {
          "status": "generated",
          "div": "<div xmlns=\"http://www.w3.org/1999/xhtml\"><table class=\"hl7__eu__lab__report\"><tr><th>Specimen</th><th>Collection Date</th></tr><tr><td>Platelet poor plasma specimen</td><td><span class=\"nb\">20-Jun-2017</span></td></tr></table></div>"
        },
        "type": {
          "coding": [
            {
              "code": "119362004",
              "system": "http://snomed.info/sct",
              "display": "Platelet poor plasma specimen"
            }
          ]
        }
      }
    },
    {
      "fullUrl": "urn:uuid:aac92db2-4d37-4332-9555-5eedbbaef4a6",
      "resource": {
        "resourceType": "Specimen",
        "id": "aac92db2-4d37-4332-9555-5eedbbaef4a6",
        "meta": {
          "profile": [
            "http://hl7.eu/fhir/laboratory/StructureDefinition/Specimen-eu-lab"
          ]
        },
        "collection": {
          "collectedDateTime": "2017-06-20"
        },
        "text": {
          "status": "generated",
          "div": "<div xmlns=\"http://www.w3.org/1999/xhtml\"><table class=\"hl7__eu__lab__report\"><tr><th>Specimen</th><th>Collection Date</th></tr><tr><td>Arterial blood specimen</td><td><span class=\"nb\">20-Jun-2017</span></td></tr></table></div>"
        },
        "type": {
          "coding": [
            {
              "code": "122552005",
              "system": "http://snomed.info/sct",
              "display": "Arterial blood specimen"
            }
          ]
        }
      }
    },
    {
      "fullUrl": "urn:uuid:202991ed-fb56-464c-a5ff-883cdcba38fd",
      "resource": {
        "resourceType": "Observation",
        "id": "202991ed-fb56-464c-a5ff-883cdcba38fd",
        "meta": {
          "profile": [
            "http://hl7.eu/fhir/laboratory/StructureDefinition/Observation-resultslab-eu-lab"
          ]
        },
        "performer": [
          {
            "display": "The Central European Lab"
          }
        ],
        "category": [
          {
            "coding": [
              {
                "system": "http://terminology.hl7.org/CodeSystem/observation-category",
                "code": "laboratory"
              }
            ]
          }
        ],
        "code": {
          "coding": [
            {
              "code": "6690-2",
              "system": "http://loinc.org",
              "display": "Leukocytes [#/volume] in Blood by Automated count"
            }
          ],
          "text": "Leukocytes [#/volume] in Blood by Automated count"
        },
        "valueQuantity": {
          "system": "http://unitsofmeasure.org",
          "value": 9,
          "unit": "10*3/uL",
          "code": "10*3/uL"
        },
        "referenceRange": [
          {
            "low": {
              "value": 4,
              "code": "10*3/uL",
              "system": "http://unitsofmeasure.org"
            }
          },
          {
            "high": {
              "value": 11,
              "code": "10*3/uL",
              "system": "http://unitsofmeasure.org"
            }
          }
        ],
        "text": {
          "status": "generated",
          "div": "<div xmlns=\"http://www.w3.org/1999/xhtml\"><table class=\"hl7__eu__lab__report\"><tr><th>Test</th><th>20-Jun-2017</th><th>Reference&#xA0;Range</th><th>Unit</th></tr><tr><td>Leukocytes [#/volume] in Blood by Automated count</td><td>9.0</td><td>4 - 11</td><td></td><td>10*3/uL</td></tr></table></div>"
        },
        "status": "final",
        "subject": {
          "reference": "urn:uuid:78620944-3324-43f3-a06c-c3b3879e00fa",
          "display": "Magdolna Balog"
        },
        "effectiveDateTime": "2017-06-20T04:22:23Z",
        "specimen": {
          "reference": "urn:uuid:fb116013-04c7-4e1e-a39c-296656b39db3"
        }
      }
    },
    {
      "fullUrl": "urn:uuid:6b2fcb7d-9d45-4e8a-ac1d-f2e08a90bbbc",
      "resource": {
        "resourceType": "Observation",
        "id": "6b2fcb7d-9d45-4e8a-ac1d-f2e08a90bbbc",
        "meta": {
          "profile": [
            "http://hl7.eu/fhir/laboratory/StructureDefinition/Observation-resultslab-eu-lab"
          ]
        },
        "performer": [
          {
            "display": "The Central European Lab"
          }
        ],
        "category": [
          {
            "coding": [
              {
                "system": "http://terminology.hl7.org/CodeSystem/observation-category",
                "code": "laboratory"
              }
            ]
          }
        ],
        "code": {
          "coding": [
            {
              "code": "789-8",
              "system": "http://loinc.org",
              "display": "Erythrocytes [#/volume] in Blood by Automated count"
            }
          ],
          "text": "Erythrocytes [#/volume] in Blood by Automated count"
        },
        "valueQuantity": {
          "system": "http://unitsofmeasure.org",
          "value": 4.8,
          "unit": "10*6/uL",
          "code": "10*6/uL"
        },
        "referenceRange": [
          {
            "low": {
              "value": 4.2,
              "code": "10*6/uL",
              "system": "http://unitsofmeasure.org"
            }
          },
          {
            "high": {
              "value": 5.8,
              "code": "10*6/uL",
              "system": "http://unitsofmeasure.org"
            }
          }
        ],
        "text": {
          "status": "generated",
          "div": "<div xmlns=\"http://www.w3.org/1999/xhtml\"><table class=\"hl7__eu__lab__report\"><tr><th>Test</th><th>20-Jun-2017</th><th>Reference&#xA0;Range</th><th>Unit</th></tr><tr><td>Erythrocytes [#/volume] in Blood by Automated count</td><td>4.8</td><td>4.2 - 5.8</td><td></td><td>10*6/uL</td></tr></table></div>"
        },
        "status": "final",
        "subject": {
          "reference": "urn:uuid:78620944-3324-43f3-a06c-c3b3879e00fa",
          "display": "Magdolna Balog"
        },
        "effectiveDateTime": "2017-06-20T04:22:23Z",
        "specimen": {
          "reference": "urn:uuid:fb116013-04c7-4e1e-a39c-296656b39db3"
        }
      }
    },
    {
      "fullUrl": "urn:uuid:38d74af3-3797-4145-a3b7-e8cdbc50e5a6",
      "resource": {
        "resourceType": "Observation",
        "id": "38d74af3-3797-4145-a3b7-e8cdbc50e5a6",
        "meta": {
          "profile": [
            "http://hl7.eu/fhir/laboratory/StructureDefinition/Observation-resultslab-eu-lab"
          ]
        },
        "performer": [
          {
            "display": "The Central European Lab"
          }
        ],
        "category": [
          {
            "coding": [
              {
                "system": "http://terminology.hl7.org/CodeSystem/observation-category",
                "code": "laboratory"
              }
            ]
          }
        ],
        "code": {
          "coding": [
            {
              "code": "718-7",
              "system": "http://loinc.org",
              "display": "Hemoglobin [Mass/volume] in Blood"
            }
          ],
          "text": "Hemoglobin [Mass/volume] in Blood"
        },
        "valueQuantity": {
          "system": "http://unitsofmeasure.org",
          "value": 14.6,
          "unit": "g/dL",
          "code": "g/dL"
        },
        "referenceRange": [
          {
            "low": {
              "value": 12,
              "code": "g/dL",
              "system": "http://unitsofmeasure.org"
            }
          },
          {
            "high": {
              "value": 16,
              "code": "g/dL",
              "system": "http://unitsofmeasure.org"
            }
          }
        ],
        "text": {
          "status": "generated",
          "div": "<div xmlns=\"http://www.w3.org/1999/xhtml\"><table class=\"hl7__eu__lab__report\"><tr><th>Test</th><th>20-Jun-2017</th><th>Reference&#xA0;Range</th><th>Unit</th></tr><tr><td>Hemoglobin [Mass/volume] in Blood</td><td>14.6</td><td>12 - 16</td><td></td><td>g/dL</td></tr></table></div>"
        },
        "status": "final",
        "subject": {
          "reference": "urn:uuid:78620944-3324-43f3-a06c-c3b3879e00fa",
          "display": "Magdolna Balog"
        },
        "effectiveDateTime": "2017-06-20T04:22:23Z",
        "specimen": {
          "reference": "urn:uuid:fb116013-04c7-4e1e-a39c-296656b39db3"
        }
      }
    },
    {
      "fullUrl": "urn:uuid:4cbafecb-ad3f-47b9-8b67-72a3eb18b2ba",
      "resource": {
        "resourceType": "Observation",
        "id": "4cbafecb-ad3f-47b9-8b67-72a3eb18b2ba",
        "meta": {
          "profile": [
            "http://hl7.eu/fhir/laboratory/StructureDefinition/Observation-resultslab-eu-lab"
          ]
        },
        "performer": [
          {
            "display": "The Central European Lab"
          }
        ],
        "category": [
          {
            "coding": [
              {
                "system": "http://terminology.hl7.org/CodeSystem/observation-category",
                "code": "laboratory"
              }
            ]
          }
        ],
        "code": {
          "coding": [
            {
              "code": "4544-3",
              "system": "http://loinc.org",
              "display": "Hematocrit [Volume Fraction] of Blood by Automated count"
            }
          ],
          "text": "Hematocrit [Volume Fraction] of Blood by Automated count"
        },
        "valueQuantity": {
          "system": "http://unitsofmeasure.org",
          "value": 41.7,
          "unit": "%",
          "code": "%"
        },
        "referenceRange": [
          {
            "low": {
              "value": 36,
              "code": "%",
              "system": "http://unitsofmeasure.org"
            }
          },
          {
            "high": {
              "value": 48,
              "code": "%",
              "system": "http://unitsofmeasure.org"
            }
          }
        ],
        "text": {
          "status": "generated",
          "div": "<div xmlns=\"http://www.w3.org/1999/xhtml\"><table class=\"hl7__eu__lab__report\"><tr><th>Test</th><th>20-Jun-2017</th><th>Reference&#xA0;Range</th><th>Unit</th></tr><tr><td>Hematocrit [Volume Fraction] of Blood by Automated count</td><td>41.7</td><td>36 - 48</td><td></td><td>%</td></tr></table></div>"
        },
        "status": "final",
        "subject": {
          "reference": "urn:uuid:78620944-3324-43f3-a06c-c3b3879e00fa",
          "display": "Magdolna Balog"
        },
        "effectiveDateTime": "2017-06-20T04:22:23Z",
        "specimen": {
          "reference": "urn:uuid:fb116013-04c7-4e1e-a39c-296656b39db3"
        }
      }
    },
    {
      "fullUrl": "urn:uuid:949587c7-0a09-4251-bf12-e13040b900ea",
      "resource": {
        "resourceType": "Observation",
        "id": "949587c7-0a09-4251-bf12-e13040b900ea",
        "meta": {
          "profile": [
            "http://hl7.eu/fhir/laboratory/StructureDefinition/Observation-resultslab-eu-lab"
          ]
        },
        "performer": [
          {
            "display": "The Central European Lab"
          }
        ],
        "category": [
          {
            "coding": [
              {
                "system": "http://terminology.hl7.org/CodeSystem/observation-category",
                "code": "laboratory"
              }
            ]
          }
        ],
        "code": {
          "coding": [
            {
              "code": "787-2",
              "system": "http://loinc.org",
              "display": "MCV [Entitic volume] by Automated count"
            }
          ],
          "text": "MCV [Entitic volume] by Automated count"
        },
        "valueQuantity": {
          "system": "http://unitsofmeasure.org",
          "value": 86.4,
          "unit": "fL",
          "code": "fL"
        },
        "referenceRange": [
          {
            "low": {
              "value": 78,
              "code": "fL",
              "system": "http://unitsofmeasure.org"
            }
          },
          {
            "high": {
              "value": 98,
              "code": "fL",
              "system": "http://unitsofmeasure.org"
            }
          }
        ],
        "text": {
          "status": "generated",
          "div": "<div xmlns=\"http://www.w3.org/1999/xhtml\"><table class=\"hl7__eu__lab__report\"><tr><th>Test</th><th>20-Jun-2017</th><th>Reference&#xA0;Range</th><th>Unit</th></tr><tr><td>MCV [Entitic volume] by Automated count</td><td>86.4</td><td>78 - 98</td><td></td><td>fL</td></tr></table></div>"
        },
        "status": "final",
        "subject": {
          "reference": "urn:uuid:78620944-3324-43f3-a06c-c3b3879e00fa",
          "display": "Magdolna Balog"
        },
        "effectiveDateTime": "2017-06-20T04:22:23Z",
        "specimen": {
          "reference": "urn:uuid:fb116013-04c7-4e1e-a39c-296656b39db3"
        }
      }
    },
    {
      "fullUrl": "urn:uuid:8bc82f5e-aa49-4f6e-86d2-7de857c96573",
      "resource": {
        "resourceType": "Observation",
        "id": "8bc82f5e-aa49-4f6e-86d2-7de857c96573",
        "meta": {
          "profile": [
            "http://hl7.eu/fhir/laboratory/StructureDefinition/Observation-resultslab-eu-lab"
          ]
        },
        "performer": [
          {
            "display": "The Central European Lab"
          }
        ],
        "category": [
          {
            "coding": [
              {
                "system": "http://terminology.hl7.org/CodeSystem/observation-category",
                "code": "laboratory"
              }
            ]
          }
        ],
        "code": {
          "coding": [
            {
              "code": "785-6",
              "system": "http://loinc.org",
              "display": "MCH [Entitic mass] by Automated count"
            }
          ],
          "text": "MCH [Entitic mass] by Automated count"
        },
        "valueQuantity": {
          "system": "http://unitsofmeasure.org",
          "value": 32.8,
          "unit": "pg",
          "code": "pg"
        },
        "referenceRange": [
          {
            "low": {
              "value": 27,
              "code": "pg",
              "system": "http://unitsofmeasure.org"
            }
          },
          {
            "high": {
              "value": 34.5,
              "code": "pg",
              "system": "http://unitsofmeasure.org"
            }
          }
        ],
        "text": {
          "status": "generated",
          "div": "<div xmlns=\"http://www.w3.org/1999/xhtml\"><table class=\"hl7__eu__lab__report\"><tr><th>Test</th><th>20-Jun-2017</th><th>Reference&#xA0;Range</th><th>Unit</th></tr><tr><td>MCH [Entitic mass] by Automated count</td><td>32.8</td><td>27 - 34.5</td><td></td><td>pg</td></tr></table></div>"
        },
        "status": "final",
        "subject": {
          "reference": "urn:uuid:78620944-3324-43f3-a06c-c3b3879e00fa",
          "display": "Magdolna Balog"
        },
        "effectiveDateTime": "2017-06-20T04:22:23Z",
        "specimen": {
          "reference": "urn:uuid:fb116013-04c7-4e1e-a39c-296656b39db3"
        }
      }
    },
    {
      "fullUrl": "urn:uuid:fa15b97c-83fa-4c8b-a568-6680494fd4c6",
      "resource": {
        "resourceType": "Observation",
        "id": "fa15b97c-83fa-4c8b-a568-6680494fd4c6",
        "meta": {
          "profile": [
            "http://hl7.eu/fhir/laboratory/StructureDefinition/Observation-resultslab-eu-lab"
          ]
        },
        "performer": [
          {
            "display": "The Central European Lab"
          }
        ],
        "category": [
          {
            "coding": [
              {
                "system": "http://terminology.hl7.org/CodeSystem/observation-category",
                "code": "laboratory"
              }
            ]
          }
        ],
        "code": {
          "coding": [
            {
              "code": "786-4",
              "system": "http://loinc.org",
              "display": "MCHC [Mass/volume] by Automated count"
            }
          ],
          "text": "MCHC [Mass/volume] by Automated count"
        },
        "valueQuantity": {
          "system": "http://unitsofmeasure.org",
          "value": 32.3,
          "unit": "g/dL",
          "code": "g/dL"
        },
        "referenceRange": [
          {
            "low": {
              "value": 31.5,
              "code": "g/dL",
              "system": "http://unitsofmeasure.org"
            }
          },
          {
            "high": {
              "value": 35.5,
              "code": "g/dL",
              "system": "http://unitsofmeasure.org"
            }
          }
        ],
        "text": {
          "status": "generated",
          "div": "<div xmlns=\"http://www.w3.org/1999/xhtml\"><table class=\"hl7__eu__lab__report\"><tr><th>Test</th><th>20-Jun-2017</th><th>Reference&#xA0;Range</th><th>Unit</th></tr><tr><td>MCHC [Mass/volume] by Automated count</td><td>32.3</td><td>31.5 - 35.5</td><td></td><td>g/dL</td></tr></table></div>"
        },
        "status": "final",
        "subject": {
          "reference": "urn:uuid:78620944-3324-43f3-a06c-c3b3879e00fa",
          "display": "Magdolna Balog"
        },
        "effectiveDateTime": "2017-06-20T04:22:23Z",
        "specimen": {
          "reference": "urn:uuid:fb116013-04c7-4e1e-a39c-296656b39db3"
        }
      }
    },
    {
      "fullUrl": "urn:uuid:cb498841-9421-4f3a-be13-3356086420e7",
      "resource": {
        "resourceType": "Observation",
        "id": "cb498841-9421-4f3a-be13-3356086420e7",
        "meta": {
          "profile": [
            "http://hl7.eu/fhir/laboratory/StructureDefinition/Observation-resultslab-eu-lab"
          ]
        },
        "performer": [
          {
            "display": "The Central European Lab"
          }
        ],
        "category": [
          {
            "coding": [
              {
                "system": "http://terminology.hl7.org/CodeSystem/observation-category",
                "code": "laboratory"
              }
            ]
          }
        ],
        "code": {
          "coding": [
            {
              "code": "788-0",
              "system": "http://loinc.org",
              "display": "Erythrocyte distribution width [Ratio] by Automated count"
            }
          ],
          "text": "Erythrocyte distribution width [Ratio] by Automated count"
        },
        "valueQuantity": {
          "system": "http://unitsofmeasure.org",
          "value": 13.4,
          "unit": "%",
          "code": "%"
        },
        "referenceRange": [
          {
            "low": {
              "value": 11.5,
              "code": "%",
              "system": "http://unitsofmeasure.org"
            }
          },
          {
            "high": {
              "value": 16,
              "code": "%",
              "system": "http://unitsofmeasure.org"
            }
          }
        ],
        "text": {
          "status": "generated",
          "div": "<div xmlns=\"http://www.w3.org/1999/xhtml\"><table class=\"hl7__eu__lab__report\"><tr><th>Test</th><th>20-Jun-2017</th><th>Reference&#xA0;Range</th><th>Unit</th></tr><tr><td>Erythrocyte distribution width [Ratio] by Automated count</td><td>13.4</td><td>11.5 - 16</td><td></td><td>%</td></tr></table></div>"
        },
        "status": "final",
        "subject": {
          "reference": "urn:uuid:78620944-3324-43f3-a06c-c3b3879e00fa",
          "display": "Magdolna Balog"
        },
        "effectiveDateTime": "2017-06-20T04:22:23Z",
        "specimen": {
          "reference": "urn:uuid:fb116013-04c7-4e1e-a39c-296656b39db3"
        }
      }
    },
    {
      "fullUrl": "urn:uuid:00db8fa4-8a10-465e-a5fd-1b95bfd6e8e3",
      "resource": {
        "resourceType": "Observation",
        "id": "00db8fa4-8a10-465e-a5fd-1b95bfd6e8e3",
        "meta": {
          "profile": [
            "http://hl7.eu/fhir/laboratory/StructureDefinition/Observation-resultslab-eu-lab"
          ]
        },
        "performer": [
          {
            "display": "The Central European Lab"
          }
        ],
        "category": [
          {
            "coding": [
              {
                "system": "http://terminology.hl7.org/CodeSystem/observation-category",
                "code": "laboratory"
              }
            ]
          }
        ],
        "code": {
          "coding": [
            {
              "code": "777-3",
              "system": "http://loinc.org",
              "display": "Platelets [#/volume] in Blood by Automated count"
            }
          ],
          "text": "Platelets [#/volume] in Blood by Automated count"
        },
        "valueQuantity": {
          "system": "http://unitsofmeasure.org",
          "value": 441.2,
          "unit": "10*3/uL",
          "code": "10*3/uL"
        },
        "referenceRange": [
          {
            "low": {
              "value": 150,
              "code": "10*3/uL",
              "system": "http://unitsofmeasure.org"
            }
          },
          {
            "high": {
              "value": 350,
              "code": "10*3/uL",
              "system": "http://unitsofmeasure.org"
            }
          }
        ],
        "interpretation": [
          {
            "coding": [
              {
                "code": "H",
                "system": "http://terminology.hl7.org/CodeSystem/v3-ObservationInterpretation",
                "display": "High"
              }
            ]
          }
        ],
        "text": {
          "status": "generated",
          "div": "<div xmlns=\"http://www.w3.org/1999/xhtml\"><table class=\"hl7__eu__lab__report\"><tr><th>Test</th><th>20-Jun-2017</th><th>Reference&#xA0;Range</th><th>Unit</th></tr><tr><td>Platelets [#/volume] in Blood by Automated count</td><td>441.2</td><td>150 - 350</td><td>H</td><td>10*3/uL</td></tr></table></div>"
        },
        "status": "final",
        "subject": {
          "reference": "urn:uuid:78620944-3324-43f3-a06c-c3b3879e00fa",
          "display": "Magdolna Balog"
        },
        "effectiveDateTime": "2017-06-20T04:22:23Z",
        "specimen": {
          "reference": "urn:uuid:fb116013-04c7-4e1e-a39c-296656b39db3"
        }
      }
    },
    {
      "fullUrl": "urn:uuid:f3db1e4a-b1ac-43cd-9e37-0e5d902a5bbd",
      "resource": {
        "resourceType": "Observation",
        "id": "f3db1e4a-b1ac-43cd-9e37-0e5d902a5bbd",
        "meta": {
          "profile": [
            "http://hl7.eu/fhir/laboratory/StructureDefinition/Observation-resultslab-eu-lab"
          ]
        },
        "performer": [
          {
            "display": "The Central European Lab"
          }
        ],
        "category": [
          {
            "coding": [
              {
                "system": "http://terminology.hl7.org/CodeSystem/observation-category",
                "code": "laboratory"
              }
            ]
          }
        ],
        "code": {
          "coding": [
            {
              "code": "2345-7",
              "system": "http://loinc.org",
              "display": "Glucose [Mass/volume] in Serum or Plasma"
            }
          ],
          "text": "Glucose [Mass/volume] in Serum or Plasma"
        },
        "valueQuantity": {
          "system": "http://unitsofmeasure.org",
          "value": 83.3,
          "unit": "mg/dL",
          "code": "mg/dL"
        },
        "referenceRange": [
          {
            "low": {
              "value": 70,
              "code": "mg/dL",
              "system": "http://unitsofmeasure.org"
            }
          },
          {
            "high": {
              "value": 140,
              "code": "mg/dL",
              "system": "http://unitsofmeasure.org"
            }
          }
        ],
        "text": {
          "status": "generated",
          "div": "<div xmlns=\"http://www.w3.org/1999/xhtml\"><table class=\"hl7__eu__lab__report\"><tr><th>Test</th><th>20-Jun-2017</th><th>Reference&#xA0;Range</th><th>Unit</th></tr><tr><td>Glucose [Mass/volume] in Serum or Plasma</td><td>83.3</td><td>70 - 140</td><td></td><td>mg/dL</td></tr></table></div>"
        },
        "status": "final",
        "subject": {
          "reference": "urn:uuid:78620944-3324-43f3-a06c-c3b3879e00fa",
          "display": "Magdolna Balog"
        },
        "effectiveDateTime": "2017-06-20T04:22:23Z",
        "specimen": {
          "reference": "urn:uuid:cb6c30d9-d686-40a1-ab37-89632478ba1a"
        }
      }
    },
    {
      "fullUrl": "urn:uuid:d4bccba7-1661-42cc-ae40-7dc790afc258",
      "resource": {
        "resourceType": "Observation",
        "id": "d4bccba7-1661-42cc-ae40-7dc790afc258",
        "meta": {
          "profile": [
            "http://hl7.eu/fhir/laboratory/StructureDefinition/Observation-resultslab-eu-lab"
          ]
        },
        "performer": [
          {
            "display": "The Central European Lab"
          }
        ],
        "category": [
          {
            "coding": [
              {
                "system": "http://terminology.hl7.org/CodeSystem/observation-category",
                "code": "laboratory"
              }
            ]
          }
        ],
        "code": {
          "coding": [
            {
              "code": "3094-0",
              "system": "http://loinc.org",
              "display": "Urea nitrogen [Mass/volume] in Serum or Plasma"
            }
          ],
          "text": "Urea nitrogen [Mass/volume] in Serum or Plasma"
        },
        "valueQuantity": {
          "system": "http://unitsofmeasure.org",
          "value": 16.7,
          "unit": "mg/dL",
          "code": "mg/dL"
        },
        "referenceRange": [
          {
            "low": {
              "value": 7,
              "code": "mg/dL",
              "system": "http://unitsofmeasure.org"
            }
          },
          {
            "high": {
              "value": 25,
              "code": "mg/dL",
              "system": "http://unitsofmeasure.org"
            }
          }
        ],
        "text": {
          "status": "generated",
          "div": "<div xmlns=\"http://www.w3.org/1999/xhtml\"><table class=\"hl7__eu__lab__report\"><tr><th>Test</th><th>20-Jun-2017</th><th>Reference&#xA0;Range</th><th>Unit</th></tr><tr><td>Urea nitrogen [Mass/volume] in Serum or Plasma</td><td>16.7</td><td>7 - 25</td><td></td><td>mg/dL</td></tr></table></div>"
        },
        "status": "final",
        "subject": {
          "reference": "urn:uuid:78620944-3324-43f3-a06c-c3b3879e00fa",
          "display": "Magdolna Balog"
        },
        "effectiveDateTime": "2017-06-20T04:22:23Z",
        "specimen": {
          "reference": "urn:uuid:cb6c30d9-d686-40a1-ab37-89632478ba1a"
        }
      }
    },
    {
      "fullUrl": "urn:uuid:3e0ae2f6-ccd1-4a58-b522-2ebfef2c5d8b",
      "resource": {
        "resourceType": "Observation",
        "id": "3e0ae2f6-ccd1-4a58-b522-2ebfef2c5d8b",
        "meta": {
          "profile": [
            "http://hl7.eu/fhir/laboratory/StructureDefinition/Observation-resultslab-eu-lab"
          ]
        },
        "performer": [
          {
            "display": "The Central European Lab"
          }
        ],
        "category": [
          {
            "coding": [
              {
                "system": "http://terminology.hl7.org/CodeSystem/observation-category",
                "code": "laboratory"
              }
            ]
          }
        ],
        "code": {
          "coding": [
            {
              "code": "2160-0",
              "system": "http://loinc.org",
              "display": "Creatinine [Mass/volume] in Serum or Plasma"
            }
          ],
          "text": "Creatinine [Mass/volume] in Serum or Plasma"
        },
        "valueQuantity": {
          "system": "http://unitsofmeasure.org",
          "value": 2.5,
          "unit": "mg/dL",
          "code": "mg/dL"
        },
        "referenceRange": [
          {
            "low": {
              "value": 0.6,
              "code": "mg/dL",
              "system": "http://unitsofmeasure.org"
            }
          },
          {
            "high": {
              "value": 1.1,
              "code": "mg/dL",
              "system": "http://unitsofmeasure.org"
            }
          }
        ],
        "interpretation": [
          {
            "coding": [
              {
                "code": "H",
                "system": "http://terminology.hl7.org/CodeSystem/v3-ObservationInterpretation",
                "display": "High"
              }
            ]
          }
        ],
        "text": {
          "status": "generated",
          "div": "<div xmlns=\"http://www.w3.org/1999/xhtml\"><table class=\"hl7__eu__lab__report\"><tr><th>Test</th><th>20-Jun-2017</th><th>Reference&#xA0;Range</th><th>Unit</th></tr><tr><td>Creatinine [Mass/volume] in Serum or Plasma</td><td>2.5</td><td>0.6 - 1.1</td><td>H</td><td>mg/dL</td></tr></table></div>"
        },
        "status": "final",
        "subject": {
          "reference": "urn:uuid:78620944-3324-43f3-a06c-c3b3879e00fa",
          "display": "Magdolna Balog"
        },
        "effectiveDateTime": "2017-06-20T04:22:23Z",
        "specimen": {
          "reference": "urn:uuid:cb6c30d9-d686-40a1-ab37-89632478ba1a"
        }
      }
    },
    {
      "fullUrl": "urn:uuid:8202b013-5d56-4970-a250-9ab9c0870380",
      "resource": {
        "resourceType": "Observation",
        "id": "8202b013-5d56-4970-a250-9ab9c0870380",
        "meta": {
          "profile": [
            "http://hl7.eu/fhir/laboratory/StructureDefinition/Observation-resultslab-eu-lab"
          ]
        },
        "performer": [
          {
            "display": "The Central European Lab"
          }
        ],
        "category": [
          {
            "coding": [
              {
                "system": "http://terminology.hl7.org/CodeSystem/observation-category",
                "code": "laboratory"
              }
            ]
          }
        ],
        "code": {
          "coding": [
            {
              "code": "17861-6",
              "system": "http://loinc.org",
              "display": "Calcium [Mass/volume] in Serum or Plasma"
            }
          ],
          "text": "Calcium [Mass/volume] in Serum or Plasma"
        },
        "valueQuantity": {
          "system": "http://unitsofmeasure.org",
          "value": 10.2,
          "unit": "mg/dL",
          "code": "mg/dL"
        },
        "referenceRange": [
          {
            "low": {
              "value": 8.5,
              "code": "mg/dL",
              "system": "http://unitsofmeasure.org"
            }
          },
          {
            "high": {
              "value": 10.4,
              "code": "mg/dL",
              "system": "http://unitsofmeasure.org"
            }
          }
        ],
        "text": {
          "status": "generated",
          "div": "<div xmlns=\"http://www.w3.org/1999/xhtml\"><table class=\"hl7__eu__lab__report\"><tr><th>Test</th><th>20-Jun-2017</th><th>Reference&#xA0;Range</th><th>Unit</th></tr><tr><td>Calcium [Mass/volume] in Serum or Plasma</td><td>10.2</td><td>8.5 - 10.4</td><td></td><td>mg/dL</td></tr></table></div>"
        },
        "status": "final",
        "subject": {
          "reference": "urn:uuid:78620944-3324-43f3-a06c-c3b3879e00fa",
          "display": "Magdolna Balog"
        },
        "effectiveDateTime": "2017-06-20T04:22:23Z",
        "specimen": {
          "reference": "urn:uuid:cb6c30d9-d686-40a1-ab37-89632478ba1a"
        }
      }
    },
    {
      "fullUrl": "urn:uuid:8a4b2ea6-3d86-43aa-910a-0afdfe9be6ef",
      "resource": {
        "resourceType": "Observation",
        "id": "8a4b2ea6-3d86-43aa-910a-0afdfe9be6ef",
        "meta": {
          "profile": [
            "http://hl7.eu/fhir/laboratory/StructureDefinition/Observation-resultslab-eu-lab"
          ]
        },
        "performer": [
          {
            "display": "The Central European Lab"
          }
        ],
        "category": [
          {
            "coding": [
              {
                "system": "http://terminology.hl7.org/CodeSystem/observation-category",
                "code": "laboratory"
              }
            ]
          }
        ],
        "code": {
          "coding": [
            {
              "code": "2951-2",
              "system": "http://loinc.org",
              "display": "Sodium [Moles/volume] in Serum or Plasma"
            }
          ],
          "text": "Sodium [Moles/volume] in Serum or Plasma"
        },
        "valueQuantity": {
          "system": "http://unitsofmeasure.org",
          "value": 142.6,
          "unit": "mmol/L",
          "code": "mmol/L"
        },
        "referenceRange": [
          {
            "low": {
              "value": 135,
              "code": "mmol/L",
              "system": "http://unitsofmeasure.org"
            }
          },
          {
            "high": {
              "value": 145,
              "code": "mmol/L",
              "system": "http://unitsofmeasure.org"
            }
          }
        ],
        "text": {
          "status": "generated",
          "div": "<div xmlns=\"http://www.w3.org/1999/xhtml\"><table class=\"hl7__eu__lab__report\"><tr><th>Test</th><th>20-Jun-2017</th><th>Reference&#xA0;Range</th><th>Unit</th></tr><tr><td>Sodium [Moles/volume] in Serum or Plasma</td><td>142.6</td><td>135 - 145</td><td></td><td>mmol/L</td></tr></table></div>"
        },
        "status": "final",
        "subject": {
          "reference": "urn:uuid:78620944-3324-43f3-a06c-c3b3879e00fa",
          "display": "Magdolna Balog"
        },
        "effectiveDateTime": "2017-06-20T04:22:23Z",
        "specimen": {
          "reference": "urn:uuid:cb6c30d9-d686-40a1-ab37-89632478ba1a"
        }
      }
    },
    {
      "fullUrl": "urn:uuid:038b3988-646d-4249-a23d-d2b0f537af2a",
      "resource": {
        "resourceType": "Observation",
        "id": "038b3988-646d-4249-a23d-d2b0f537af2a",
        "meta": {
          "profile": [
            "http://hl7.eu/fhir/laboratory/StructureDefinition/Observation-resultslab-eu-lab"
          ]
        },
        "performer": [
          {
            "display": "The Central European Lab"
          }
        ],
        "category": [
          {
            "coding": [
              {
                "system": "http://terminology.hl7.org/CodeSystem/observation-category",
                "code": "laboratory"
              }
            ]
          }
        ],
        "code": {
          "coding": [
            {
              "code": "2823-3",
              "system": "http://loinc.org",
              "display": "Potassium [Moles/volume] in Serum or Plasma"
            }
          ],
          "text": "Potassium [Moles/volume] in Serum or Plasma"
        },
        "valueQuantity": {
          "system": "http://unitsofmeasure.org",
          "value": 4,
          "unit": "mmol/L",
          "code": "mmol/L"
        },
        "referenceRange": [
          {
            "low": {
              "value": 3.5,
              "code": "mmol/L",
              "system": "http://unitsofmeasure.org"
            }
          },
          {
            "high": {
              "value": 5.3,
              "code": "mmol/L",
              "system": "http://unitsofmeasure.org"
            }
          }
        ],
        "text": {
          "status": "generated",
          "div": "<div xmlns=\"http://www.w3.org/1999/xhtml\"><table class=\"hl7__eu__lab__report\"><tr><th>Test</th><th>20-Jun-2017</th><th>Reference&#xA0;Range</th><th>Unit</th></tr><tr><td>Potassium [Moles/volume] in Serum or Plasma</td><td>4.0</td><td>3.5 - 5.3</td><td></td><td>mmol/L</td></tr></table></div>"
        },
        "status": "final",
        "subject": {
          "reference": "urn:uuid:78620944-3324-43f3-a06c-c3b3879e00fa",
          "display": "Magdolna Balog"
        },
        "effectiveDateTime": "2017-06-20T04:22:23Z",
        "specimen": {
          "reference": "urn:uuid:cb6c30d9-d686-40a1-ab37-89632478ba1a"
        }
      }
    },
    {
      "fullUrl": "urn:uuid:878db1d0-ed20-46a1-a5d1-ad957dae6378",
      "resource": {
        "resourceType": "Observation",
        "id": "878db1d0-ed20-46a1-a5d1-ad957dae6378",
        "meta": {
          "profile": [
            "http://hl7.eu/fhir/laboratory/StructureDefinition/Observation-resultslab-eu-lab"
          ]
        },
        "performer": [
          {
            "display": "The Central European Lab"
          }
        ],
        "category": [
          {
            "coding": [
              {
                "system": "http://terminology.hl7.org/CodeSystem/observation-category",
                "code": "laboratory"
              }
            ]
          }
        ],
        "code": {
          "coding": [
            {
              "code": "2075-0",
              "system": "http://loinc.org",
              "display": "Chloride [Moles/volume] in Serum or Plasma"
            }
          ],
          "text": "Chloride [Moles/volume] in Serum or Plasma"
        },
        "valueQuantity": {
          "system": "http://unitsofmeasure.org",
          "value": 105.7,
          "unit": "mmol/L",
          "code": "mmol/L"
        },
        "referenceRange": [
          {
            "low": {
              "value": 98,
              "code": "mmol/L",
              "system": "http://unitsofmeasure.org"
            }
          },
          {
            "high": {
              "value": 108,
              "code": "mmol/L",
              "system": "http://unitsofmeasure.org"
            }
          }
        ],
        "text": {
          "status": "generated",
          "div": "<div xmlns=\"http://www.w3.org/1999/xhtml\"><table class=\"hl7__eu__lab__report\"><tr><th>Test</th><th>20-Jun-2017</th><th>Reference&#xA0;Range</th><th>Unit</th></tr><tr><td>Chloride [Moles/volume] in Serum or Plasma</td><td>105.7</td><td>98 - 108</td><td></td><td>mmol/L</td></tr></table></div>"
        },
        "status": "final",
        "subject": {
          "reference": "urn:uuid:78620944-3324-43f3-a06c-c3b3879e00fa",
          "display": "Magdolna Balog"
        },
        "effectiveDateTime": "2017-06-20T04:22:23Z",
        "specimen": {
          "reference": "urn:uuid:cb6c30d9-d686-40a1-ab37-89632478ba1a"
        }
      }
    },
    {
      "fullUrl": "urn:uuid:8d8cdbd6-cecd-4c8f-83e1-0ec3c03f5b89",
      "resource": {
        "resourceType": "Observation",
        "id": "8d8cdbd6-cecd-4c8f-83e1-0ec3c03f5b89",
        "meta": {
          "profile": [
            "http://hl7.eu/fhir/laboratory/StructureDefinition/Observation-resultslab-eu-lab"
          ]
        },
        "performer": [
          {
            "display": "The Central European Lab"
          }
        ],
        "category": [
          {
            "coding": [
              {
                "system": "http://terminology.hl7.org/CodeSystem/observation-category",
                "code": "laboratory"
              }
            ]
          }
        ],
        "code": {
          "coding": [
            {
              "code": "2028-9",
              "system": "http://loinc.org",
              "display": "Carbon dioxide, total [Moles/volume] in Serum or Plasma"
            }
          ],
          "text": "Carbon dioxide, total [Moles/volume] in Serum or Plasma"
        },
        "valueQuantity": {
          "system": "http://unitsofmeasure.org",
          "value": 25.6,
          "unit": "mmol/L",
          "code": "mmol/L"
        },
        "referenceRange": [
          {
            "low": {
              "value": 22,
              "code": "mmol/L",
              "system": "http://unitsofmeasure.org"
            }
          },
          {
            "high": {
              "value": 29,
              "code": "mmol/L",
              "system": "http://unitsofmeasure.org"
            }
          }
        ],
        "text": {
          "status": "generated",
          "div": "<div xmlns=\"http://www.w3.org/1999/xhtml\"><table class=\"hl7__eu__lab__report\"><tr><th>Test</th><th>20-Jun-2017</th><th>Reference&#xA0;Range</th><th>Unit</th></tr><tr><td>Carbon dioxide, total [Moles/volume] in Serum or Plasma</td><td>25.6</td><td>22 - 29</td><td></td><td>mmol/L</td></tr></table></div>"
        },
        "status": "final",
        "subject": {
          "reference": "urn:uuid:78620944-3324-43f3-a06c-c3b3879e00fa",
          "display": "Magdolna Balog"
        },
        "effectiveDateTime": "2017-06-20T04:22:23Z",
        "specimen": {
          "reference": "urn:uuid:cb6c30d9-d686-40a1-ab37-89632478ba1a"
        }
      }
    },
    {
      "fullUrl": "urn:uuid:0631dfee-21a4-4f83-8a5c-4a76b05d2528",
      "resource": {
        "resourceType": "Observation",
        "id": "0631dfee-21a4-4f83-8a5c-4a76b05d2528",
        "meta": {
          "profile": [
            "http://hl7.eu/fhir/laboratory/StructureDefinition/Observation-resultslab-eu-lab"
          ]
        },
        "performer": [
          {
            "display": "The Central European Lab"
          }
        ],
        "category": [
          {
            "coding": [
              {
                "system": "http://terminology.hl7.org/CodeSystem/observation-category",
                "code": "laboratory"
              }
            ]
          }
        ],
        "code": {
          "coding": [
            {
              "code": "2885-2",
              "system": "http://loinc.org",
              "display": "Protein [Mass/volume] in Serum or Plasma"
            }
          ],
          "text": "Protein [Mass/volume] in Serum or Plasma"
        },
        "valueQuantity": {
          "system": "http://unitsofmeasure.org",
          "value": 6.9,
          "unit": "g/dL",
          "code": "g/dL"
        },
        "referenceRange": [
          {
            "low": {
              "value": 6,
              "code": "g/dL",
              "system": "http://unitsofmeasure.org"
            }
          },
          {
            "high": {
              "value": 8.3,
              "code": "g/dL",
              "system": "http://unitsofmeasure.org"
            }
          }
        ],
        "text": {
          "status": "generated",
          "div": "<div xmlns=\"http://www.w3.org/1999/xhtml\"><table class=\"hl7__eu__lab__report\"><tr><th>Test</th><th>20-Jun-2017</th><th>Reference&#xA0;Range</th><th>Unit</th></tr><tr><td>Protein [Mass/volume] in Serum or Plasma</td><td>6.9</td><td>6 - 8.3</td><td></td><td>g/dL</td></tr></table></div>"
        },
        "status": "final",
        "subject": {
          "reference": "urn:uuid:78620944-3324-43f3-a06c-c3b3879e00fa",
          "display": "Magdolna Balog"
        },
        "effectiveDateTime": "2017-06-20T04:22:23Z",
        "specimen": {
          "reference": "urn:uuid:cb6c30d9-d686-40a1-ab37-89632478ba1a"
        }
      }
    },
    {
      "fullUrl": "urn:uuid:08ca0d21-6109-4253-b01d-20249820eebb",
      "resource": {
        "resourceType": "Observation",
        "id": "08ca0d21-6109-4253-b01d-20249820eebb",
        "meta": {
          "profile": [
            "http://hl7.eu/fhir/laboratory/StructureDefinition/Observation-resultslab-eu-lab"
          ]
        },
        "performer": [
          {
            "display": "The Central European Lab"
          }
        ],
        "category": [
          {
            "coding": [
              {
                "system": "http://terminology.hl7.org/CodeSystem/observation-category",
                "code": "laboratory"
              }
            ]
          }
        ],
        "code": {
          "coding": [
            {
              "code": "1751-7",
              "system": "http://loinc.org",
              "display": "Albumin [Mass/volume] in Serum or Plasma"
            }
          ],
          "text": "Albumin [Mass/volume] in Serum or Plasma"
        },
        "valueQuantity": {
          "system": "http://unitsofmeasure.org",
          "value": 4.8,
          "unit": "g/dL",
          "code": "g/dL"
        },
        "referenceRange": [
          {
            "low": {
              "value": 3.5,
              "code": "g/dL",
              "system": "http://unitsofmeasure.org"
            }
          },
          {
            "high": {
              "value": 5.5,
              "code": "g/dL",
              "system": "http://unitsofmeasure.org"
            }
          }
        ],
        "text": {
          "status": "generated",
          "div": "<div xmlns=\"http://www.w3.org/1999/xhtml\"><table class=\"hl7__eu__lab__report\"><tr><th>Test</th><th>20-Jun-2017</th><th>Reference&#xA0;Range</th><th>Unit</th></tr><tr><td>Albumin [Mass/volume] in Serum or Plasma</td><td>4.8</td><td>3.5 - 5.5</td><td></td><td>g/dL</td></tr></table></div>"
        },
        "status": "final",
        "subject": {
          "reference": "urn:uuid:78620944-3324-43f3-a06c-c3b3879e00fa",
          "display": "Magdolna Balog"
        },
        "effectiveDateTime": "2017-06-20T04:22:23Z",
        "specimen": {
          "reference": "urn:uuid:cb6c30d9-d686-40a1-ab37-89632478ba1a"
        }
      }
    },
    {
      "fullUrl": "urn:uuid:adf9abfa-3aec-44f8-907d-951a6ea5ac05",
      "resource": {
        "resourceType": "Observation",
        "id": "adf9abfa-3aec-44f8-907d-951a6ea5ac05",
        "meta": {
          "profile": [
            "http://hl7.eu/fhir/laboratory/StructureDefinition/Observation-resultslab-eu-lab"
          ]
        },
        "performer": [
          {
            "display": "The Central European Lab"
          }
        ],
        "category": [
          {
            "coding": [
              {
                "system": "http://terminology.hl7.org/CodeSystem/observation-category",
                "code": "laboratory"
              }
            ]
          }
        ],
        "code": {
          "coding": [
            {
              "code": "1975-2",
              "system": "http://loinc.org",
              "display": "Bilirubin.total [Mass/volume] in Serum or Plasma"
            }
          ],
          "text": "Bilirubin.total [Mass/volume] in Serum or Plasma"
        },
        "valueQuantity": {
          "system": "http://unitsofmeasure.org",
          "value": 11.5,
          "unit": "mg/dL",
          "code": "mg/dL"
        },
        "referenceRange": [
          {
            "low": {
              "value": 0.3,
              "code": "mg/dL",
              "system": "http://unitsofmeasure.org"
            }
          },
          {
            "high": {
              "value": 1.2,
              "code": "mg/dL",
              "system": "http://unitsofmeasure.org"
            }
          }
        ],
        "interpretation": [
          {
            "coding": [
              {
                "code": "H",
                "system": "http://terminology.hl7.org/CodeSystem/v3-ObservationInterpretation",
                "display": "High"
              }
            ]
          }
        ],
        "text": {
          "status": "generated",
          "div": "<div xmlns=\"http://www.w3.org/1999/xhtml\"><table class=\"hl7__eu__lab__report\"><tr><th>Test</th><th>20-Jun-2017</th><th>Reference&#xA0;Range</th><th>Unit</th></tr><tr><td>Bilirubin.total [Mass/volume] in Serum or Plasma</td><td>11.5</td><td>0.3 - 1.2</td><td>H</td><td>mg/dL</td></tr></table></div>"
        },
        "status": "final",
        "subject": {
          "reference": "urn:uuid:78620944-3324-43f3-a06c-c3b3879e00fa",
          "display": "Magdolna Balog"
        },
        "effectiveDateTime": "2017-06-20T04:22:23Z",
        "specimen": {
          "reference": "urn:uuid:cb6c30d9-d686-40a1-ab37-89632478ba1a"
        }
      }
    },
    {
      "fullUrl": "urn:uuid:314460fe-9f5f-4fe0-a139-bcb611c6514c",
      "resource": {
        "resourceType": "Observation",
        "id": "314460fe-9f5f-4fe0-a139-bcb611c6514c",
        "meta": {
          "profile": [
            "http://hl7.eu/fhir/laboratory/StructureDefinition/Observation-resultslab-eu-lab"
          ]
        },
        "performer": [
          {
            "display": "The Central European Lab"
          }
        ],
        "category": [
          {
            "coding": [
              {
                "system": "http://terminology.hl7.org/CodeSystem/observation-category",
                "code": "laboratory"
              }
            ]
          }
        ],
        "code": {
          "coding": [
            {
              "code": "6768-6",
              "system": "http://loinc.org",
              "display": "Alkaline phosphatase [Enzymatic activity/volume] in Serum or Plasma"
            }
          ],
          "text": "Alkaline phosphatase [Enzymatic activity/volume] in Serum or Plasma"
        },
        "valueQuantity": {
          "system": "http://unitsofmeasure.org",
          "value": 69.6,
          "unit": "U/L",
          "code": "U/L"
        },
        "referenceRange": [
          {
            "low": {
              "value": 35,
              "code": "U/L",
              "system": "http://unitsofmeasure.org"
            }
          },
          {
            "high": {
              "value": 270,
              "code": "U/L",
              "system": "http://unitsofmeasure.org"
            }
          }
        ],
        "text": {
          "status": "generated",
          "div": "<div xmlns=\"http://www.w3.org/1999/xhtml\"><table class=\"hl7__eu__lab__report\"><tr><th>Test</th><th>20-Jun-2017</th><th>Reference&#xA0;Range</th><th>Unit</th></tr><tr><td>Alkaline phosphatase [Enzymatic activity/volume] in Serum or Plasma</td><td>69.6</td><td>35 - 270</td><td></td><td>U/L</td></tr></table></div>"
        },
        "status": "final",
        "subject": {
          "reference": "urn:uuid:78620944-3324-43f3-a06c-c3b3879e00fa",
          "display": "Magdolna Balog"
        },
        "effectiveDateTime": "2017-06-20T04:22:23Z",
        "specimen": {
          "reference": "urn:uuid:cb6c30d9-d686-40a1-ab37-89632478ba1a"
        }
      }
    },
    {
      "fullUrl": "urn:uuid:f5167644-af18-4cc3-bba9-b111a25cb6e4",
      "resource": {
        "resourceType": "Observation",
        "id": "f5167644-af18-4cc3-bba9-b111a25cb6e4",
        "meta": {
          "profile": [
            "http://hl7.eu/fhir/laboratory/StructureDefinition/Observation-resultslab-eu-lab"
          ]
        },
        "performer": [
          {
            "display": "The Central European Lab"
          }
        ],
        "category": [
          {
            "coding": [
              {
                "system": "http://terminology.hl7.org/CodeSystem/observation-category",
                "code": "laboratory"
              }
            ]
          }
        ],
        "code": {
          "coding": [
            {
              "code": "1742-6",
              "system": "http://loinc.org",
              "display": "Alanine aminotransferase [Enzymatic activity/volume] in Serum or Plasma"
            }
          ],
          "text": "Alanine aminotransferase [Enzymatic activity/volume] in Serum or Plasma"
        },
        "valueQuantity": {
          "system": "http://unitsofmeasure.org",
          "value": 33,
          "unit": "U/L",
          "code": "U/L"
        },
        "referenceRange": [
          {
            "low": {
              "value": 7,
              "code": "U/L",
              "system": "http://unitsofmeasure.org"
            }
          },
          {
            "high": {
              "value": 60,
              "code": "U/L",
              "system": "http://unitsofmeasure.org"
            }
          }
        ],
        "text": {
          "status": "generated",
          "div": "<div xmlns=\"http://www.w3.org/1999/xhtml\"><table class=\"hl7__eu__lab__report\"><tr><th>Test</th><th>20-Jun-2017</th><th>Reference&#xA0;Range</th><th>Unit</th></tr><tr><td>Alanine aminotransferase [Enzymatic activity/volume] in Serum or Plasma</td><td>33.0</td><td>7 - 60</td><td></td><td>U/L</td></tr></table></div>"
        },
        "status": "final",
        "subject": {
          "reference": "urn:uuid:78620944-3324-43f3-a06c-c3b3879e00fa",
          "display": "Magdolna Balog"
        },
        "effectiveDateTime": "2017-06-20T04:22:23Z",
        "specimen": {
          "reference": "urn:uuid:cb6c30d9-d686-40a1-ab37-89632478ba1a"
        }
      }
    },
    {
      "fullUrl": "urn:uuid:4e9321a2-d211-4f2d-a32c-f3e440d60910",
      "resource": {
        "resourceType": "Observation",
        "id": "4e9321a2-d211-4f2d-a32c-f3e440d60910",
        "meta": {
          "profile": [
            "http://hl7.eu/fhir/laboratory/StructureDefinition/Observation-resultslab-eu-lab"
          ]
        },
        "performer": [
          {
            "display": "The Central European Lab"
          }
        ],
        "category": [
          {
            "coding": [
              {
                "system": "http://terminology.hl7.org/CodeSystem/observation-category",
                "code": "laboratory"
              }
            ]
          }
        ],
        "code": {
          "coding": [
            {
              "code": "1920-8",
              "system": "http://loinc.org",
              "display": "Aspartate aminotransferase [Enzymatic activity/volume] in Serum or Plasma"
            }
          ],
          "text": "Aspartate aminotransferase [Enzymatic activity/volume] in Serum or Plasma"
        },
        "valueQuantity": {
          "system": "http://unitsofmeasure.org",
          "value": 22.2,
          "unit": "U/L",
          "code": "U/L"
        },
        "referenceRange": [
          {
            "low": {
              "value": 10,
              "code": "U/L",
              "system": "http://unitsofmeasure.org"
            }
          },
          {
            "high": {
              "value": 40,
              "code": "U/L",
              "system": "http://unitsofmeasure.org"
            }
          }
        ],
        "text": {
          "status": "generated",
          "div": "<div xmlns=\"http://www.w3.org/1999/xhtml\"><table class=\"hl7__eu__lab__report\"><tr><th>Test</th><th>20-Jun-2017</th><th>Reference&#xA0;Range</th><th>Unit</th></tr><tr><td>Aspartate aminotransferase [Enzymatic activity/volume] in Serum or Plasma</td><td>22.2</td><td>10 - 40</td><td></td><td>U/L</td></tr></table></div>"
        },
        "status": "final",
        "subject": {
          "reference": "urn:uuid:78620944-3324-43f3-a06c-c3b3879e00fa",
          "display": "Magdolna Balog"
        },
        "effectiveDateTime": "2017-06-20T04:22:23Z",
        "specimen": {
          "reference": "urn:uuid:cb6c30d9-d686-40a1-ab37-89632478ba1a"
        }
      }
    },
    {
      "fullUrl": "urn:uuid:232c6203-0d34-4bfe-be91-f9260e9fdd77",
      "resource": {
        "resourceType": "Observation",
        "id": "232c6203-0d34-4bfe-be91-f9260e9fdd77",
        "meta": {
          "profile": [
            "http://hl7.eu/fhir/laboratory/StructureDefinition/Observation-resultslab-eu-lab"
          ]
        },
        "performer": [
          {
            "display": "The Central European Lab"
          }
        ],
        "category": [
          {
            "coding": [
              {
                "system": "http://terminology.hl7.org/CodeSystem/observation-category",
                "code": "laboratory"
              }
            ]
          }
        ],
        "code": {
          "coding": [
            {
              "code": "19123-9",
              "system": "http://loinc.org",
              "display": "Magnesium [Mass/volume] in Serum or Plasma"
            }
          ],
          "text": "Magnesium [Mass/volume] in Serum or Plasma"
        },
        "valueQuantity": {
          "system": "http://unitsofmeasure.org",
          "value": 1.9,
          "unit": "mg/dL",
          "code": "mg/dL"
        },
        "referenceRange": [
          {
            "low": {
              "value": 1.6,
              "code": "mg/dL",
              "system": "http://unitsofmeasure.org"
            }
          },
          {
            "high": {
              "value": 2.3,
              "code": "mg/dL",
              "system": "http://unitsofmeasure.org"
            }
          }
        ],
        "text": {
          "status": "generated",
          "div": "<div xmlns=\"http://www.w3.org/1999/xhtml\"><table class=\"hl7__eu__lab__report\"><tr><th>Test</th><th>20-Jun-2017</th><th>Reference&#xA0;Range</th><th>Unit</th></tr><tr><td>Magnesium [Mass/volume] in Serum or Plasma</td><td>1.9</td><td>1.6 - 2.3</td><td></td><td>mg/dL</td></tr></table></div>"
        },
        "status": "final",
        "subject": {
          "reference": "urn:uuid:78620944-3324-43f3-a06c-c3b3879e00fa",
          "display": "Magdolna Balog"
        },
        "effectiveDateTime": "2017-06-20T04:22:23Z",
        "specimen": {
          "reference": "urn:uuid:cb6c30d9-d686-40a1-ab37-89632478ba1a"
        }
      }
    },
    {
      "fullUrl": "urn:uuid:26a58cf1-3e15-4c95-a711-75145e33b834",
      "resource": {
        "resourceType": "Observation",
        "id": "26a58cf1-3e15-4c95-a711-75145e33b834",
        "meta": {
          "profile": [
            "http://hl7.eu/fhir/laboratory/StructureDefinition/Observation-resultslab-eu-lab"
          ]
        },
        "performer": [
          {
            "display": "The Central European Lab"
          }
        ],
        "category": [
          {
            "coding": [
              {
                "system": "http://terminology.hl7.org/CodeSystem/observation-category",
                "code": "laboratory"
              }
            ]
          }
        ],
        "code": {
          "coding": [
            {
              "code": "2777-1",
              "system": "http://loinc.org",
              "display": "Phosphate [Mass/volume] in Serum or Plasma"
            }
          ],
          "text": "Phosphate [Mass/volume] in Serum or Plasma"
        },
        "valueQuantity": {
          "system": "http://unitsofmeasure.org",
          "value": 3.5,
          "unit": "mg/dL",
          "code": "mg/dL"
        },
        "referenceRange": [
          {
            "low": {
              "value": 2.5,
              "code": "mg/dL",
              "system": "http://unitsofmeasure.org"
            }
          },
          {
            "high": {
              "value": 4.5,
              "code": "mg/dL",
              "system": "http://unitsofmeasure.org"
            }
          }
        ],
        "text": {
          "status": "generated",
          "div": "<div xmlns=\"http://www.w3.org/1999/xhtml\"><table class=\"hl7__eu__lab__report\"><tr><th>Test</th><th>20-Jun-2017</th><th>Reference&#xA0;Range</th><th>Unit</th></tr><tr><td>Phosphate [Mass/volume] in Serum or Plasma</td><td>3.5</td><td>2.5 - 4.5</td><td></td><td>mg/dL</td></tr></table></div>"
        },
        "status": "final",
        "subject": {
          "reference": "urn:uuid:78620944-3324-43f3-a06c-c3b3879e00fa",
          "display": "Magdolna Balog"
        },
        "effectiveDateTime": "2017-06-20T04:22:23Z",
        "specimen": {
          "reference": "urn:uuid:cb6c30d9-d686-40a1-ab37-89632478ba1a"
        }
      }
    },
    {
      "fullUrl": "urn:uuid:1031e89e-8847-4725-9465-d44a9c432ceb",
      "resource": {
        "resourceType": "Observation",
        "id": "1031e89e-8847-4725-9465-d44a9c432ceb",
        "meta": {
          "profile": [
            "http://hl7.eu/fhir/laboratory/StructureDefinition/Observation-resultslab-eu-lab"
          ]
        },
        "performer": [
          {
            "display": "The Central European Lab"
          }
        ],
        "category": [
          {
            "coding": [
              {
                "system": "http://terminology.hl7.org/CodeSystem/observation-category",
                "code": "laboratory"
              }
            ]
          }
        ],
        "code": {
          "coding": [
            {
              "code": "5902-2",
              "system": "http://loinc.org",
              "display": "Prothrombin time (PT)"
            }
          ],
          "text": "Prothrombin time (PT)"
        },
        "valueQuantity": {
          "system": "http://unitsofmeasure.org",
          "value": 9.9,
          "unit": "s",
          "code": "s"
        },
        "referenceRange": [
          {
            "low": {
              "value": 11,
              "code": "s",
              "system": "http://unitsofmeasure.org"
            }
          },
          {
            "high": {
              "value": 15,
              "code": "s",
              "system": "http://unitsofmeasure.org"
            }
          }
        ],
        "interpretation": [
          {
            "coding": [
              {
                "code": "L",
                "system": "http://terminology.hl7.org/CodeSystem/v3-ObservationInterpretation",
                "display": "Low"
              }
            ]
          }
        ],
        "text": {
          "status": "generated",
          "div": "<div xmlns=\"http://www.w3.org/1999/xhtml\"><table class=\"hl7__eu__lab__report\"><tr><th>Test</th><th>20-Jun-2017</th><th>Reference&#xA0;Range</th><th>Unit</th></tr><tr><td>Prothrombin time (PT)</td><td>9.9</td><td>11 - 15</td><td>L</td><td>s</td></tr></table></div>"
        },
        "status": "final",
        "subject": {
          "reference": "urn:uuid:78620944-3324-43f3-a06c-c3b3879e00fa",
          "display": "Magdolna Balog"
        },
        "effectiveDateTime": "2017-06-20T04:22:23Z",
        "specimen": {
          "reference": "urn:uuid:165dd512-6ac5-46ba-8bc6-2af881532b8d"
        }
      }
    },
    {
      "fullUrl": "urn:uuid:adf1b473-0c9c-44d0-8605-981836401040",
      "resource": {
        "resourceType": "Observation",
        "id": "adf1b473-0c9c-44d0-8605-981836401040",
        "meta": {
          "profile": [
            "http://hl7.eu/fhir/laboratory/StructureDefinition/Observation-resultslab-eu-lab"
          ]
        },
        "performer": [
          {
            "display": "The Central European Lab"
          }
        ],
        "category": [
          {
            "coding": [
              {
                "system": "http://terminology.hl7.org/CodeSystem/observation-category",
                "code": "laboratory"
              }
            ]
          }
        ],
        "code": {
          "coding": [
            {
              "code": "6301-6",
              "system": "http://loinc.org",
              "display": "INR in Platelet poor plasma by Coagulation assay"
            }
          ],
          "text": "INR in Platelet poor plasma by Coagulation assay"
        },
        "valueQuantity": {
          "system": "http://unitsofmeasure.org",
          "value": 1,
          "unit": "{INR}",
          "code": "{INR}"
        },
        "referenceRange": [
          {
            "low": {
              "value": 0.9,
              "code": "INR",
              "system": "http://unitsofmeasure.org"
            }
          },
          {
            "high": {
              "value": 3,
              "code": "INR",
              "system": "http://unitsofmeasure.org"
            }
          }
        ],
        "text": {
          "status": "generated",
          "div": "<div xmlns=\"http://www.w3.org/1999/xhtml\"><table class=\"hl7__eu__lab__report\"><tr><th>Test</th><th>20-Jun-2017</th><th>Reference&#xA0;Range</th><th>Unit</th></tr><tr><td>INR in Platelet poor plasma by Coagulation assay</td><td>1.0</td><td>0.9 - 3</td><td></td><td>{INR}</td></tr></table></div>"
        },
        "status": "final",
        "subject": {
          "reference": "urn:uuid:78620944-3324-43f3-a06c-c3b3879e00fa",
          "display": "Magdolna Balog"
        },
        "effectiveDateTime": "2017-06-20T04:22:23Z",
        "specimen": {
          "reference": "urn:uuid:165dd512-6ac5-46ba-8bc6-2af881532b8d"
        }
      }
    },
    {
      "fullUrl": "urn:uuid:de10af8c-fc72-4d07-af6f-107bdb4a6bf0",
      "resource": {
        "resourceType": "Observation",
        "id": "de10af8c-fc72-4d07-af6f-107bdb4a6bf0",
        "meta": {
          "profile": [
            "http://hl7.eu/fhir/laboratory/StructureDefinition/Observation-resultslab-eu-lab"
          ]
        },
        "performer": [
          {
            "display": "The Central European Lab"
          }
        ],
        "category": [
          {
            "coding": [
              {
                "system": "http://terminology.hl7.org/CodeSystem/observation-category",
                "code": "laboratory"
              }
            ]
          }
        ],
        "code": {
          "coding": [
            {
              "code": "3173-2",
              "system": "http://loinc.org",
              "display": "aPTT in Blood by Coagulation assay"
            }
          ],
          "text": "aPTT in Blood by Coagulation assay"
        },
        "valueQuantity": {
          "system": "http://unitsofmeasure.org",
          "value": 26.4,
          "unit": "s",
          "code": "s"
        },
        "referenceRange": [
          {
            "low": {
              "value": 25,
              "code": "seconds",
              "system": "http://unitsofmeasure.org"
            }
          },
          {
            "high": {
              "value": 40,
              "code": "seconds",
              "system": "http://unitsofmeasure.org"
            }
          }
        ],
        "text": {
          "status": "generated",
          "div": "<div xmlns=\"http://www.w3.org/1999/xhtml\"><table class=\"hl7__eu__lab__report\"><tr><th>Test</th><th>20-Jun-2017</th><th>Reference&#xA0;Range</th><th>Unit</th></tr><tr><td>aPTT in Blood by Coagulation assay</td><td>26.4</td><td>25 - 40</td><td></td><td>s</td></tr></table></div>"
        },
        "status": "final",
        "subject": {
          "reference": "urn:uuid:78620944-3324-43f3-a06c-c3b3879e00fa",
          "display": "Magdolna Balog"
        },
        "effectiveDateTime": "2017-06-20T04:22:23Z",
        "specimen": {
          "reference": "urn:uuid:fb116013-04c7-4e1e-a39c-296656b39db3"
        }
      }
    },
    {
      "fullUrl": "urn:uuid:3487744b-a5d2-451b-95eb-d9198830337f",
      "resource": {
        "resourceType": "Observation",
        "id": "3487744b-a5d2-451b-95eb-d9198830337f",
        "meta": {
          "profile": [
            "http://hl7.eu/fhir/laboratory/StructureDefinition/Observation-resultslab-eu-lab"
          ]
        },
        "performer": [
          {
            "display": "The Central European Lab"
          }
        ],
        "category": [
          {
            "coding": [
              {
                "system": "http://terminology.hl7.org/CodeSystem/observation-category",
                "code": "laboratory"
              }
            ]
          }
        ],
        "code": {
          "coding": [
            {
              "code": "2744-1",
              "system": "http://loinc.org",
              "display": "pH of Arterial blood"
            }
          ],
          "text": "pH of Arterial blood"
        },
        "valueQuantity": {
          "system": "http://unitsofmeasure.org",
          "value": 7.2,
          "unit": "[pH]",
          "code": "[pH]"
        },
        "referenceRange": [
          {
            "low": {
              "value": 7.35,
              "code": "pH",
              "system": "http://unitsofmeasure.org"
            }
          },
          {
            "high": {
              "value": 7.45,
              "code": "pH",
              "system": "http://unitsofmeasure.org"
            }
          }
        ],
        "interpretation": [
          {
            "coding": [
              {
                "code": "L",
                "system": "http://terminology.hl7.org/CodeSystem/v3-ObservationInterpretation",
                "display": "Low"
              }
            ]
          }
        ],
        "text": {
          "status": "generated",
          "div": "<div xmlns=\"http://www.w3.org/1999/xhtml\"><table class=\"hl7__eu__lab__report\"><tr><th>Test</th><th>20-Jun-2017</th><th>Reference&#xA0;Range</th><th>Unit</th></tr><tr><td>pH of Arterial blood</td><td>7.2</td><td>7.35 - 7.45</td><td>L</td><td>[pH]</td></tr></table></div>"
        },
        "status": "final",
        "subject": {
          "reference": "urn:uuid:78620944-3324-43f3-a06c-c3b3879e00fa",
          "display": "Magdolna Balog"
        },
        "effectiveDateTime": "2017-06-20T04:22:23Z",
        "specimen": {
          "reference": "urn:uuid:aac92db2-4d37-4332-9555-5eedbbaef4a6"
        }
      }
    },
    {
      "fullUrl": "urn:uuid:0b0a5e82-73de-4421-9ba4-e05da4d19e27",
      "resource": {
        "resourceType": "Observation",
        "id": "0b0a5e82-73de-4421-9ba4-e05da4d19e27",
        "meta": {
          "profile": [
            "http://hl7.eu/fhir/laboratory/StructureDefinition/Observation-resultslab-eu-lab"
          ]
        },
        "performer": [
          {
            "display": "The Central European Lab"
          }
        ],
        "category": [
          {
            "coding": [
              {
                "system": "http://terminology.hl7.org/CodeSystem/observation-category",
                "code": "laboratory"
              }
            ]
          }
        ],
        "code": {
          "coding": [
            {
              "code": "2019-8",
              "system": "http://loinc.org",
              "display": "Carbon dioxide [Partial pressure] in Arterial blood"
            }
          ],
          "text": "Carbon dioxide [Partial pressure] in Arterial blood"
        },
        "valueQuantity": {
          "system": "http://unitsofmeasure.org",
          "value": 40.2,
          "unit": "mm[Hg]",
          "code": "mm[Hg]"
        },
        "referenceRange": [
          {
            "low": {
              "value": 38,
              "code": "mm[Hg]",
              "system": "http://unitsofmeasure.org"
            }
          },
          {
            "high": {
              "value": 48,
              "code": "mm[Hg]",
              "system": "http://unitsofmeasure.org"
            }
          }
        ],
        "text": {
          "status": "generated",
          "div": "<div xmlns=\"http://www.w3.org/1999/xhtml\"><table class=\"hl7__eu__lab__report\"><tr><th>Test</th><th>20-Jun-2017</th><th>Reference&#xA0;Range</th><th>Unit</th></tr><tr><td>Carbon dioxide [Partial pressure] in Arterial blood</td><td>40.2</td><td>38 - 48</td><td></td><td>mm[Hg]</td></tr></table></div>"
        },
        "status": "final",
        "subject": {
          "reference": "urn:uuid:78620944-3324-43f3-a06c-c3b3879e00fa",
          "display": "Magdolna Balog"
        },
        "effectiveDateTime": "2017-06-20T04:22:23Z",
        "specimen": {
          "reference": "urn:uuid:aac92db2-4d37-4332-9555-5eedbbaef4a6"
        }
      }
    },
    {
      "fullUrl": "urn:uuid:37405e13-0916-4494-9132-322349f1e3d5",
      "resource": {
        "resourceType": "Observation",
        "id": "37405e13-0916-4494-9132-322349f1e3d5",
        "meta": {
          "profile": [
            "http://hl7.eu/fhir/laboratory/StructureDefinition/Observation-resultslab-eu-lab"
          ]
        },
        "performer": [
          {
            "display": "The Central European Lab"
          }
        ],
        "category": [
          {
            "coding": [
              {
                "system": "http://terminology.hl7.org/CodeSystem/observation-category",
                "code": "laboratory"
              }
            ]
          }
        ],
        "code": {
          "coding": [
            {
              "code": "2703-7",
              "system": "http://loinc.org",
              "display": "Oxygen [Partial pressure] in Arterial blood"
            }
          ],
          "text": "Oxygen [Partial pressure] in Arterial blood"
        },
        "valueQuantity": {
          "system": "http://unitsofmeasure.org",
          "value": 93.9,
          "unit": "mm[Hg]",
          "code": "mm[Hg]"
        },
        "referenceRange": [
          {
            "low": {
              "value": 75,
              "code": "mm[Hg]",
              "system": "http://unitsofmeasure.org"
            }
          },
          {
            "high": {
              "value": 100,
              "code": "mm[Hg]",
              "system": "http://unitsofmeasure.org"
            }
          }
        ],
        "text": {
          "status": "generated",
          "div": "<div xmlns=\"http://www.w3.org/1999/xhtml\"><table class=\"hl7__eu__lab__report\"><tr><th>Test</th><th>20-Jun-2017</th><th>Reference&#xA0;Range</th><th>Unit</th></tr><tr><td>Oxygen [Partial pressure] in Arterial blood</td><td>93.9</td><td>75 - 100</td><td></td><td>mm[Hg]</td></tr></table></div>"
        },
        "status": "final",
        "subject": {
          "reference": "urn:uuid:78620944-3324-43f3-a06c-c3b3879e00fa",
          "display": "Magdolna Balog"
        },
        "effectiveDateTime": "2017-06-20T04:22:23Z",
        "specimen": {
          "reference": "urn:uuid:aac92db2-4d37-4332-9555-5eedbbaef4a6"
        }
      }
    },
    {
      "fullUrl": "urn:uuid:12796433-cda0-4ee4-b208-4a1f74092e3f",
      "resource": {
        "resourceType": "Observation",
        "id": "12796433-cda0-4ee4-b208-4a1f74092e3f",
        "meta": {
          "profile": [
            "http://hl7.eu/fhir/laboratory/StructureDefinition/Observation-resultslab-eu-lab"
          ]
        },
        "performer": [
          {
            "display": "The Central European Lab"
          }
        ],
        "category": [
          {
            "coding": [
              {
                "system": "http://terminology.hl7.org/CodeSystem/observation-category",
                "code": "laboratory"
              }
            ]
          }
        ],
        "code": {
          "coding": [
            {
              "code": "1960-4",
              "system": "http://loinc.org",
              "display": "Bicarbonate [Moles/volume] in Arterial blood"
            }
          ],
          "text": "Bicarbonate [Moles/volume] in Arterial blood"
        },
        "valueQuantity": {
          "system": "http://unitsofmeasure.org",
          "value": 24.2,
          "unit": "mmol/L",
          "code": "mmol/L"
        },
        "referenceRange": [
          {
            "low": {
              "value": 22,
              "code": "mmol/L",
              "system": "http://unitsofmeasure.org"
            }
          },
          {
            "high": {
              "value": 31,
              "code": "mmol/L",
              "system": "http://unitsofmeasure.org"
            }
          }
        ],
        "text": {
          "status": "generated",
          "div": "<div xmlns=\"http://www.w3.org/1999/xhtml\"><table class=\"hl7__eu__lab__report\"><tr><th>Test</th><th>20-Jun-2017</th><th>Reference&#xA0;Range</th><th>Unit</th></tr><tr><td>Bicarbonate [Moles/volume] in Arterial blood</td><td>24.2</td><td>22 - 31</td><td></td><td>mmol/L</td></tr></table></div>"
        },
        "status": "final",
        "subject": {
          "reference": "urn:uuid:78620944-3324-43f3-a06c-c3b3879e00fa",
          "display": "Magdolna Balog"
        },
        "effectiveDateTime": "2017-06-20T04:22:23Z",
        "specimen": {
          "reference": "urn:uuid:aac92db2-4d37-4332-9555-5eedbbaef4a6"
        }
      }
    },
    {
      "fullUrl": "urn:uuid:9af18ea9-f4bf-47e5-9ae6-ece312b09828",
      "resource": {
        "resourceType": "Observation",
        "id": "9af18ea9-f4bf-47e5-9ae6-ece312b09828",
        "meta": {
          "profile": [
            "http://hl7.eu/fhir/laboratory/StructureDefinition/Observation-resultslab-eu-lab"
          ]
        },
        "performer": [
          {
            "display": "The Central European Lab"
          }
        ],
        "category": [
          {
            "coding": [
              {
                "system": "http://terminology.hl7.org/CodeSystem/observation-category",
                "code": "laboratory"
              }
            ]
          }
        ],
        "code": {
          "coding": [
            {
              "code": "2708-6",
              "system": "http://loinc.org",
              "display": "Oxygen saturation in Arterial blood"
            }
          ],
          "text": "Oxygen saturation in Arterial blood"
        },
        "valueQuantity": {
          "system": "http://unitsofmeasure.org",
          "value": 94,
          "unit": "%",
          "code": "%"
        },
        "referenceRange": [
          {
            "low": {
              "value": 95,
              "code": "%",
              "system": "http://unitsofmeasure.org"
            }
          },
          {
            "high": {
              "value": 100,
              "code": "%",
              "system": "http://unitsofmeasure.org"
            }
          }
        ],
        "interpretation": [
          {
            "coding": [
              {
                "code": "L",
                "system": "http://terminology.hl7.org/CodeSystem/v3-ObservationInterpretation",
                "display": "Low"
              }
            ]
          }
        ],
        "text": {
          "status": "generated",
          "div": "<div xmlns=\"http://www.w3.org/1999/xhtml\"><table class=\"hl7__eu__lab__report\"><tr><th>Test</th><th>20-Jun-2017</th><th>Reference&#xA0;Range</th><th>Unit</th></tr><tr><td>Oxygen saturation in Arterial blood</td><td>94.0</td><td>95 - 100</td><td>L</td><td>%</td></tr></table></div>"
        },
        "status": "final",
        "subject": {
          "reference": "urn:uuid:78620944-3324-43f3-a06c-c3b3879e00fa",
          "display": "Magdolna Balog"
        },
        "effectiveDateTime": "2017-06-20T04:22:23Z",
        "specimen": {
          "reference": "urn:uuid:aac92db2-4d37-4332-9555-5eedbbaef4a6"
        }
      }
    },
    {
      "fullUrl": "urn:uuid:d59402c9-dd4d-4f96-abb8-697bf1a2ce8c",
      "resource": {
        "resourceType": "Observation",
        "id": "d59402c9-dd4d-4f96-abb8-697bf1a2ce8c",
        "meta": {
          "profile": [
            "http://hl7.eu/fhir/laboratory/StructureDefinition/Observation-resultslab-eu-lab"
          ]
        },
        "performer": [
          {
            "display": "The Central European Lab"
          }
        ],
        "category": [
          {
            "coding": [
              {
                "system": "http://terminology.hl7.org/CodeSystem/observation-category",
                "code": "laboratory"
              }
            ]
          }
        ],
        "code": {
          "coding": [
            {
              "code": "2093-3",
              "system": "http://loinc.org",
              "display": "Cholesterol [Mass/volume] in Serum or Plasma"
            }
          ],
          "text": "Cholesterol [Mass/volume] in Serum or Plasma"
        },
        "valueQuantity": {
          "system": "http://unitsofmeasure.org",
          "value": 159.4,
          "unit": "mg/dL",
          "code": "mg/dL"
        },
        "referenceRange": [
          {
            "low": {
              "value": 125,
              "code": "mg/dL",
              "system": "http://unitsofmeasure.org"
            }
          },
          {
            "high": {
              "value": 200,
              "code": "mg/dL",
              "system": "http://unitsofmeasure.org"
            }
          }
        ],
        "text": {
          "status": "generated",
          "div": "<div xmlns=\"http://www.w3.org/1999/xhtml\"><table class=\"hl7__eu__lab__report\"><tr><th>Test</th><th>20-Jun-2017</th><th>Reference&#xA0;Range</th><th>Unit</th></tr><tr><td>Cholesterol [Mass/volume] in Serum or Plasma</td><td>159.4</td><td>125 - 200</td><td></td><td>mg/dL</td></tr></table></div>"
        },
        "status": "final",
        "subject": {
          "reference": "urn:uuid:78620944-3324-43f3-a06c-c3b3879e00fa",
          "display": "Magdolna Balog"
        },
        "effectiveDateTime": "2017-06-20T04:22:23Z",
        "specimen": {
          "reference": "urn:uuid:cb6c30d9-d686-40a1-ab37-89632478ba1a"
        }
      }
    },
    {
      "fullUrl": "urn:uuid:0ad49c0c-fe6e-411e-87bb-cb3b7c1a580e",
      "resource": {
        "resourceType": "Observation",
        "id": "0ad49c0c-fe6e-411e-87bb-cb3b7c1a580e",
        "meta": {
          "profile": [
            "http://hl7.eu/fhir/laboratory/StructureDefinition/Observation-resultslab-eu-lab"
          ]
        },
        "performer": [
          {
            "display": "The Central European Lab"
          }
        ],
        "category": [
          {
            "coding": [
              {
                "system": "http://terminology.hl7.org/CodeSystem/observation-category",
                "code": "laboratory"
              }
            ]
          }
        ],
        "code": {
          "coding": [
            {
              "code": "2571-8",
              "system": "http://loinc.org",
              "display": "Triglyceride [Mass/volume] in Serum or Plasma"
            }
          ],
          "text": "Triglyceride [Mass/volume] in Serum or Plasma"
        },
        "valueQuantity": {
          "system": "http://unitsofmeasure.org",
          "value": 126.3,
          "unit": "mg/dL",
          "code": "mg/dL"
        },
        "referenceRange": [
          {
            "low": {
              "value": 0,
              "code": "mg/dL",
              "system": "http://unitsofmeasure.org"
            }
          },
          {
            "high": {
              "value": 150,
              "code": "mg/dL",
              "system": "http://unitsofmeasure.org"
            }
          }
        ],
        "text": {
          "status": "generated",
          "div": "<div xmlns=\"http://www.w3.org/1999/xhtml\"><table class=\"hl7__eu__lab__report\"><tr><th>Test</th><th>20-Jun-2017</th><th>Reference&#xA0;Range</th><th>Unit</th></tr><tr><td>Triglyceride [Mass/volume] in Serum or Plasma</td><td>126.3</td><td>0 - 150</td><td></td><td>mg/dL</td></tr></table></div>"
        },
        "status": "final",
        "subject": {
          "reference": "urn:uuid:78620944-3324-43f3-a06c-c3b3879e00fa",
          "display": "Magdolna Balog"
        },
        "effectiveDateTime": "2017-06-20T04:22:23Z",
        "specimen": {
          "reference": "urn:uuid:cb6c30d9-d686-40a1-ab37-89632478ba1a"
        }
      }
    },
    {
      "fullUrl": "urn:uuid:62face7f-542a-4aca-96b6-585f36378b0d",
      "resource": {
        "resourceType": "Observation",
        "id": "62face7f-542a-4aca-96b6-585f36378b0d",
        "meta": {
          "profile": [
            "http://hl7.eu/fhir/laboratory/StructureDefinition/Observation-resultslab-eu-lab"
          ]
        },
        "performer": [
          {
            "display": "The Central European Lab"
          }
        ],
        "category": [
          {
            "coding": [
              {
                "system": "http://terminology.hl7.org/CodeSystem/observation-category",
                "code": "laboratory"
              }
            ]
          }
        ],
        "code": {
          "coding": [
            {
              "code": "18262-6",
              "system": "http://loinc.org",
              "display": "Cholesterol in LDL [Mass/volume] in Serum or Plasma by Direct assay"
            }
          ],
          "text": "Cholesterol in LDL [Mass/volume] in Serum or Plasma by Direct assay"
        },
        "valueQuantity": {
          "system": "http://unitsofmeasure.org",
          "value": 79.3,
          "unit": "mg/dL",
          "code": "mg/dL"
        },
        "referenceRange": [
          {
            "low": {
              "value": 0,
              "code": "mg/dL",
              "system": "http://unitsofmeasure.org"
            }
          },
          {
            "high": {
              "value": 130,
              "code": "mg/dL",
              "system": "http://unitsofmeasure.org"
            }
          }
        ],
        "text": {
          "status": "generated",
          "div": "<div xmlns=\"http://www.w3.org/1999/xhtml\"><table class=\"hl7__eu__lab__report\"><tr><th>Test</th><th>20-Jun-2017</th><th>Reference&#xA0;Range</th><th>Unit</th></tr><tr><td>Cholesterol in LDL [Mass/volume] in Serum or Plasma by Direct assay</td><td>79.3</td><td>0 - 130</td><td></td><td>mg/dL</td></tr></table></div>"
        },
        "status": "final",
        "subject": {
          "reference": "urn:uuid:78620944-3324-43f3-a06c-c3b3879e00fa",
          "display": "Magdolna Balog"
        },
        "effectiveDateTime": "2017-06-20T04:22:23Z",
        "specimen": {
          "reference": "urn:uuid:cb6c30d9-d686-40a1-ab37-89632478ba1a"
        }
      }
    },
    {
      "fullUrl": "urn:uuid:f609fae2-c3ed-4d10-9038-dbe789288260",
      "resource": {
        "resourceType": "Observation",
        "id": "f609fae2-c3ed-4d10-9038-dbe789288260",
        "meta": {
          "profile": [
            "http://hl7.eu/fhir/laboratory/StructureDefinition/Observation-resultslab-eu-lab"
          ]
        },
        "performer": [
          {
            "display": "The Central European Lab"
          }
        ],
        "category": [
          {
            "coding": [
              {
                "system": "http://terminology.hl7.org/CodeSystem/observation-category",
                "code": "laboratory"
              }
            ]
          }
        ],
        "code": {
          "coding": [
            {
              "code": "2085-9",
              "system": "http://loinc.org",
              "display": "Cholesterol in HDL [Mass/volume] in Serum or Plasma"
            }
          ],
          "text": "Cholesterol in HDL [Mass/volume] in Serum or Plasma"
        },
        "valueQuantity": {
          "system": "http://unitsofmeasure.org",
          "value": 54.9,
          "unit": "mg/dL",
          "code": "mg/dL"
        },
        "referenceRange": [
          {
            "low": {
              "value": 50,
              "code": "mg/dL",
              "system": "http://unitsofmeasure.org"
            }
          },
          {
            "high": {
              "value": 100,
              "code": "mg/dL",
              "system": "http://unitsofmeasure.org"
            }
          }
        ],
        "text": {
          "status": "generated",
          "div": "<div xmlns=\"http://www.w3.org/1999/xhtml\"><table class=\"hl7__eu__lab__report\"><tr><th>Test</th><th>20-Jun-2017</th><th>Reference&#xA0;Range</th><th>Unit</th></tr><tr><td>Cholesterol in HDL [Mass/volume] in Serum or Plasma</td><td>54.9</td><td>50 - 100</td><td></td><td>mg/dL</td></tr></table></div>"
        },
        "status": "final",
        "subject": {
          "reference": "urn:uuid:78620944-3324-43f3-a06c-c3b3879e00fa",
          "display": "Magdolna Balog"
        },
        "effectiveDateTime": "2017-06-20T04:22:23Z",
        "specimen": {
          "reference": "urn:uuid:cb6c30d9-d686-40a1-ab37-89632478ba1a"
        }
      }
    },
    {
      "fullUrl": "urn:uuid:dca89606-722a-41ad-9804-1c5ee9822649",
      "resource": {
        "resourceType": "Device",
        "id": "dca89606-722a-41ad-9804-1c5ee9822649",
        "deviceName": [
          {
            "name": "SYNDERAI Synthetic Generator",
            "type": "manufacturer-name"
          }
        ],
        "version": [
          {
            "value": "5.0"
          }
        ],
        "text": {
          "status": "generated",
          "div": "<div xmlns=\"http://www.w3.org/1999/xhtml\">SYNDERAI Synthetic Generator v5.0</div>"
        },
        "status": "active\"",
        "distinctIdentifier": "synderai-generator-50",
        "manufacturer": "SYNDERAI Project"
      }
    },
    {
      "fullUrl": "urn:uuid:6c598e5f-e35d-4900-b835-73b46ba3d6d1",
      "resource": {
        "resourceType": "Provenance",
        "id": "6c598e5f-e35d-4900-b835-73b46ba3d6d1",
        "target": [
          {
            "reference": "Patient/78620944-3324-43f3-a06c-c3b3879e00fa"
          },
          {
            "reference": "Bundle/d95cc003-5796-4a88-9966-8a75471e0f44"
          },
          {
            "reference": "Composition/a8e6caf9-1501-4e57-b0c8-2c8f4a2df042"
          },
          {
            "reference": "PractitionerRole/06db9963-6a76-4890-8d4d-2e939bd82b2d"
          },
          {
            "reference": "Practitioner/538a074a-8fd7-46bf-a807-1b0bce41eb94"
          },
          {
            "reference": "PractitionerRole/e0d20b59-dd92-4606-ad09-4848f3e8ca83"
          },
          {
            "reference": "Organization/b4982003-8aeb-41b9-89bc-47150ca49198"
          }
        ],
        "activity": {
          "text": "Synthetic Example Data Generation"
        },
        "policy": [
          "https://synderai.net/synderai-synthetic-data-policy"
        ],
        "agent": [
          {
            "type": {
              "text": "author"
            },
            "who": {
              "reference": "Device/dca89606-722a-41ad-9804-1c5ee9822649"
            }
          }
        ],
        "reason": [
          {
            "text": "Interoperability Testing and Training (non-clinical use)"
          }
        ],
        "text": {
          "status": "generated",
          "div": "<div xmlns=\"http://www.w3.org/1999/xhtml\">Provenance for SYNDERAI Synthetic Example Data Resource</div>"
        },
        "recorded": "2017-06-20T06:22:23Z"
      }
    },
    {
      "fullUrl": "urn:uuid:06db9963-6a76-4890-8d4d-2e939bd82b2d",
      "resource": {
        "resourceType": "PractitionerRole",
        "id": "06db9963-6a76-4890-8d4d-2e939bd82b2d",
        "meta": {
          "profile": [
            "http://hl7.eu/fhir/base/StructureDefinition/practitionerRole-eu"
          ]
        },
        "text": {
          "status": "generated",
          "div": "<div xmlns=\"http://www.w3.org/1999/xhtml\">Laboratory Role Id: 06db9963-6a76-4890-8d4d-2e939bd82b2d</div>"
        },
        "practitioner": {
          "reference": "urn:uuid:538a074a-8fd7-46bf-a807-1b0bce41eb94"
        }
      }
    },
    {
      "fullUrl": "urn:uuid:538a074a-8fd7-46bf-a807-1b0bce41eb94",
      "resource": {
        "resourceType": "Practitioner",
        "id": "538a074a-8fd7-46bf-a807-1b0bce41eb94",
        "meta": {
          "profile": [
            "http://hl7.eu/fhir/base/StructureDefinition/practitioner-eu"
          ]
        },
        "identifier": [
          {
            "assigner": {
              "display": "HL7 Europe"
            },
            "system": "urn:oid:2.16.840.1.113883.2.51.999",
            "value": "9f0dee7c-7b90-455f-9646-871a53e758db"
          }
        ],
        "name": [
          {
            "prefix": [
              "dr"
            ],
            "given": [
              "Ex"
            ],
            "family": "Ample"
          }
        ],
        "address": [
          {
            "line": [
              "Laboratoire Central Européenne",
              "Boulevard du Jardin Botanique 32"
            ],
            "postalCode": "1000",
            "city": "Brussels",
            "country": "Belgium"
          }
        ],
        "text": {
          "status": "generated",
          "div": "<div xmlns=\"http://www.w3.org/1999/xhtml\">Laboratory: Laboratoire Central Européenne, 1000 Brussels, Belgium</div>"
        }
      }
    }
  ],
  "type": "document",
  "timestamp": "2017-06-20T06:22:23Z"
}
