{
  "resourceType": "Bundle",
  "id": "39d750f6-5575-4aba-a269-e7c0b6faa27b",
  "meta": {
    "profile": [
      "http://hl7.eu/fhir/laboratory/StructureDefinition/Bundle-eu-lab"
    ]
  },
  "identifier": {
    "assigner": {
      "display": "HL7 Europe"
    },
    "system": "urn:oid:2.16.840.1.113883.2.51.999",
    "value": "1d8b3249-0a45-4655-8c82-cfb04dcb5fc6"
  },
  "entry": [
    {
      "fullUrl": "urn:uuid:f3da53ea-742d-4a68-ab99-eb7289d84c4b",
      "resource": {
        "resourceType": "Composition",
        "id": "f3da53ea-742d-4a68-ab99-eb7289d84c4b",
        "meta": {
          "profile": [
            "http://hl7.eu/fhir/laboratory/StructureDefinition/Composition-eu-lab"
          ]
        },
        "identifier": {
          "assigner": {
            "display": "HL7 Europe"
          },
          "system": "urn:oid:2.16.840.1.113883.2.51.999",
          "value": "9e514eba-3796-471e-8caf-1d05d79943ab"
        },
        "author": [
          {
            "reference": "urn:uuid:9074b5cb-85ae-4346-a1fc-4259c5d4bb1d"
          }
        ],
        "category": [
          {
            "coding": [
              {
                "code": "26436-6",
                "system": "http://loinc.org",
                "display": "Laboratory studies (set)"
              }
            ]
          }
        ],
        "type": {
          "coding": [
            {
              "code": "11502-2",
              "system": "http://loinc.org",
              "display": "Laboratory report"
            }
          ],
          "text": "Laboratory Report"
        },
        "section": [
          {
            "code": {
              "coding": [
                {
                  "code": "26436-6",
                  "system": "http://loinc.org",
                  "display": "Laboratory studies (set)"
                }
              ],
              "text": "Laboratory studies"
            },
            "section": [
              {
                "code": {
                  "coding": [
                    {
                      "code": "$18719-5",
                      "system": "http://loinc.org",
                      "display": "Chemistry studies (set)"
                    }
                  ],
                  "text": "Chemistry"
                },
                "entry": [
                  {
                    "reference": "urn:uuid:198b5c47-beb2-45a7-be9b-92862821e242"
                  },
                  {
                    "reference": "urn:uuid:09e5b160-bfdd-49ea-ad49-1b4852cf125a"
                  },
                  {
                    "reference": "urn:uuid:d9f3c96e-caec-475a-b182-82ee757596d9"
                  },
                  {
                    "reference": "urn:uuid:8209bb0f-2041-4f6c-a76b-2b6395348b75"
                  },
                  {
                    "reference": "urn:uuid:1e5a814f-245f-4c3e-8cac-aca718410f51"
                  },
                  {
                    "reference": "urn:uuid:018c1f97-d9cf-4cae-b8a6-9356604038ee"
                  },
                  {
                    "reference": "urn:uuid:b05480a7-3edd-49cf-a228-6ab9e237cd53"
                  },
                  {
                    "reference": "urn:uuid:6611b8a3-b853-4b8e-be53-75bd0480947a"
                  },
                  {
                    "reference": "urn:uuid:306d348b-c870-4040-b300-d6ccb8fc851b"
                  }
                ],
                "text": {
                  "status": "generated",
                  "div": "<div xmlns=\"http://www.w3.org/1999/xhtml\"><h3>Chemistry</h3><table class=\"hl7__eu__lab__report\"><thead><tr><th>Test</th><th>08-MAR-2021</th><th>Reference&#xA0;Range</th><th>Unit</th></tr></thead><tbody><tr><td>Hemoglobin A1c/Hemoglobin.total in Blood</td><td><strong>6.1 H</strong></td><td>4.8 - 5.7</td><td>%</td></tr><tr><td>Glucose [Mass/volume] in Blood</td><td>72.9</td><td>70 - 99</td><td>mg/dL</td></tr><tr><td>Urea nitrogen [Mass/volume] in Blood</td><td>14.2</td><td>7 - 20</td><td>mg/dL</td></tr><tr><td>Creatinine [Mass/volume] in Blood</td><td>1.0</td><td>0.6 - 1.1</td><td>mg/dL</td></tr><tr><td>Calcium [Mass/volume] in Blood</td><td>9.3</td><td>8.5 - 10.5</td><td>mg/dL</td></tr><tr><td>Sodium [Moles/volume] in Blood</td><td>143.4</td><td>135 - 145</td><td>mmol/L</td></tr><tr><td>Potassium [Moles/volume] in Blood</td><td>3.9</td><td>3.5 - 5.3</td><td>mmol/L</td></tr><tr><td>Chloride [Moles/volume] in Blood</td><td>109.1</td><td>98 - 114</td><td>mmol/L</td></tr><tr><td>Carbon dioxide, total [Moles/volume] in Blood</td><td>22.8</td><td>22 - 29</td><td>mmol/L</td></tr></tbody></table></div>"
                },
                "title": "Chemistry"
              }
            ],
            "title": "Laboratory Report"
          },
          {
            "text": {
              "status": "generated",
              "div": "<div xmlns=\"http://www.w3.org/1999/xhtml\"><h3>Annotation</h3><table class=\"hl7__eu__lab__report\"><tr><th>Conclusion and Recommendations based on this report and previous findings known to us</th></tr><tr><td>All parameters are within normal limits except for a mildly elevated HbA1c (6.1%), indicating impaired glucose tolerance or prediabetes. Renal function, electrolytes, and other metabolic parameters are normal. Recommend clinical follow-up and consideration of lifestyle modification to address glycemic control.</td></tr></table></div>"
            },
            "code": {
              "coding": [
                {
                  "system": "http://loinc.org",
                  "code": "48767-8",
                  "display": "Annotation comment"
                }
              ]
            },
            "title": "Annotation comment"
          }
        ],
        "status": "final",
        "subject": {
          "reference": "urn:uuid:3dd60dbf-3b7e-4cc9-9d2d-63ad4268d3c2",
          "display": "Pauline Grenier"
        },
        "date": "2021-03-08T12:54:46Z",
        "title": "Laboratory Report",
        "confidentiality": "N"
      }
    },
    {
      "fullUrl": "urn:uuid:2bd4739d-bcfc-4087-b371-24ee83ad8a46",
      "resource": {
        "resourceType": "DiagnosticReport",
        "id": "2bd4739d-bcfc-4087-b371-24ee83ad8a46",
        "meta": {
          "profile": [
            "http://hl7.eu/fhir/laboratory/StructureDefinition/DiagnosticReport-eu-lab"
          ]
        },
        "identifier": [
          {
            "assigner": {
              "display": "HL7 Europe"
            },
            "system": "urn:oid:2.16.840.1.113883.2.51.999",
            "value": "2b064d1c-0352-4662-8041-293b43cfdd81"
          }
        ],
        "extension": [
          {
            "url": "http://hl7.org/fhir/5.0/StructureDefinition/extension-DiagnosticReport.composition",
            "valueReference": {
              "reference": "urn:uuid:9e514eba-3796-471e-8caf-1d05d79943ab"
            }
          }
        ],
        "category": [
          {
            "coding": [
              {
                "code": "26436-6",
                "system": "http://loinc.org",
                "display": "Laboratory studies (set)"
              }
            ]
          }
        ],
        "specimen": [
          {
            "reference": "urn:uuid:ba5a7278-b57c-467c-a925-fd92e1c1fd9b"
          }
        ],
        "result": [
          {
            "reference": "urn:uuid:198b5c47-beb2-45a7-be9b-92862821e242"
          },
          {
            "reference": "urn:uuid:09e5b160-bfdd-49ea-ad49-1b4852cf125a"
          },
          {
            "reference": "urn:uuid:d9f3c96e-caec-475a-b182-82ee757596d9"
          },
          {
            "reference": "urn:uuid:8209bb0f-2041-4f6c-a76b-2b6395348b75"
          },
          {
            "reference": "urn:uuid:1e5a814f-245f-4c3e-8cac-aca718410f51"
          },
          {
            "reference": "urn:uuid:018c1f97-d9cf-4cae-b8a6-9356604038ee"
          },
          {
            "reference": "urn:uuid:b05480a7-3edd-49cf-a228-6ab9e237cd53"
          },
          {
            "reference": "urn:uuid:6611b8a3-b853-4b8e-be53-75bd0480947a"
          },
          {
            "reference": "urn:uuid:306d348b-c870-4040-b300-d6ccb8fc851b"
          }
        ],
        "status": "registered",
        "code": {
          "coding": [
            {
              "code": "11502-2",
              "system": "http://loinc.org",
              "display": "Laboratory report"
            }
          ]
        },
        "subject": {
          "reference": "urn:uuid:3dd60dbf-3b7e-4cc9-9d2d-63ad4268d3c2",
          "display": "Pauline Grenier"
        }
      }
    },
    {
      "fullUrl": "urn:uuid:3dd60dbf-3b7e-4cc9-9d2d-63ad4268d3c2",
      "resource": {
        "resourceType": "Patient",
        "id": "3dd60dbf-3b7e-4cc9-9d2d-63ad4268d3c2",
        "meta": {
          "security": [
            {
              "system": "http://terminology.hl7.org/CodeSystem/v3-ActReason",
              "code": "HTEST"
            },
            {
              "system": "http://terminology.hl7.org/CodeSystem/v3-ActReason",
              "code": "TRAIN"
            }
          ],
          "tag": [
            {
              "system": "https://synderai.net/fhir/CodeSystem/tags",
              "code": "synthetic",
              "display": "SYNDERAI Synthetic data"
            }
          ],
          "profile": [
            "http://hl7.eu/fhir/base/StructureDefinition/patient-eu-core"
          ]
        },
        "identifier": [
          {
            "type": {
              "coding": [
                {
                  "code": "PT",
                  "system": "http://terminology.hl7.org/CodeSystem/v2-0203"
                }
              ]
            },
            "system": "http://ec.europa.eu/identifier/eci",
            "value": "6776-872657-1"
          },
          {
            "type": {
              "coding": [
                {
                  "code": "MR",
                  "system": "http://terminology.hl7.org/CodeSystem/v2-0203"
                }
              ]
            },
            "system": "http://local.setting.eu/identifier",
            "value": "a90ff566-3092-3af0-91f2-c0514ba66d35"
          }
        ],
        "name": [
          {
            "family": "Grenier"
          },
          {
            "given": [
              "Pauline"
            ]
          },
          {
            "text": "Pauline Grenier"
          }
        ],
        "address": [
          {
            "line": [
              "114, avenue Georges"
            ],
            "use": "home",
            "type": "physical",
            "postalCode": "71110",
            "city": "Caron",
            "country": "France"
          }
        ],
        "telecom": [
          {
            "system": "phone",
            "value": "+33 4 26 27 51 56"
          }
        ],
        "extension": [
          {
            "url": "http://hl7.org/fhir/StructureDefinition/patient-nationality",
            "valueCodeableConcept": {
              "coding": [
                {
                  "code": "FR",
                  "system": "http://hl7.org/fhir/ValueSet/country"
                }
              ]
            }
          }
        ],
        "text": {
          "status": "generated",
          "div": "<div xmlns=\"http://www.w3.org/1999/xhtml\"><table class=\"hl7__ips\"><tr><td>Pauline Grenier</td><td>female</td><td>03-May-1971</td></tr></table></div>"
        },
        "gender": "female",
        "birthDate": "1971-05-03"
      }
    },
    {
      "fullUrl": "urn:uuid:0177f67a-9a35-4b39-a7e7-03766f57bc66",
      "resource": {
        "resourceType": "ServiceRequest",
        "id": "0177f67a-9a35-4b39-a7e7-03766f57bc66",
        "meta": {
          "profile": [
            "http://hl7.eu/fhir/laboratory/StructureDefinition/ServiceRequest-eu-lab"
          ]
        },
        "identifier": [
          {
            "system": "http://example.org",
            "value": "e5e6642b-050d-41a2-92c3-1ace70ed6bf1"
          }
        ],
        "specimen": [
          {
            "reference": "urn:uuid:ba5a7278-b57c-467c-a925-fd92e1c1fd9b"
          }
        ],
        "reasonCode": [
          {
            "coding": [
              {
                "code": "59621000",
                "system": "http://snomed.info/sct",
                "display": "Essential hypertension"
              }
            ]
          },
          {
            "coding": [
              {
                "code": "237602007",
                "system": "http://snomed.info/sct",
                "display": "Metabolic syndrome X"
              }
            ]
          },
          {
            "coding": [
              {
                "code": "15777000",
                "system": "http://snomed.info/sct",
                "display": "Prediabetes"
              }
            ]
          }
        ],
        "status": "active",
        "intent": "order",
        "code": {
          "coding": [
            {
              "code": "108252007",
              "system": "http://snomed.info/sct",
              "display": "Laboratory procedure"
            }
          ]
        },
        "subject": {
          "reference": "urn:uuid:3dd60dbf-3b7e-4cc9-9d2d-63ad4268d3c2",
          "display": "Pauline Grenier"
        },
        "requester": {
          "reference": "urn:uuid:54c0ec49-2978-4bb6-91db-69b7957bdebf"
        }
      }
    },
    {
      "fullUrl": "urn:uuid:54c0ec49-2978-4bb6-91db-69b7957bdebf",
      "resource": {
        "resourceType": "PractitionerRole",
        "id": "54c0ec49-2978-4bb6-91db-69b7957bdebf",
        "meta": {
          "profile": [
            "http://hl7.eu/fhir/base/StructureDefinition/practitionerRole-eu"
          ]
        },
        "text": {
          "status": "generated",
          "div": "<div xmlns=\"http://www.w3.org/1999/xhtml\">Provider Role Id: 54c0ec49-2978-4bb6-91db-69b7957bdebf</div>"
        },
        "organization": {
          "reference": "urn:uuid:f795802b-d671-4a74-b718-a4282d5e2a9e"
        }
      }
    },
    {
      "fullUrl": "urn:uuid:f795802b-d671-4a74-b718-a4282d5e2a9e",
      "resource": {
        "resourceType": "Organization",
        "id": "f795802b-d671-4a74-b718-a4282d5e2a9e",
        "meta": {
          "profile": [
            "http://hl7.eu/fhir/base/StructureDefinition/organization-eu"
          ]
        },
        "identifier": [
          {
            "assigner": {
              "display": "HL7 Europe"
            },
            "system": "urn:oid:2.16.840.1.113883.2.51.999",
            "value": "eb34cb90-6edc-4d83-938c-d86087f2574d"
          }
        ],
        "address": [
          {
            "city": "Le Creusot",
            "postalCode": "71200",
            "country": "France"
          }
        ],
        "text": {
          "status": "generated",
          "div": "<div xmlns=\"http://www.w3.org/1999/xhtml\">Provider Organization: Hôpital du Creusot - Site Foch</div>"
        },
        "name": "Hôpital du Creusot - Site Foch"
      }
    },
    {
      "fullUrl": "urn:uuid:ba5a7278-b57c-467c-a925-fd92e1c1fd9b",
      "resource": {
        "resourceType": "Specimen",
        "id": "ba5a7278-b57c-467c-a925-fd92e1c1fd9b",
        "meta": {
          "profile": [
            "http://hl7.eu/fhir/laboratory/StructureDefinition/Specimen-eu-lab"
          ]
        },
        "collection": {
          "collectedDateTime": "2021-03-08"
        },
        "text": {
          "status": "generated",
          "div": "<div xmlns=\"http://www.w3.org/1999/xhtml\"><table class=\"hl7__eu__lab__report\"><tr><th>Specimen</th><th>Collection Date</th></tr><tr><td>Whole blood specimen (specimen)</td><td><span class=\"nb\">08-Mar-2021</span></td></tr></table></div>"
        },
        "type": {
          "coding": [
            {
              "code": "258580003",
              "system": "http://snomed.info/sct",
              "display": "Whole blood specimen (specimen)"
            }
          ]
        }
      }
    },
    {
      "fullUrl": "urn:uuid:198b5c47-beb2-45a7-be9b-92862821e242",
      "resource": {
        "resourceType": "Observation",
        "id": "198b5c47-beb2-45a7-be9b-92862821e242",
        "meta": {
          "profile": [
            "http://hl7.eu/fhir/laboratory/StructureDefinition/Observation-resultslab-eu-lab"
          ]
        },
        "performer": [
          {
            "display": "The Central European Lab"
          }
        ],
        "category": [
          {
            "coding": [
              {
                "system": "http://terminology.hl7.org/CodeSystem/observation-category",
                "code": "laboratory"
              }
            ]
          }
        ],
        "code": {
          "coding": [
            {
              "code": "4548-4",
              "system": "http://loinc.org",
              "display": "Hemoglobin A1c/Hemoglobin.total in Blood"
            }
          ],
          "text": "Hemoglobin A1c/Hemoglobin.total in Blood"
        },
        "valueQuantity": {
          "system": "http://unitsofmeasure.org",
          "value": 6.1,
          "unit": "%",
          "code": "%"
        },
        "referenceRange": [
          {
            "low": {
              "value": 4.8,
              "code": "%",
              "system": "http://unitsofmeasure.org"
            }
          },
          {
            "high": {
              "value": 5.7,
              "code": "%",
              "system": "http://unitsofmeasure.org"
            }
          }
        ],
        "interpretation": [
          {
            "coding": [
              {
                "code": "H",
                "system": "http://terminology.hl7.org/CodeSystem/v3-ObservationInterpretation",
                "display": "High"
              }
            ]
          }
        ],
        "text": {
          "status": "generated",
          "div": "<div xmlns=\"http://www.w3.org/1999/xhtml\"><table class=\"hl7__eu__lab__report\"><tr><th>Test</th><th>08-Mar-2021</th><th>Reference&#xA0;Range</th><th>Unit</th></tr><tr><td>Hemoglobin A1c/Hemoglobin.total in Blood</td><td>6.1</td><td>4.8 - 5.7</td><td>H</td><td>%</td></tr></table></div>"
        },
        "status": "final",
        "subject": {
          "reference": "urn:uuid:3dd60dbf-3b7e-4cc9-9d2d-63ad4268d3c2",
          "display": "Pauline Grenier"
        },
        "effectiveDateTime": "2021-03-08T11:54:46Z",
        "specimen": {
          "reference": "urn:uuid:ba5a7278-b57c-467c-a925-fd92e1c1fd9b"
        }
      }
    },
    {
      "fullUrl": "urn:uuid:09e5b160-bfdd-49ea-ad49-1b4852cf125a",
      "resource": {
        "resourceType": "Observation",
        "id": "09e5b160-bfdd-49ea-ad49-1b4852cf125a",
        "meta": {
          "profile": [
            "http://hl7.eu/fhir/laboratory/StructureDefinition/Observation-resultslab-eu-lab"
          ]
        },
        "performer": [
          {
            "display": "The Central European Lab"
          }
        ],
        "category": [
          {
            "coding": [
              {
                "system": "http://terminology.hl7.org/CodeSystem/observation-category",
                "code": "laboratory"
              }
            ]
          }
        ],
        "code": {
          "coding": [
            {
              "code": "2339-0",
              "system": "http://loinc.org",
              "display": "Glucose [Mass/volume] in Blood"
            }
          ],
          "text": "Glucose [Mass/volume] in Blood"
        },
        "valueQuantity": {
          "system": "http://unitsofmeasure.org",
          "value": 72.9,
          "unit": "mg/dL",
          "code": "mg/dL"
        },
        "referenceRange": [
          {
            "low": {
              "value": 70,
              "code": "mg/dL",
              "system": "http://unitsofmeasure.org"
            }
          },
          {
            "high": {
              "value": 99,
              "code": "mg/dL",
              "system": "http://unitsofmeasure.org"
            }
          }
        ],
        "text": {
          "status": "generated",
          "div": "<div xmlns=\"http://www.w3.org/1999/xhtml\"><table class=\"hl7__eu__lab__report\"><tr><th>Test</th><th>08-Mar-2021</th><th>Reference&#xA0;Range</th><th>Unit</th></tr><tr><td>Glucose [Mass/volume] in Blood</td><td>72.9</td><td>70 - 99</td><td></td><td>mg/dL</td></tr></table></div>"
        },
        "status": "final",
        "subject": {
          "reference": "urn:uuid:3dd60dbf-3b7e-4cc9-9d2d-63ad4268d3c2",
          "display": "Pauline Grenier"
        },
        "effectiveDateTime": "2021-03-08T11:54:46Z",
        "specimen": {
          "reference": "urn:uuid:ba5a7278-b57c-467c-a925-fd92e1c1fd9b"
        }
      }
    },
    {
      "fullUrl": "urn:uuid:d9f3c96e-caec-475a-b182-82ee757596d9",
      "resource": {
        "resourceType": "Observation",
        "id": "d9f3c96e-caec-475a-b182-82ee757596d9",
        "meta": {
          "profile": [
            "http://hl7.eu/fhir/laboratory/StructureDefinition/Observation-resultslab-eu-lab"
          ]
        },
        "performer": [
          {
            "display": "The Central European Lab"
          }
        ],
        "category": [
          {
            "coding": [
              {
                "system": "http://terminology.hl7.org/CodeSystem/observation-category",
                "code": "laboratory"
              }
            ]
          }
        ],
        "code": {
          "coding": [
            {
              "code": "6299-2",
              "system": "http://loinc.org",
              "display": "Urea nitrogen [Mass/volume] in Blood"
            }
          ],
          "text": "Urea nitrogen [Mass/volume] in Blood"
        },
        "valueQuantity": {
          "system": "http://unitsofmeasure.org",
          "value": 14.2,
          "unit": "mg/dL",
          "code": "mg/dL"
        },
        "referenceRange": [
          {
            "low": {
              "value": 7,
              "code": "mg/dL",
              "system": "http://unitsofmeasure.org"
            }
          },
          {
            "high": {
              "value": 20,
              "code": "mg/dL",
              "system": "http://unitsofmeasure.org"
            }
          }
        ],
        "text": {
          "status": "generated",
          "div": "<div xmlns=\"http://www.w3.org/1999/xhtml\"><table class=\"hl7__eu__lab__report\"><tr><th>Test</th><th>08-Mar-2021</th><th>Reference&#xA0;Range</th><th>Unit</th></tr><tr><td>Urea nitrogen [Mass/volume] in Blood</td><td>14.2</td><td>7 - 20</td><td></td><td>mg/dL</td></tr></table></div>"
        },
        "status": "final",
        "subject": {
          "reference": "urn:uuid:3dd60dbf-3b7e-4cc9-9d2d-63ad4268d3c2",
          "display": "Pauline Grenier"
        },
        "effectiveDateTime": "2021-03-08T11:54:46Z",
        "specimen": {
          "reference": "urn:uuid:ba5a7278-b57c-467c-a925-fd92e1c1fd9b"
        }
      }
    },
    {
      "fullUrl": "urn:uuid:8209bb0f-2041-4f6c-a76b-2b6395348b75",
      "resource": {
        "resourceType": "Observation",
        "id": "8209bb0f-2041-4f6c-a76b-2b6395348b75",
        "meta": {
          "profile": [
            "http://hl7.eu/fhir/laboratory/StructureDefinition/Observation-resultslab-eu-lab"
          ]
        },
        "performer": [
          {
            "display": "The Central European Lab"
          }
        ],
        "category": [
          {
            "coding": [
              {
                "system": "http://terminology.hl7.org/CodeSystem/observation-category",
                "code": "laboratory"
              }
            ]
          }
        ],
        "code": {
          "coding": [
            {
              "code": "38483-4",
              "system": "http://loinc.org",
              "display": "Creatinine [Mass/volume] in Blood"
            }
          ],
          "text": "Creatinine [Mass/volume] in Blood"
        },
        "valueQuantity": {
          "system": "http://unitsofmeasure.org",
          "value": 1,
          "unit": "mg/dL",
          "code": "mg/dL"
        },
        "referenceRange": [
          {
            "low": {
              "value": 0.6,
              "code": "mg/dL",
              "system": "http://unitsofmeasure.org"
            }
          },
          {
            "high": {
              "value": 1.1,
              "code": "mg/dL",
              "system": "http://unitsofmeasure.org"
            }
          }
        ],
        "text": {
          "status": "generated",
          "div": "<div xmlns=\"http://www.w3.org/1999/xhtml\"><table class=\"hl7__eu__lab__report\"><tr><th>Test</th><th>08-Mar-2021</th><th>Reference&#xA0;Range</th><th>Unit</th></tr><tr><td>Creatinine [Mass/volume] in Blood</td><td>1.0</td><td>0.6 - 1.1</td><td></td><td>mg/dL</td></tr></table></div>"
        },
        "status": "final",
        "subject": {
          "reference": "urn:uuid:3dd60dbf-3b7e-4cc9-9d2d-63ad4268d3c2",
          "display": "Pauline Grenier"
        },
        "effectiveDateTime": "2021-03-08T11:54:46Z",
        "specimen": {
          "reference": "urn:uuid:ba5a7278-b57c-467c-a925-fd92e1c1fd9b"
        }
      }
    },
    {
      "fullUrl": "urn:uuid:1e5a814f-245f-4c3e-8cac-aca718410f51",
      "resource": {
        "resourceType": "Observation",
        "id": "1e5a814f-245f-4c3e-8cac-aca718410f51",
        "meta": {
          "profile": [
            "http://hl7.eu/fhir/laboratory/StructureDefinition/Observation-resultslab-eu-lab"
          ]
        },
        "performer": [
          {
            "display": "The Central European Lab"
          }
        ],
        "category": [
          {
            "coding": [
              {
                "system": "http://terminology.hl7.org/CodeSystem/observation-category",
                "code": "laboratory"
              }
            ]
          }
        ],
        "code": {
          "coding": [
            {
              "code": "49765-1",
              "system": "http://loinc.org",
              "display": "Calcium [Mass/volume] in Blood"
            }
          ],
          "text": "Calcium [Mass/volume] in Blood"
        },
        "valueQuantity": {
          "system": "http://unitsofmeasure.org",
          "value": 9.3,
          "unit": "mg/dL",
          "code": "mg/dL"
        },
        "referenceRange": [
          {
            "low": {
              "value": 8.5,
              "code": "mg/dL",
              "system": "http://unitsofmeasure.org"
            }
          },
          {
            "high": {
              "value": 10.5,
              "code": "mg/dL",
              "system": "http://unitsofmeasure.org"
            }
          }
        ],
        "text": {
          "status": "generated",
          "div": "<div xmlns=\"http://www.w3.org/1999/xhtml\"><table class=\"hl7__eu__lab__report\"><tr><th>Test</th><th>08-Mar-2021</th><th>Reference&#xA0;Range</th><th>Unit</th></tr><tr><td>Calcium [Mass/volume] in Blood</td><td>9.3</td><td>8.5 - 10.5</td><td></td><td>mg/dL</td></tr></table></div>"
        },
        "status": "final",
        "subject": {
          "reference": "urn:uuid:3dd60dbf-3b7e-4cc9-9d2d-63ad4268d3c2",
          "display": "Pauline Grenier"
        },
        "effectiveDateTime": "2021-03-08T11:54:46Z",
        "specimen": {
          "reference": "urn:uuid:ba5a7278-b57c-467c-a925-fd92e1c1fd9b"
        }
      }
    },
    {
      "fullUrl": "urn:uuid:018c1f97-d9cf-4cae-b8a6-9356604038ee",
      "resource": {
        "resourceType": "Observation",
        "id": "018c1f97-d9cf-4cae-b8a6-9356604038ee",
        "meta": {
          "profile": [
            "http://hl7.eu/fhir/laboratory/StructureDefinition/Observation-resultslab-eu-lab"
          ]
        },
        "performer": [
          {
            "display": "The Central European Lab"
          }
        ],
        "category": [
          {
            "coding": [
              {
                "system": "http://terminology.hl7.org/CodeSystem/observation-category",
                "code": "laboratory"
              }
            ]
          }
        ],
        "code": {
          "coding": [
            {
              "code": "2947-0",
              "system": "http://loinc.org",
              "display": "Sodium [Moles/volume] in Blood"
            }
          ],
          "text": "Sodium [Moles/volume] in Blood"
        },
        "valueQuantity": {
          "system": "http://unitsofmeasure.org",
          "value": 143.4,
          "unit": "mmol/L",
          "code": "mmol/L"
        },
        "referenceRange": [
          {
            "low": {
              "value": 135,
              "code": "mmol/L",
              "system": "http://unitsofmeasure.org"
            }
          },
          {
            "high": {
              "value": 145,
              "code": "mmol/L",
              "system": "http://unitsofmeasure.org"
            }
          }
        ],
        "text": {
          "status": "generated",
          "div": "<div xmlns=\"http://www.w3.org/1999/xhtml\"><table class=\"hl7__eu__lab__report\"><tr><th>Test</th><th>08-Mar-2021</th><th>Reference&#xA0;Range</th><th>Unit</th></tr><tr><td>Sodium [Moles/volume] in Blood</td><td>143.4</td><td>135 - 145</td><td></td><td>mmol/L</td></tr></table></div>"
        },
        "status": "final",
        "subject": {
          "reference": "urn:uuid:3dd60dbf-3b7e-4cc9-9d2d-63ad4268d3c2",
          "display": "Pauline Grenier"
        },
        "effectiveDateTime": "2021-03-08T11:54:46Z",
        "specimen": {
          "reference": "urn:uuid:ba5a7278-b57c-467c-a925-fd92e1c1fd9b"
        }
      }
    },
    {
      "fullUrl": "urn:uuid:b05480a7-3edd-49cf-a228-6ab9e237cd53",
      "resource": {
        "resourceType": "Observation",
        "id": "b05480a7-3edd-49cf-a228-6ab9e237cd53",
        "meta": {
          "profile": [
            "http://hl7.eu/fhir/laboratory/StructureDefinition/Observation-resultslab-eu-lab"
          ]
        },
        "performer": [
          {
            "display": "The Central European Lab"
          }
        ],
        "category": [
          {
            "coding": [
              {
                "system": "http://terminology.hl7.org/CodeSystem/observation-category",
                "code": "laboratory"
              }
            ]
          }
        ],
        "code": {
          "coding": [
            {
              "code": "6298-4",
              "system": "http://loinc.org",
              "display": "Potassium [Moles/volume] in Blood"
            }
          ],
          "text": "Potassium [Moles/volume] in Blood"
        },
        "valueQuantity": {
          "system": "http://unitsofmeasure.org",
          "value": 3.9,
          "unit": "mmol/L",
          "code": "mmol/L"
        },
        "referenceRange": [
          {
            "low": {
              "value": 3.5,
              "code": "mmol/L",
              "system": "http://unitsofmeasure.org"
            }
          },
          {
            "high": {
              "value": 5.3,
              "code": "mmol/L",
              "system": "http://unitsofmeasure.org"
            }
          }
        ],
        "text": {
          "status": "generated",
          "div": "<div xmlns=\"http://www.w3.org/1999/xhtml\"><table class=\"hl7__eu__lab__report\"><tr><th>Test</th><th>08-Mar-2021</th><th>Reference&#xA0;Range</th><th>Unit</th></tr><tr><td>Potassium [Moles/volume] in Blood</td><td>3.9</td><td>3.5 - 5.3</td><td></td><td>mmol/L</td></tr></table></div>"
        },
        "status": "final",
        "subject": {
          "reference": "urn:uuid:3dd60dbf-3b7e-4cc9-9d2d-63ad4268d3c2",
          "display": "Pauline Grenier"
        },
        "effectiveDateTime": "2021-03-08T11:54:46Z",
        "specimen": {
          "reference": "urn:uuid:ba5a7278-b57c-467c-a925-fd92e1c1fd9b"
        }
      }
    },
    {
      "fullUrl": "urn:uuid:6611b8a3-b853-4b8e-be53-75bd0480947a",
      "resource": {
        "resourceType": "Observation",
        "id": "6611b8a3-b853-4b8e-be53-75bd0480947a",
        "meta": {
          "profile": [
            "http://hl7.eu/fhir/laboratory/StructureDefinition/Observation-resultslab-eu-lab"
          ]
        },
        "performer": [
          {
            "display": "The Central European Lab"
          }
        ],
        "category": [
          {
            "coding": [
              {
                "system": "http://terminology.hl7.org/CodeSystem/observation-category",
                "code": "laboratory"
              }
            ]
          }
        ],
        "code": {
          "coding": [
            {
              "code": "2069-3",
              "system": "http://loinc.org",
              "display": "Chloride [Moles/volume] in Blood"
            }
          ],
          "text": "Chloride [Moles/volume] in Blood"
        },
        "valueQuantity": {
          "system": "http://unitsofmeasure.org",
          "value": 109.1,
          "unit": "mmol/L",
          "code": "mmol/L"
        },
        "referenceRange": [
          {
            "low": {
              "value": 98,
              "code": "mmol/L",
              "system": "http://unitsofmeasure.org"
            }
          },
          {
            "high": {
              "value": 114,
              "code": "mmol/L",
              "system": "http://unitsofmeasure.org"
            }
          }
        ],
        "text": {
          "status": "generated",
          "div": "<div xmlns=\"http://www.w3.org/1999/xhtml\"><table class=\"hl7__eu__lab__report\"><tr><th>Test</th><th>08-Mar-2021</th><th>Reference&#xA0;Range</th><th>Unit</th></tr><tr><td>Chloride [Moles/volume] in Blood</td><td>109.1</td><td>98 - 114</td><td></td><td>mmol/L</td></tr></table></div>"
        },
        "status": "final",
        "subject": {
          "reference": "urn:uuid:3dd60dbf-3b7e-4cc9-9d2d-63ad4268d3c2",
          "display": "Pauline Grenier"
        },
        "effectiveDateTime": "2021-03-08T11:54:46Z",
        "specimen": {
          "reference": "urn:uuid:ba5a7278-b57c-467c-a925-fd92e1c1fd9b"
        }
      }
    },
    {
      "fullUrl": "urn:uuid:306d348b-c870-4040-b300-d6ccb8fc851b",
      "resource": {
        "resourceType": "Observation",
        "id": "306d348b-c870-4040-b300-d6ccb8fc851b",
        "meta": {
          "profile": [
            "http://hl7.eu/fhir/laboratory/StructureDefinition/Observation-resultslab-eu-lab"
          ]
        },
        "performer": [
          {
            "display": "The Central European Lab"
          }
        ],
        "category": [
          {
            "coding": [
              {
                "system": "http://terminology.hl7.org/CodeSystem/observation-category",
                "code": "laboratory"
              }
            ]
          }
        ],
        "code": {
          "coding": [
            {
              "code": "20565-8",
              "system": "http://loinc.org",
              "display": "Carbon dioxide, total [Moles/volume] in Blood"
            }
          ],
          "text": "Carbon dioxide, total [Moles/volume] in Blood"
        },
        "valueQuantity": {
          "system": "http://unitsofmeasure.org",
          "value": 22.8,
          "unit": "mmol/L",
          "code": "mmol/L"
        },
        "referenceRange": [
          {
            "low": {
              "value": 22,
              "code": "mmol/L",
              "system": "http://unitsofmeasure.org"
            }
          },
          {
            "high": {
              "value": 29,
              "code": "mmol/L",
              "system": "http://unitsofmeasure.org"
            }
          }
        ],
        "text": {
          "status": "generated",
          "div": "<div xmlns=\"http://www.w3.org/1999/xhtml\"><table class=\"hl7__eu__lab__report\"><tr><th>Test</th><th>08-Mar-2021</th><th>Reference&#xA0;Range</th><th>Unit</th></tr><tr><td>Carbon dioxide, total [Moles/volume] in Blood</td><td>22.8</td><td>22 - 29</td><td></td><td>mmol/L</td></tr></table></div>"
        },
        "status": "final",
        "subject": {
          "reference": "urn:uuid:3dd60dbf-3b7e-4cc9-9d2d-63ad4268d3c2",
          "display": "Pauline Grenier"
        },
        "effectiveDateTime": "2021-03-08T11:54:46Z",
        "specimen": {
          "reference": "urn:uuid:ba5a7278-b57c-467c-a925-fd92e1c1fd9b"
        }
      }
    },
    {
      "fullUrl": "urn:uuid:c0e9121f-f558-4219-8bd8-0a757eb23385",
      "resource": {
        "resourceType": "Device",
        "id": "c0e9121f-f558-4219-8bd8-0a757eb23385",
        "deviceName": [
          {
            "name": "SYNDERAI Synthetic Generator",
            "type": "manufacturer-name"
          }
        ],
        "version": [
          {
            "value": "5.0"
          }
        ],
        "text": {
          "status": "generated",
          "div": "<div xmlns=\"http://www.w3.org/1999/xhtml\">SYNDERAI Synthetic Generator v5.0</div>"
        },
        "status": "active\"",
        "distinctIdentifier": "synderai-generator-50",
        "manufacturer": "SYNDERAI Project"
      }
    },
    {
      "fullUrl": "urn:uuid:ad94c050-a46b-4220-b57b-1a32dac4fa39",
      "resource": {
        "resourceType": "Provenance",
        "id": "ad94c050-a46b-4220-b57b-1a32dac4fa39",
        "target": [
          {
            "reference": "Patient/3dd60dbf-3b7e-4cc9-9d2d-63ad4268d3c2"
          },
          {
            "reference": "Bundle/39d750f6-5575-4aba-a269-e7c0b6faa27b"
          },
          {
            "reference": "Composition/f3da53ea-742d-4a68-ab99-eb7289d84c4b"
          },
          {
            "reference": "PractitionerRole/9074b5cb-85ae-4346-a1fc-4259c5d4bb1d"
          },
          {
            "reference": "Practitioner/65091ff8-1716-4a4a-b14c-e0701b6bf64a"
          },
          {
            "reference": "PractitionerRole/54c0ec49-2978-4bb6-91db-69b7957bdebf"
          },
          {
            "reference": "Organization/f795802b-d671-4a74-b718-a4282d5e2a9e"
          }
        ],
        "activity": {
          "text": "Synthetic Example Data Generation"
        },
        "policy": [
          "https://synderai.net/synderai-synthetic-data-policy"
        ],
        "agent": [
          {
            "type": {
              "text": "author"
            },
            "who": {
              "reference": "Device/c0e9121f-f558-4219-8bd8-0a757eb23385"
            }
          }
        ],
        "reason": [
          {
            "text": "Interoperability Testing and Training (non-clinical use)"
          }
        ],
        "text": {
          "status": "generated",
          "div": "<div xmlns=\"http://www.w3.org/1999/xhtml\">Provenance for SYNDERAI Synthetic Example Data Resource</div>"
        },
        "recorded": "2021-03-08T12:54:46Z"
      }
    },
    {
      "fullUrl": "urn:uuid:9074b5cb-85ae-4346-a1fc-4259c5d4bb1d",
      "resource": {
        "resourceType": "PractitionerRole",
        "id": "9074b5cb-85ae-4346-a1fc-4259c5d4bb1d",
        "meta": {
          "profile": [
            "http://hl7.eu/fhir/base/StructureDefinition/practitionerRole-eu"
          ]
        },
        "text": {
          "status": "generated",
          "div": "<div xmlns=\"http://www.w3.org/1999/xhtml\">Laboratory Role Id: 9074b5cb-85ae-4346-a1fc-4259c5d4bb1d</div>"
        },
        "practitioner": {
          "reference": "urn:uuid:65091ff8-1716-4a4a-b14c-e0701b6bf64a"
        }
      }
    },
    {
      "fullUrl": "urn:uuid:65091ff8-1716-4a4a-b14c-e0701b6bf64a",
      "resource": {
        "resourceType": "Practitioner",
        "id": "65091ff8-1716-4a4a-b14c-e0701b6bf64a",
        "meta": {
          "profile": [
            "http://hl7.eu/fhir/base/StructureDefinition/practitioner-eu"
          ]
        },
        "identifier": [
          {
            "assigner": {
              "display": "HL7 Europe"
            },
            "system": "urn:oid:2.16.840.1.113883.2.51.999",
            "value": "b6db1e5b-2a98-4554-843b-2e60b7aeb33d"
          }
        ],
        "name": [
          {
            "prefix": [
              "dr"
            ],
            "given": [
              "Ex"
            ],
            "family": "Ample"
          }
        ],
        "address": [
          {
            "line": [
              "Laboratoire Central Européenne",
              "Boulevard du Jardin Botanique 32"
            ],
            "postalCode": "1000",
            "city": "Brussels",
            "country": "Belgium"
          }
        ],
        "text": {
          "status": "generated",
          "div": "<div xmlns=\"http://www.w3.org/1999/xhtml\">Laboratory: Laboratoire Central Européenne, 1000 Brussels, Belgium</div>"
        }
      }
    }
  ],
  "type": "document",
  "timestamp": "2021-03-08T12:54:46Z"
}
