{
  "resourceType": "Bundle",
  "id": "2ec7d3e6-c7c0-45ad-a041-3b3c01a2eb29",
  "meta": {
    "profile": [
      "http://hl7.eu/fhir/laboratory/StructureDefinition/Bundle-eu-lab"
    ]
  },
  "identifier": {
    "assigner": {
      "display": "HL7 Europe"
    },
    "system": "urn:oid:2.16.840.1.113883.2.51.999",
    "value": "e06a6bef-5be9-43fa-b8af-e6bc0a1e89f2"
  },
  "entry": [
    {
      "fullUrl": "urn:uuid:123baa43-f8b8-474f-928b-2a4dd98be723",
      "resource": {
        "resourceType": "Composition",
        "id": "123baa43-f8b8-474f-928b-2a4dd98be723",
        "meta": {
          "profile": [
            "http://hl7.eu/fhir/laboratory/StructureDefinition/Composition-eu-lab"
          ]
        },
        "identifier": {
          "assigner": {
            "display": "HL7 Europe"
          },
          "system": "urn:oid:2.16.840.1.113883.2.51.999",
          "value": "9224d1d3-4272-4f1b-9916-37af3a5a0e9f"
        },
        "author": [
          {
            "reference": "urn:uuid:174c354b-a2ee-40a5-86a6-92d80d98534c"
          }
        ],
        "category": [
          {
            "coding": [
              {
                "code": "26436-6",
                "system": "http://loinc.org",
                "display": "Laboratory studies (set)"
              }
            ]
          }
        ],
        "type": {
          "coding": [
            {
              "code": "11502-2",
              "system": "http://loinc.org",
              "display": "Laboratory report"
            }
          ],
          "text": "Laboratory Report"
        },
        "section": [
          {
            "code": {
              "coding": [
                {
                  "code": "26436-6",
                  "system": "http://loinc.org",
                  "display": "Laboratory studies (set)"
                }
              ],
              "text": "Laboratory studies"
            },
            "section": [
              {
                "code": {
                  "coding": [
                    {
                      "code": "$18719-5",
                      "system": "http://loinc.org",
                      "display": "Chemistry studies (set)"
                    }
                  ],
                  "text": "Chemistry"
                },
                "entry": [
                  {
                    "reference": "urn:uuid:e80eb5de-6aac-443b-a21a-f44ee5271568"
                  },
                  {
                    "reference": "urn:uuid:4cabcc8b-4bbe-4cf9-bec3-4371fdc810b8"
                  },
                  {
                    "reference": "urn:uuid:6b2d6b3d-88bc-44ac-a23f-5278ae87a200"
                  },
                  {
                    "reference": "urn:uuid:a3bff2fb-5f80-4da8-93aa-b0afacdb7203"
                  },
                  {
                    "reference": "urn:uuid:d2ebea6d-58dd-47e8-a31e-31a04efb4080"
                  },
                  {
                    "reference": "urn:uuid:37220c1f-136c-43ee-99b1-b47fb85fe792"
                  },
                  {
                    "reference": "urn:uuid:d83b46f8-a9ad-4a5a-8874-b6586859c671"
                  },
                  {
                    "reference": "urn:uuid:96b8ca16-78b7-4cdc-a5f4-8a527902b5d0"
                  },
                  {
                    "reference": "urn:uuid:ef6fd80d-e537-4f12-8711-dd1238358560"
                  }
                ],
                "text": {
                  "status": "generated",
                  "div": "<div xmlns=\"http://www.w3.org/1999/xhtml\"><h3>Chemistry</h3><table class=\"hl7__eu__lab__report\"><thead><tr><th>Test</th><th>21-JAN-2024</th><th>Reference&#xA0;Range</th><th>Unit</th></tr></thead><tbody><tr><td>Hemoglobin A1c/Hemoglobin.total in Blood</td><td>6.0</td><td>4 - 6</td><td>%</td></tr><tr><td>Glucose [Mass/volume] in Blood</td><td>97.3</td><td>70 - 99</td><td>mg/dL</td></tr><tr><td>Urea nitrogen [Mass/volume] in Blood</td><td>19.2</td><td>7 - 20</td><td>mg/dL</td></tr><tr><td>Creatinine [Mass/volume] in Blood</td><td>1.3</td><td>0.9 - 1.3</td><td>mg/dL</td></tr><tr><td>Calcium [Mass/volume] in Blood</td><td>9.8</td><td>8.5 - 10.5</td><td>mg/dL</td></tr><tr><td>Sodium [Moles/volume] in Blood</td><td>141.1</td><td>135 - 145</td><td>mmol/L</td></tr><tr><td>Potassium [Moles/volume] in Blood</td><td>4.6</td><td>3.5 - 5.1</td><td>mmol/L</td></tr><tr><td>Chloride [Moles/volume] in Blood</td><td>106.5</td><td>98 - 114</td><td>mmol/L</td></tr><tr><td>Carbon dioxide, total [Moles/volume] in Blood</td><td>29.0</td><td>22 - 29</td><td>mmol/L</td></tr></tbody></table></div>"
                },
                "title": "Chemistry"
              }
            ],
            "title": "Laboratory Report"
          },
          {
            "text": {
              "status": "generated",
              "div": "<div xmlns=\"http://www.w3.org/1999/xhtml\"><h3>Annotation</h3><table class=\"hl7__eu__lab__report\"><tr><th>Conclusion and Recommendations based on this report and previous findings known to us</th></tr><tr><td>All measured parameters are within or at the upper limit of their respective reference ranges. HbA1c is at the upper limit, suggesting monitoring for possible prediabetes. Creatinine is also at the upper limit, so renal function should be followed, especially if risk factors are present. No acute abnormalities detected.</td></tr></table></div>"
            },
            "code": {
              "coding": [
                {
                  "system": "http://loinc.org",
                  "code": "48767-8",
                  "display": "Annotation comment"
                }
              ]
            },
            "title": "Annotation comment"
          }
        ],
        "status": "final",
        "subject": {
          "reference": "urn:uuid:8dce6916-9541-4726-a436-b0f0a2cfa9fd",
          "display": "Jason Forster"
        },
        "date": "2024-01-21T11:37:02Z",
        "title": "Laboratory Report",
        "confidentiality": "N"
      }
    },
    {
      "fullUrl": "urn:uuid:444d63fd-10a1-461d-8a59-4d66866a6150",
      "resource": {
        "resourceType": "DiagnosticReport",
        "id": "444d63fd-10a1-461d-8a59-4d66866a6150",
        "meta": {
          "profile": [
            "http://hl7.eu/fhir/laboratory/StructureDefinition/DiagnosticReport-eu-lab"
          ]
        },
        "identifier": [
          {
            "assigner": {
              "display": "HL7 Europe"
            },
            "system": "urn:oid:2.16.840.1.113883.2.51.999",
            "value": "ad855c57-266d-417a-a5a7-e378cc1849fa"
          }
        ],
        "extension": [
          {
            "url": "http://hl7.org/fhir/5.0/StructureDefinition/extension-DiagnosticReport.composition",
            "valueReference": {
              "reference": "urn:uuid:9224d1d3-4272-4f1b-9916-37af3a5a0e9f"
            }
          }
        ],
        "category": [
          {
            "coding": [
              {
                "code": "26436-6",
                "system": "http://loinc.org",
                "display": "Laboratory studies (set)"
              }
            ]
          }
        ],
        "specimen": [
          {
            "reference": "urn:uuid:f00bb11e-19aa-4074-9345-80b42a00a316"
          }
        ],
        "result": [
          {
            "reference": "urn:uuid:e80eb5de-6aac-443b-a21a-f44ee5271568"
          },
          {
            "reference": "urn:uuid:4cabcc8b-4bbe-4cf9-bec3-4371fdc810b8"
          },
          {
            "reference": "urn:uuid:6b2d6b3d-88bc-44ac-a23f-5278ae87a200"
          },
          {
            "reference": "urn:uuid:a3bff2fb-5f80-4da8-93aa-b0afacdb7203"
          },
          {
            "reference": "urn:uuid:d2ebea6d-58dd-47e8-a31e-31a04efb4080"
          },
          {
            "reference": "urn:uuid:37220c1f-136c-43ee-99b1-b47fb85fe792"
          },
          {
            "reference": "urn:uuid:d83b46f8-a9ad-4a5a-8874-b6586859c671"
          },
          {
            "reference": "urn:uuid:96b8ca16-78b7-4cdc-a5f4-8a527902b5d0"
          },
          {
            "reference": "urn:uuid:ef6fd80d-e537-4f12-8711-dd1238358560"
          }
        ],
        "status": "registered",
        "code": {
          "coding": [
            {
              "code": "11502-2",
              "system": "http://loinc.org",
              "display": "Laboratory report"
            }
          ]
        },
        "subject": {
          "reference": "urn:uuid:8dce6916-9541-4726-a436-b0f0a2cfa9fd",
          "display": "Jason Forster"
        }
      }
    },
    {
      "fullUrl": "urn:uuid:8dce6916-9541-4726-a436-b0f0a2cfa9fd",
      "resource": {
        "resourceType": "Patient",
        "id": "8dce6916-9541-4726-a436-b0f0a2cfa9fd",
        "meta": {
          "security": [
            {
              "system": "http://terminology.hl7.org/CodeSystem/v3-ActReason",
              "code": "HTEST"
            },
            {
              "system": "http://terminology.hl7.org/CodeSystem/v3-ActReason",
              "code": "TRAIN"
            }
          ],
          "tag": [
            {
              "system": "https://synderai.net/fhir/CodeSystem/tags",
              "code": "synthetic",
              "display": "SYNDERAI Synthetic data"
            }
          ],
          "profile": [
            "http://hl7.eu/fhir/base/StructureDefinition/patient-eu-core"
          ]
        },
        "identifier": [
          {
            "type": {
              "coding": [
                {
                  "code": "PT",
                  "system": "http://terminology.hl7.org/CodeSystem/v2-0203"
                }
              ]
            },
            "system": "http://ec.europa.eu/identifier/eci",
            "value": "2238-744377-7"
          },
          {
            "type": {
              "coding": [
                {
                  "code": "MR",
                  "system": "http://terminology.hl7.org/CodeSystem/v2-0203"
                }
              ]
            },
            "system": "http://local.setting.eu/identifier",
            "value": "dc5e9b59-86bb-95c9-eab3-9675ec81c274"
          }
        ],
        "name": [
          {
            "family": "Forster"
          },
          {
            "given": [
              "Jason"
            ]
          },
          {
            "text": "Jason Forster"
          }
        ],
        "address": [
          {
            "line": [
              "437 Martin trail"
            ],
            "use": "home",
            "type": "physical",
            "postalCode": "M20",
            "city": "Heatherville",
            "country": "United Kingdom"
          }
        ],
        "telecom": [
          {
            "system": "phone",
            "value": "01632960273"
          }
        ],
        "extension": [
          {
            "url": "http://hl7.org/fhir/StructureDefinition/patient-nationality",
            "valueCodeableConcept": {
              "coding": [
                {
                  "code": "GB",
                  "system": "http://hl7.org/fhir/ValueSet/country"
                }
              ]
            }
          }
        ],
        "text": {
          "status": "generated",
          "div": "<div xmlns=\"http://www.w3.org/1999/xhtml\"><table class=\"hl7__ips\"><tr><td>Jason Forster</td><td>male</td><td>10-Mar-1983</td></tr></table></div>"
        },
        "gender": "male",
        "birthDate": "1983-03-10"
      }
    },
    {
      "fullUrl": "urn:uuid:bd040876-b84f-4b2b-add0-484ab2a055aa",
      "resource": {
        "resourceType": "ServiceRequest",
        "id": "bd040876-b84f-4b2b-add0-484ab2a055aa",
        "meta": {
          "profile": [
            "http://hl7.eu/fhir/laboratory/StructureDefinition/ServiceRequest-eu-lab"
          ]
        },
        "identifier": [
          {
            "system": "http://example.org",
            "value": "07cb180f-941f-403e-a3ce-82f22f1a7fcb"
          }
        ],
        "specimen": [
          {
            "reference": "urn:uuid:f00bb11e-19aa-4074-9345-80b42a00a316"
          }
        ],
        "reasonCode": [
          {
            "coding": [
              {
                "code": "15777000",
                "system": "http://snomed.info/sct",
                "display": "Prediabetes"
              }
            ]
          },
          {
            "coding": [
              {
                "code": "239873007",
                "system": "http://snomed.info/sct",
                "display": "Osteoarthritis of knee"
              }
            ]
          }
        ],
        "status": "active",
        "intent": "order",
        "code": {
          "coding": [
            {
              "code": "108252007",
              "system": "http://snomed.info/sct",
              "display": "Laboratory procedure"
            }
          ]
        },
        "subject": {
          "reference": "urn:uuid:8dce6916-9541-4726-a436-b0f0a2cfa9fd",
          "display": "Jason Forster"
        },
        "requester": {
          "reference": "urn:uuid:0001048f-9ad8-49bf-8092-a897b60dc440"
        }
      }
    },
    {
      "fullUrl": "urn:uuid:0001048f-9ad8-49bf-8092-a897b60dc440",
      "resource": {
        "resourceType": "PractitionerRole",
        "id": "0001048f-9ad8-49bf-8092-a897b60dc440",
        "meta": {
          "profile": [
            "http://hl7.eu/fhir/base/StructureDefinition/practitionerRole-eu"
          ]
        },
        "text": {
          "status": "generated",
          "div": "<div xmlns=\"http://www.w3.org/1999/xhtml\">Provider Role Id: 0001048f-9ad8-49bf-8092-a897b60dc440</div>"
        },
        "organization": {
          "reference": "urn:uuid:2ddd7a53-fb0a-4ad1-b6a6-0b67c3e98155"
        }
      }
    },
    {
      "fullUrl": "urn:uuid:2ddd7a53-fb0a-4ad1-b6a6-0b67c3e98155",
      "resource": {
        "resourceType": "Organization",
        "id": "2ddd7a53-fb0a-4ad1-b6a6-0b67c3e98155",
        "meta": {
          "profile": [
            "http://hl7.eu/fhir/base/StructureDefinition/organization-eu"
          ]
        },
        "identifier": [
          {
            "assigner": {
              "display": "HL7 Europe"
            },
            "system": "urn:oid:2.16.840.1.113883.2.51.999",
            "value": "87dece98-0acb-4b96-817f-44a17823b882"
          }
        ],
        "address": [
          {
            "line": [
              "City Road 204"
            ],
            "city": "Manchester",
            "postalCode": "M3 3",
            "country": "United Kingdom"
          }
        ],
        "text": {
          "status": "generated",
          "div": "<div xmlns=\"http://www.w3.org/1999/xhtml\">Provider Organization: Cornbrook Medical Practice</div>"
        },
        "name": "Cornbrook Medical Practice"
      }
    },
    {
      "fullUrl": "urn:uuid:f00bb11e-19aa-4074-9345-80b42a00a316",
      "resource": {
        "resourceType": "Specimen",
        "id": "f00bb11e-19aa-4074-9345-80b42a00a316",
        "meta": {
          "profile": [
            "http://hl7.eu/fhir/laboratory/StructureDefinition/Specimen-eu-lab"
          ]
        },
        "collection": {
          "collectedDateTime": "2024-01-21"
        },
        "text": {
          "status": "generated",
          "div": "<div xmlns=\"http://www.w3.org/1999/xhtml\"><table class=\"hl7__eu__lab__report\"><tr><th>Specimen</th><th>Collection Date</th></tr><tr><td>Whole blood specimen (specimen)</td><td><span class=\"nb\">21-Jan-2024</span></td></tr></table></div>"
        },
        "type": {
          "coding": [
            {
              "code": "258580003",
              "system": "http://snomed.info/sct",
              "display": "Whole blood specimen (specimen)"
            }
          ]
        }
      }
    },
    {
      "fullUrl": "urn:uuid:e80eb5de-6aac-443b-a21a-f44ee5271568",
      "resource": {
        "resourceType": "Observation",
        "id": "e80eb5de-6aac-443b-a21a-f44ee5271568",
        "meta": {
          "profile": [
            "http://hl7.eu/fhir/laboratory/StructureDefinition/Observation-resultslab-eu-lab"
          ]
        },
        "performer": [
          {
            "display": "The Central European Lab"
          }
        ],
        "category": [
          {
            "coding": [
              {
                "system": "http://terminology.hl7.org/CodeSystem/observation-category",
                "code": "laboratory"
              }
            ]
          }
        ],
        "code": {
          "coding": [
            {
              "code": "4548-4",
              "system": "http://loinc.org",
              "display": "Hemoglobin A1c/Hemoglobin.total in Blood"
            }
          ],
          "text": "Hemoglobin A1c/Hemoglobin.total in Blood"
        },
        "valueQuantity": {
          "system": "http://unitsofmeasure.org",
          "value": 6,
          "unit": "%",
          "code": "%"
        },
        "referenceRange": [
          {
            "low": {
              "value": 4,
              "code": "%",
              "system": "http://unitsofmeasure.org"
            }
          },
          {
            "high": {
              "value": 6,
              "code": "%",
              "system": "http://unitsofmeasure.org"
            }
          }
        ],
        "text": {
          "status": "generated",
          "div": "<div xmlns=\"http://www.w3.org/1999/xhtml\"><table class=\"hl7__eu__lab__report\"><tr><th>Test</th><th>21-Jan-2024</th><th>Reference&#xA0;Range</th><th>Unit</th></tr><tr><td>Hemoglobin A1c/Hemoglobin.total in Blood</td><td>6.0</td><td>4 - 6</td><td></td><td>%</td></tr></table></div>"
        },
        "status": "final",
        "subject": {
          "reference": "urn:uuid:8dce6916-9541-4726-a436-b0f0a2cfa9fd",
          "display": "Jason Forster"
        },
        "effectiveDateTime": "2024-01-21T10:37:02Z",
        "specimen": {
          "reference": "urn:uuid:f00bb11e-19aa-4074-9345-80b42a00a316"
        }
      }
    },
    {
      "fullUrl": "urn:uuid:4cabcc8b-4bbe-4cf9-bec3-4371fdc810b8",
      "resource": {
        "resourceType": "Observation",
        "id": "4cabcc8b-4bbe-4cf9-bec3-4371fdc810b8",
        "meta": {
          "profile": [
            "http://hl7.eu/fhir/laboratory/StructureDefinition/Observation-resultslab-eu-lab"
          ]
        },
        "performer": [
          {
            "display": "The Central European Lab"
          }
        ],
        "category": [
          {
            "coding": [
              {
                "system": "http://terminology.hl7.org/CodeSystem/observation-category",
                "code": "laboratory"
              }
            ]
          }
        ],
        "code": {
          "coding": [
            {
              "code": "2339-0",
              "system": "http://loinc.org",
              "display": "Glucose [Mass/volume] in Blood"
            }
          ],
          "text": "Glucose [Mass/volume] in Blood"
        },
        "valueQuantity": {
          "system": "http://unitsofmeasure.org",
          "value": 97.3,
          "unit": "mg/dL",
          "code": "mg/dL"
        },
        "referenceRange": [
          {
            "low": {
              "value": 70,
              "code": "mg/dL",
              "system": "http://unitsofmeasure.org"
            }
          },
          {
            "high": {
              "value": 99,
              "code": "mg/dL",
              "system": "http://unitsofmeasure.org"
            }
          }
        ],
        "text": {
          "status": "generated",
          "div": "<div xmlns=\"http://www.w3.org/1999/xhtml\"><table class=\"hl7__eu__lab__report\"><tr><th>Test</th><th>21-Jan-2024</th><th>Reference&#xA0;Range</th><th>Unit</th></tr><tr><td>Glucose [Mass/volume] in Blood</td><td>97.3</td><td>70 - 99</td><td></td><td>mg/dL</td></tr></table></div>"
        },
        "status": "final",
        "subject": {
          "reference": "urn:uuid:8dce6916-9541-4726-a436-b0f0a2cfa9fd",
          "display": "Jason Forster"
        },
        "effectiveDateTime": "2024-01-21T10:37:02Z",
        "specimen": {
          "reference": "urn:uuid:f00bb11e-19aa-4074-9345-80b42a00a316"
        }
      }
    },
    {
      "fullUrl": "urn:uuid:6b2d6b3d-88bc-44ac-a23f-5278ae87a200",
      "resource": {
        "resourceType": "Observation",
        "id": "6b2d6b3d-88bc-44ac-a23f-5278ae87a200",
        "meta": {
          "profile": [
            "http://hl7.eu/fhir/laboratory/StructureDefinition/Observation-resultslab-eu-lab"
          ]
        },
        "performer": [
          {
            "display": "The Central European Lab"
          }
        ],
        "category": [
          {
            "coding": [
              {
                "system": "http://terminology.hl7.org/CodeSystem/observation-category",
                "code": "laboratory"
              }
            ]
          }
        ],
        "code": {
          "coding": [
            {
              "code": "6299-2",
              "system": "http://loinc.org",
              "display": "Urea nitrogen [Mass/volume] in Blood"
            }
          ],
          "text": "Urea nitrogen [Mass/volume] in Blood"
        },
        "valueQuantity": {
          "system": "http://unitsofmeasure.org",
          "value": 19.2,
          "unit": "mg/dL",
          "code": "mg/dL"
        },
        "referenceRange": [
          {
            "low": {
              "value": 7,
              "code": "mg/dL",
              "system": "http://unitsofmeasure.org"
            }
          },
          {
            "high": {
              "value": 20,
              "code": "mg/dL",
              "system": "http://unitsofmeasure.org"
            }
          }
        ],
        "text": {
          "status": "generated",
          "div": "<div xmlns=\"http://www.w3.org/1999/xhtml\"><table class=\"hl7__eu__lab__report\"><tr><th>Test</th><th>21-Jan-2024</th><th>Reference&#xA0;Range</th><th>Unit</th></tr><tr><td>Urea nitrogen [Mass/volume] in Blood</td><td>19.2</td><td>7 - 20</td><td></td><td>mg/dL</td></tr></table></div>"
        },
        "status": "final",
        "subject": {
          "reference": "urn:uuid:8dce6916-9541-4726-a436-b0f0a2cfa9fd",
          "display": "Jason Forster"
        },
        "effectiveDateTime": "2024-01-21T10:37:02Z",
        "specimen": {
          "reference": "urn:uuid:f00bb11e-19aa-4074-9345-80b42a00a316"
        }
      }
    },
    {
      "fullUrl": "urn:uuid:a3bff2fb-5f80-4da8-93aa-b0afacdb7203",
      "resource": {
        "resourceType": "Observation",
        "id": "a3bff2fb-5f80-4da8-93aa-b0afacdb7203",
        "meta": {
          "profile": [
            "http://hl7.eu/fhir/laboratory/StructureDefinition/Observation-resultslab-eu-lab"
          ]
        },
        "performer": [
          {
            "display": "The Central European Lab"
          }
        ],
        "category": [
          {
            "coding": [
              {
                "system": "http://terminology.hl7.org/CodeSystem/observation-category",
                "code": "laboratory"
              }
            ]
          }
        ],
        "code": {
          "coding": [
            {
              "code": "38483-4",
              "system": "http://loinc.org",
              "display": "Creatinine [Mass/volume] in Blood"
            }
          ],
          "text": "Creatinine [Mass/volume] in Blood"
        },
        "valueQuantity": {
          "system": "http://unitsofmeasure.org",
          "value": 1.3,
          "unit": "mg/dL",
          "code": "mg/dL"
        },
        "referenceRange": [
          {
            "low": {
              "value": 0.9,
              "code": "mg/dL",
              "system": "http://unitsofmeasure.org"
            }
          },
          {
            "high": {
              "value": 1.3,
              "code": "mg/dL",
              "system": "http://unitsofmeasure.org"
            }
          }
        ],
        "text": {
          "status": "generated",
          "div": "<div xmlns=\"http://www.w3.org/1999/xhtml\"><table class=\"hl7__eu__lab__report\"><tr><th>Test</th><th>21-Jan-2024</th><th>Reference&#xA0;Range</th><th>Unit</th></tr><tr><td>Creatinine [Mass/volume] in Blood</td><td>1.3</td><td>0.9 - 1.3</td><td></td><td>mg/dL</td></tr></table></div>"
        },
        "status": "final",
        "subject": {
          "reference": "urn:uuid:8dce6916-9541-4726-a436-b0f0a2cfa9fd",
          "display": "Jason Forster"
        },
        "effectiveDateTime": "2024-01-21T10:37:02Z",
        "specimen": {
          "reference": "urn:uuid:f00bb11e-19aa-4074-9345-80b42a00a316"
        }
      }
    },
    {
      "fullUrl": "urn:uuid:d2ebea6d-58dd-47e8-a31e-31a04efb4080",
      "resource": {
        "resourceType": "Observation",
        "id": "d2ebea6d-58dd-47e8-a31e-31a04efb4080",
        "meta": {
          "profile": [
            "http://hl7.eu/fhir/laboratory/StructureDefinition/Observation-resultslab-eu-lab"
          ]
        },
        "performer": [
          {
            "display": "The Central European Lab"
          }
        ],
        "category": [
          {
            "coding": [
              {
                "system": "http://terminology.hl7.org/CodeSystem/observation-category",
                "code": "laboratory"
              }
            ]
          }
        ],
        "code": {
          "coding": [
            {
              "code": "49765-1",
              "system": "http://loinc.org",
              "display": "Calcium [Mass/volume] in Blood"
            }
          ],
          "text": "Calcium [Mass/volume] in Blood"
        },
        "valueQuantity": {
          "system": "http://unitsofmeasure.org",
          "value": 9.8,
          "unit": "mg/dL",
          "code": "mg/dL"
        },
        "referenceRange": [
          {
            "low": {
              "value": 8.5,
              "code": "mg/dL",
              "system": "http://unitsofmeasure.org"
            }
          },
          {
            "high": {
              "value": 10.5,
              "code": "mg/dL",
              "system": "http://unitsofmeasure.org"
            }
          }
        ],
        "text": {
          "status": "generated",
          "div": "<div xmlns=\"http://www.w3.org/1999/xhtml\"><table class=\"hl7__eu__lab__report\"><tr><th>Test</th><th>21-Jan-2024</th><th>Reference&#xA0;Range</th><th>Unit</th></tr><tr><td>Calcium [Mass/volume] in Blood</td><td>9.8</td><td>8.5 - 10.5</td><td></td><td>mg/dL</td></tr></table></div>"
        },
        "status": "final",
        "subject": {
          "reference": "urn:uuid:8dce6916-9541-4726-a436-b0f0a2cfa9fd",
          "display": "Jason Forster"
        },
        "effectiveDateTime": "2024-01-21T10:37:02Z",
        "specimen": {
          "reference": "urn:uuid:f00bb11e-19aa-4074-9345-80b42a00a316"
        }
      }
    },
    {
      "fullUrl": "urn:uuid:37220c1f-136c-43ee-99b1-b47fb85fe792",
      "resource": {
        "resourceType": "Observation",
        "id": "37220c1f-136c-43ee-99b1-b47fb85fe792",
        "meta": {
          "profile": [
            "http://hl7.eu/fhir/laboratory/StructureDefinition/Observation-resultslab-eu-lab"
          ]
        },
        "performer": [
          {
            "display": "The Central European Lab"
          }
        ],
        "category": [
          {
            "coding": [
              {
                "system": "http://terminology.hl7.org/CodeSystem/observation-category",
                "code": "laboratory"
              }
            ]
          }
        ],
        "code": {
          "coding": [
            {
              "code": "2947-0",
              "system": "http://loinc.org",
              "display": "Sodium [Moles/volume] in Blood"
            }
          ],
          "text": "Sodium [Moles/volume] in Blood"
        },
        "valueQuantity": {
          "system": "http://unitsofmeasure.org",
          "value": 141.1,
          "unit": "mmol/L",
          "code": "mmol/L"
        },
        "referenceRange": [
          {
            "low": {
              "value": 135,
              "code": "mmol/L",
              "system": "http://unitsofmeasure.org"
            }
          },
          {
            "high": {
              "value": 145,
              "code": "mmol/L",
              "system": "http://unitsofmeasure.org"
            }
          }
        ],
        "text": {
          "status": "generated",
          "div": "<div xmlns=\"http://www.w3.org/1999/xhtml\"><table class=\"hl7__eu__lab__report\"><tr><th>Test</th><th>21-Jan-2024</th><th>Reference&#xA0;Range</th><th>Unit</th></tr><tr><td>Sodium [Moles/volume] in Blood</td><td>141.1</td><td>135 - 145</td><td></td><td>mmol/L</td></tr></table></div>"
        },
        "status": "final",
        "subject": {
          "reference": "urn:uuid:8dce6916-9541-4726-a436-b0f0a2cfa9fd",
          "display": "Jason Forster"
        },
        "effectiveDateTime": "2024-01-21T10:37:02Z",
        "specimen": {
          "reference": "urn:uuid:f00bb11e-19aa-4074-9345-80b42a00a316"
        }
      }
    },
    {
      "fullUrl": "urn:uuid:d83b46f8-a9ad-4a5a-8874-b6586859c671",
      "resource": {
        "resourceType": "Observation",
        "id": "d83b46f8-a9ad-4a5a-8874-b6586859c671",
        "meta": {
          "profile": [
            "http://hl7.eu/fhir/laboratory/StructureDefinition/Observation-resultslab-eu-lab"
          ]
        },
        "performer": [
          {
            "display": "The Central European Lab"
          }
        ],
        "category": [
          {
            "coding": [
              {
                "system": "http://terminology.hl7.org/CodeSystem/observation-category",
                "code": "laboratory"
              }
            ]
          }
        ],
        "code": {
          "coding": [
            {
              "code": "6298-4",
              "system": "http://loinc.org",
              "display": "Potassium [Moles/volume] in Blood"
            }
          ],
          "text": "Potassium [Moles/volume] in Blood"
        },
        "valueQuantity": {
          "system": "http://unitsofmeasure.org",
          "value": 4.6,
          "unit": "mmol/L",
          "code": "mmol/L"
        },
        "referenceRange": [
          {
            "low": {
              "value": 3.5,
              "code": "mmol/L",
              "system": "http://unitsofmeasure.org"
            }
          },
          {
            "high": {
              "value": 5.1,
              "code": "mmol/L",
              "system": "http://unitsofmeasure.org"
            }
          }
        ],
        "text": {
          "status": "generated",
          "div": "<div xmlns=\"http://www.w3.org/1999/xhtml\"><table class=\"hl7__eu__lab__report\"><tr><th>Test</th><th>21-Jan-2024</th><th>Reference&#xA0;Range</th><th>Unit</th></tr><tr><td>Potassium [Moles/volume] in Blood</td><td>4.6</td><td>3.5 - 5.1</td><td></td><td>mmol/L</td></tr></table></div>"
        },
        "status": "final",
        "subject": {
          "reference": "urn:uuid:8dce6916-9541-4726-a436-b0f0a2cfa9fd",
          "display": "Jason Forster"
        },
        "effectiveDateTime": "2024-01-21T10:37:02Z",
        "specimen": {
          "reference": "urn:uuid:f00bb11e-19aa-4074-9345-80b42a00a316"
        }
      }
    },
    {
      "fullUrl": "urn:uuid:96b8ca16-78b7-4cdc-a5f4-8a527902b5d0",
      "resource": {
        "resourceType": "Observation",
        "id": "96b8ca16-78b7-4cdc-a5f4-8a527902b5d0",
        "meta": {
          "profile": [
            "http://hl7.eu/fhir/laboratory/StructureDefinition/Observation-resultslab-eu-lab"
          ]
        },
        "performer": [
          {
            "display": "The Central European Lab"
          }
        ],
        "category": [
          {
            "coding": [
              {
                "system": "http://terminology.hl7.org/CodeSystem/observation-category",
                "code": "laboratory"
              }
            ]
          }
        ],
        "code": {
          "coding": [
            {
              "code": "2069-3",
              "system": "http://loinc.org",
              "display": "Chloride [Moles/volume] in Blood"
            }
          ],
          "text": "Chloride [Moles/volume] in Blood"
        },
        "valueQuantity": {
          "system": "http://unitsofmeasure.org",
          "value": 106.5,
          "unit": "mmol/L",
          "code": "mmol/L"
        },
        "referenceRange": [
          {
            "low": {
              "value": 98,
              "code": "mmol/L",
              "system": "http://unitsofmeasure.org"
            }
          },
          {
            "high": {
              "value": 114,
              "code": "mmol/L",
              "system": "http://unitsofmeasure.org"
            }
          }
        ],
        "text": {
          "status": "generated",
          "div": "<div xmlns=\"http://www.w3.org/1999/xhtml\"><table class=\"hl7__eu__lab__report\"><tr><th>Test</th><th>21-Jan-2024</th><th>Reference&#xA0;Range</th><th>Unit</th></tr><tr><td>Chloride [Moles/volume] in Blood</td><td>106.5</td><td>98 - 114</td><td></td><td>mmol/L</td></tr></table></div>"
        },
        "status": "final",
        "subject": {
          "reference": "urn:uuid:8dce6916-9541-4726-a436-b0f0a2cfa9fd",
          "display": "Jason Forster"
        },
        "effectiveDateTime": "2024-01-21T10:37:02Z",
        "specimen": {
          "reference": "urn:uuid:f00bb11e-19aa-4074-9345-80b42a00a316"
        }
      }
    },
    {
      "fullUrl": "urn:uuid:ef6fd80d-e537-4f12-8711-dd1238358560",
      "resource": {
        "resourceType": "Observation",
        "id": "ef6fd80d-e537-4f12-8711-dd1238358560",
        "meta": {
          "profile": [
            "http://hl7.eu/fhir/laboratory/StructureDefinition/Observation-resultslab-eu-lab"
          ]
        },
        "performer": [
          {
            "display": "The Central European Lab"
          }
        ],
        "category": [
          {
            "coding": [
              {
                "system": "http://terminology.hl7.org/CodeSystem/observation-category",
                "code": "laboratory"
              }
            ]
          }
        ],
        "code": {
          "coding": [
            {
              "code": "20565-8",
              "system": "http://loinc.org",
              "display": "Carbon dioxide, total [Moles/volume] in Blood"
            }
          ],
          "text": "Carbon dioxide, total [Moles/volume] in Blood"
        },
        "valueQuantity": {
          "system": "http://unitsofmeasure.org",
          "value": 29,
          "unit": "mmol/L",
          "code": "mmol/L"
        },
        "referenceRange": [
          {
            "low": {
              "value": 22,
              "code": "mmol/L",
              "system": "http://unitsofmeasure.org"
            }
          },
          {
            "high": {
              "value": 29,
              "code": "mmol/L",
              "system": "http://unitsofmeasure.org"
            }
          }
        ],
        "text": {
          "status": "generated",
          "div": "<div xmlns=\"http://www.w3.org/1999/xhtml\"><table class=\"hl7__eu__lab__report\"><tr><th>Test</th><th>21-Jan-2024</th><th>Reference&#xA0;Range</th><th>Unit</th></tr><tr><td>Carbon dioxide, total [Moles/volume] in Blood</td><td>29.0</td><td>22 - 29</td><td></td><td>mmol/L</td></tr></table></div>"
        },
        "status": "final",
        "subject": {
          "reference": "urn:uuid:8dce6916-9541-4726-a436-b0f0a2cfa9fd",
          "display": "Jason Forster"
        },
        "effectiveDateTime": "2024-01-21T10:37:02Z",
        "specimen": {
          "reference": "urn:uuid:f00bb11e-19aa-4074-9345-80b42a00a316"
        }
      }
    },
    {
      "fullUrl": "urn:uuid:afacd231-191c-453c-8dfc-cf921e71ea17",
      "resource": {
        "resourceType": "Device",
        "id": "afacd231-191c-453c-8dfc-cf921e71ea17",
        "deviceName": [
          {
            "name": "SYNDERAI Synthetic Generator",
            "type": "manufacturer-name"
          }
        ],
        "version": [
          {
            "value": "5.0"
          }
        ],
        "text": {
          "status": "generated",
          "div": "<div xmlns=\"http://www.w3.org/1999/xhtml\">SYNDERAI Synthetic Generator v5.0</div>"
        },
        "status": "active\"",
        "distinctIdentifier": "synderai-generator-50",
        "manufacturer": "SYNDERAI Project"
      }
    },
    {
      "fullUrl": "urn:uuid:18f54e31-0c6b-4ed9-af76-b064fa09fa77",
      "resource": {
        "resourceType": "Provenance",
        "id": "18f54e31-0c6b-4ed9-af76-b064fa09fa77",
        "target": [
          {
            "reference": "Patient/8dce6916-9541-4726-a436-b0f0a2cfa9fd"
          },
          {
            "reference": "Bundle/2ec7d3e6-c7c0-45ad-a041-3b3c01a2eb29"
          },
          {
            "reference": "Composition/123baa43-f8b8-474f-928b-2a4dd98be723"
          },
          {
            "reference": "PractitionerRole/174c354b-a2ee-40a5-86a6-92d80d98534c"
          },
          {
            "reference": "Practitioner/6ad27b20-8cf2-4fa6-bc27-4711f6947b84"
          },
          {
            "reference": "PractitionerRole/0001048f-9ad8-49bf-8092-a897b60dc440"
          },
          {
            "reference": "Organization/2ddd7a53-fb0a-4ad1-b6a6-0b67c3e98155"
          }
        ],
        "activity": {
          "text": "Synthetic Example Data Generation"
        },
        "policy": [
          "https://synderai.net/synderai-synthetic-data-policy"
        ],
        "agent": [
          {
            "type": {
              "text": "author"
            },
            "who": {
              "reference": "Device/afacd231-191c-453c-8dfc-cf921e71ea17"
            }
          }
        ],
        "reason": [
          {
            "text": "Interoperability Testing and Training (non-clinical use)"
          }
        ],
        "text": {
          "status": "generated",
          "div": "<div xmlns=\"http://www.w3.org/1999/xhtml\">Provenance for SYNDERAI Synthetic Example Data Resource</div>"
        },
        "recorded": "2024-01-21T11:37:02Z"
      }
    },
    {
      "fullUrl": "urn:uuid:174c354b-a2ee-40a5-86a6-92d80d98534c",
      "resource": {
        "resourceType": "PractitionerRole",
        "id": "174c354b-a2ee-40a5-86a6-92d80d98534c",
        "meta": {
          "profile": [
            "http://hl7.eu/fhir/base/StructureDefinition/practitionerRole-eu"
          ]
        },
        "text": {
          "status": "generated",
          "div": "<div xmlns=\"http://www.w3.org/1999/xhtml\">Laboratory Role Id: 174c354b-a2ee-40a5-86a6-92d80d98534c</div>"
        },
        "practitioner": {
          "reference": "urn:uuid:6ad27b20-8cf2-4fa6-bc27-4711f6947b84"
        }
      }
    },
    {
      "fullUrl": "urn:uuid:6ad27b20-8cf2-4fa6-bc27-4711f6947b84",
      "resource": {
        "resourceType": "Practitioner",
        "id": "6ad27b20-8cf2-4fa6-bc27-4711f6947b84",
        "meta": {
          "profile": [
            "http://hl7.eu/fhir/base/StructureDefinition/practitioner-eu"
          ]
        },
        "identifier": [
          {
            "assigner": {
              "display": "HL7 Europe"
            },
            "system": "urn:oid:2.16.840.1.113883.2.51.999",
            "value": "b3e3a105-ee29-4053-995c-ffd2eacdcbf9"
          }
        ],
        "name": [
          {
            "prefix": [
              "dr"
            ],
            "given": [
              "Ex"
            ],
            "family": "Ample"
          }
        ],
        "address": [
          {
            "line": [
              "Laboratoire Central Européenne",
              "Boulevard du Jardin Botanique 32"
            ],
            "postalCode": "1000",
            "city": "Brussels",
            "country": "Belgium"
          }
        ],
        "text": {
          "status": "generated",
          "div": "<div xmlns=\"http://www.w3.org/1999/xhtml\">Laboratory: Laboratoire Central Européenne, 1000 Brussels, Belgium</div>"
        }
      }
    }
  ],
  "type": "document",
  "timestamp": "2024-01-21T11:37:02Z"
}
