{
  "resourceType": "Bundle",
  "id": "19823bf0-b0c3-4764-9e2d-874772bbb55d",
  "meta": {
    "profile": [
      "http://hl7.eu/fhir/laboratory/StructureDefinition/Bundle-eu-lab"
    ]
  },
  "identifier": {
    "assigner": {
      "display": "HL7 Europe"
    },
    "system": "urn:oid:2.16.840.1.113883.2.51.999",
    "value": "db2699cf-c13b-4235-b40f-7a6fa3eac46e"
  },
  "entry": [
    {
      "fullUrl": "urn:uuid:65d3674a-ff91-4547-911e-92120cafc8f4",
      "resource": {
        "resourceType": "Composition",
        "id": "65d3674a-ff91-4547-911e-92120cafc8f4",
        "meta": {
          "profile": [
            "http://hl7.eu/fhir/laboratory/StructureDefinition/Composition-eu-lab"
          ]
        },
        "identifier": {
          "assigner": {
            "display": "HL7 Europe"
          },
          "system": "urn:oid:2.16.840.1.113883.2.51.999",
          "value": "e41d56dc-943a-41ec-b387-e92d104a2df4"
        },
        "author": [
          {
            "reference": "urn:uuid:01a24704-3b7c-40da-b213-fa0ad2652de4"
          }
        ],
        "category": [
          {
            "coding": [
              {
                "code": "26436-6",
                "system": "http://loinc.org",
                "display": "Laboratory studies (set)"
              }
            ]
          }
        ],
        "type": {
          "coding": [
            {
              "code": "11502-2",
              "system": "http://loinc.org",
              "display": "Laboratory report"
            }
          ],
          "text": "Laboratory Report"
        },
        "section": [
          {
            "code": {
              "coding": [
                {
                  "code": "26436-6",
                  "system": "http://loinc.org",
                  "display": "Laboratory studies (set)"
                }
              ],
              "text": "Laboratory studies"
            },
            "section": [
              {
                "code": {
                  "coding": [
                    {
                      "code": "$18719-5",
                      "system": "http://loinc.org",
                      "display": "Chemistry studies (set)"
                    }
                  ],
                  "text": "Chemistry"
                },
                "entry": [
                  {
                    "reference": "urn:uuid:0c4554eb-a6c7-4003-9a76-20f99d56a724"
                  },
                  {
                    "reference": "urn:uuid:4c0a766b-e907-4c8f-9aad-7b24060aa01f"
                  },
                  {
                    "reference": "urn:uuid:ed368689-e298-4d03-81fd-d274991ed625"
                  },
                  {
                    "reference": "urn:uuid:159182dc-f3a8-4b78-aa8c-0ad0832d65fd"
                  },
                  {
                    "reference": "urn:uuid:8062f973-890d-4bea-a73e-db93efd8125a"
                  },
                  {
                    "reference": "urn:uuid:85ce9444-76b0-4fef-8171-7b8ea31c0dc2"
                  },
                  {
                    "reference": "urn:uuid:944e4093-79b3-49dd-abc9-af7a210c021d"
                  },
                  {
                    "reference": "urn:uuid:beb25f02-e438-4afd-a7d1-0eb974d1b813"
                  },
                  {
                    "reference": "urn:uuid:d7668399-d88b-4ddd-ada7-9af358fb00f4"
                  },
                  {
                    "reference": "urn:uuid:a8f6824d-6d6a-424c-86e0-36cf143480ed"
                  },
                  {
                    "reference": "urn:uuid:9be59bdb-b9f7-4168-8cc1-c48f7fad3c08"
                  },
                  {
                    "reference": "urn:uuid:54c53c76-f97c-4f74-88ae-9577c6f3551c"
                  },
                  {
                    "reference": "urn:uuid:377097bd-cba2-4a3b-9117-6eb562452966"
                  },
                  {
                    "reference": "urn:uuid:f450c4d8-3686-41c0-9bd2-e43294286676"
                  },
                  {
                    "reference": "urn:uuid:a148a7b2-e827-46e9-9812-06d74af7a317"
                  },
                  {
                    "reference": "urn:uuid:1320315e-1e47-489e-bc1e-ad67abd988ef"
                  },
                  {
                    "reference": "urn:uuid:6e7de3ee-5cf5-48a5-9ef4-b930783b3da5"
                  },
                  {
                    "reference": "urn:uuid:c9cbac01-a178-45e4-9fd4-6a3c1f8a915f"
                  }
                ],
                "text": {
                  "status": "generated",
                  "div": "<div xmlns=\"http://www.w3.org/1999/xhtml\"><h3>Chemistry</h3><table class=\"hl7__eu__lab__report\"><thead><tr><th>Test</th><th>23-DEC-2016</th><th>Reference&#xA0;Range</th><th>Unit</th></tr></thead><tbody><tr><td>Glucose [Mass/volume] in Serum or Plasma</td><td><strong>68.3 L</strong></td><td>70 - 140</td><td>mg/dL</td></tr><tr><td>Urea nitrogen [Mass/volume] in Serum or Plasma</td><td>7.1</td><td>7 - 20</td><td>mg/dL</td></tr><tr><td>Creatinine [Mass/volume] in Serum or Plasma</td><td><strong>1.8 H</strong></td><td>0.9 - 1.3</td><td>mg/dL</td></tr><tr><td>Calcium [Mass/volume] in Serum or Plasma</td><td>9.6</td><td>8.5 - 10.5</td><td>mg/dL</td></tr><tr><td>Sodium [Moles/volume] in Serum or Plasma</td><td>137.3</td><td>135 - 145</td><td>mmol/L</td></tr><tr><td>Potassium [Moles/volume] in Serum or Plasma</td><td>4.8</td><td>3.5 - 5.3</td><td>mmol/L</td></tr><tr><td>Chloride [Moles/volume] in Serum or Plasma</td><td>107.0</td><td>98 - 107</td><td>mmol/L</td></tr><tr><td>Carbon dioxide, total [Moles/volume] in Serum or Plasma</td><td><strong>20.4 L</strong></td><td>22 - 33</td><td>mmol/L</td></tr><tr><td>Ketones [Presence] in Urine by Test strip</td><td>Urine ketone test = +</td><td></td><td></td></tr><tr><td>Hemoglobin A1c/Hemoglobin.total in Blood</td><td><strong>3.3 L</strong></td><td>4.3 - 6</td><td>%</td></tr><tr><td>Glucose [Mass/volume] in Blood</td><td><strong>68.3 L</strong></td><td>70 - 140</td><td>mg/dL</td></tr><tr><td>Urea nitrogen [Mass/volume] in Blood</td><td>7.1</td><td>7 - 20</td><td>mg/dL</td></tr><tr><td>Creatinine [Mass/volume] in Blood</td><td><strong>1.7 H</strong></td><td>0.9 - 1.3</td><td>mg/dL</td></tr><tr><td>Calcium [Mass/volume] in Blood</td><td>9.6</td><td>8.5 - 10.5</td><td>mg/dL</td></tr><tr><td>Sodium [Moles/volume] in Blood</td><td>137.3</td><td>135 - 145</td><td>mmol/L</td></tr><tr><td>Potassium [Moles/volume] in Blood</td><td>4.8</td><td>3.5 - 5.1</td><td>mmol/L</td></tr><tr><td>Chloride [Moles/volume] in Blood</td><td>107.0</td><td>98 - 108</td><td>mmol/L</td></tr><tr><td>Carbon dioxide, total [Moles/volume] in Blood</td><td><strong>20.4 L</strong></td><td>22 - 29</td><td>mmol/L</td></tr></tbody></table></div>"
                },
                "title": "Chemistry"
              },
              {
                "code": {
                  "coding": [
                    {
                      "code": "$18729-4",
                      "system": "http://loinc.org",
                      "display": "Urinalysis studies (set)"
                    }
                  ],
                  "text": "Urinalysis"
                },
                "entry": [
                  {
                    "reference": "urn:uuid:04f76a14-b0a7-445f-84f2-be494cc72e25"
                  },
                  {
                    "reference": "urn:uuid:e521a125-c082-4787-8b91-eabf46279542"
                  },
                  {
                    "reference": "urn:uuid:48f1225e-5005-4e08-b3bd-04bdce33a9eb"
                  },
                  {
                    "reference": "urn:uuid:0dd7f1cf-1887-4bb8-87d6-35086a0122b0"
                  },
                  {
                    "reference": "urn:uuid:878f968b-5449-44a8-9cd7-88eb7dfab44e"
                  },
                  {
                    "reference": "urn:uuid:0f5c1a00-588f-428d-a5d5-9b4e4514845d"
                  },
                  {
                    "reference": "urn:uuid:6c77a703-a834-4c8d-8850-e8943779946f"
                  },
                  {
                    "reference": "urn:uuid:c4a19cb6-42be-415b-8de8-fc1524e4740a"
                  },
                  {
                    "reference": "urn:uuid:6537bf25-2ff6-4fc5-9e91-3c5ae0ba293b"
                  },
                  {
                    "reference": "urn:uuid:c8b9d169-7fcb-49e6-b7c7-b1bb3f474201"
                  },
                  {
                    "reference": "urn:uuid:e2a7b5eb-dd07-4a58-8f31-2ea857b331bb"
                  },
                  {
                    "reference": "urn:uuid:bb55abb9-121b-403b-bf7c-fee3474f21a7"
                  }
                ],
                "text": {
                  "status": "generated",
                  "div": "<div xmlns=\"http://www.w3.org/1999/xhtml\"><h3>Urinalysis</h3><table class=\"hl7__eu__lab__report\"><thead><tr><th>Test</th><th>23-DEC-2016</th><th>Reference&#xA0;Range</th><th>Unit</th></tr></thead><tbody><tr><td>Glucose [Mass/volume] in Urine by Test strip</td><td><strong>1.6 H</strong></td><td>0 - 0.8</td><td>mg/dL</td></tr><tr><td>Glucose [Presence] in Urine by Test strip</td><td>++</td><td></td><td></td></tr><tr><td>Bilirubin.total [Mass/volume] in Urine by Test strip</td><td>1.3</td><td>0 - 1.9</td><td>mg/dL</td></tr><tr><td>Bilirubin.total [Presence] in Urine by Test strip</td><td>Finding of bilirubin in urine</td><td></td><td></td></tr><tr><td>Ketones [Mass/volume] in Urine by Test strip</td><td><strong>15.6 H</strong></td><td>0 - 3</td><td>mg/dL</td></tr><tr><td>Specific gravity of Urine by Test strip</td><td><strong>1.0 L</strong></td><td>1.01 - 1.03</td><td>{nominal}</td></tr><tr><td>pH of Urine by Test strip</td><td>6.5</td><td>4.5 - 7.5</td><td>pH</td></tr><tr><td>Protein [Mass/volume] in Urine by Test strip</td><td><strong>165.5 H</strong></td><td>0 - 149</td><td>mg/dL</td></tr><tr><td>Protein [Presence] in Urine by Test strip</td><td>Urine protein test = ++</td><td></td><td></td></tr><tr><td>Nitrite [Presence] in Urine by Test strip</td><td>Urine nitrite negative</td><td></td><td></td></tr><tr><td>Hemoglobin [Presence] in Urine by Test strip</td><td>Urine blood test = negative</td><td></td><td></td></tr><tr><td>Leukocyte esterase [Presence] in Urine by Test strip</td><td>Urine leukocyte test negative</td><td></td><td></td></tr></tbody></table></div>"
                },
                "title": "Urinalysis"
              },
              {
                "code": {
                  "coding": [
                    {
                      "code": "$LP7846-1",
                      "system": "http://loinc.org",
                      "display": "Specimen information"
                    }
                  ],
                  "text": "Specimen information"
                },
                "entry": [
                  {
                    "reference": "urn:uuid:26fab232-2d27-475b-ad29-48cdff7bd48f"
                  },
                  {
                    "reference": "urn:uuid:a14bfc3c-e645-4cce-ba23-4ee0d5781c93"
                  },
                  {
                    "reference": "urn:uuid:9a776d88-97fc-478e-8076-33fb2c7caa2e"
                  },
                  {
                    "reference": "urn:uuid:61978923-2bc4-4701-a8e5-74384254bfa2"
                  }
                ],
                "text": {
                  "status": "generated",
                  "div": "<div xmlns=\"http://www.w3.org/1999/xhtml\"><h3>Specimen information</h3><table class=\"hl7__eu__lab__report\"><thead><tr><th>Test</th><th>23-DEC-2016</th><th>Specimen</th><th></th></tr></thead><tbody><tr><td>Appearance of Urine</td><td>Cloudy urine</td><td>Urine</td><td></td></tr><tr><td>Odor of Urine</td><td>Urine smell ammoniacal</td><td>Urine</td><td></td></tr><tr><td>Clarity of Urine</td><td>Translucent</td><td>Urine</td><td></td></tr><tr><td>Color of Urine</td><td>Brown color</td><td>Urine</td><td></td></tr></tbody></table></div>"
                },
                "title": "Specimen information"
              }
            ],
            "title": "Laboratory Report"
          },
          {
            "text": {
              "status": "generated",
              "div": "<div xmlns=\"http://www.w3.org/1999/xhtml\"><h3>Annotation</h3><table class=\"hl7__eu__lab__report\"><tr><th>Conclusion and Recommendations based on this report and previous findings known to us</th></tr><tr><td>The patient shows mild renal impairment (elevated creatinine), hypoglycemia, low HbA1c, metabolic acidosis (low CO₂), and abnormal urinalysis with proteinuria, glycosuria, ketonuria, low specific gravity, and abnormal urine appearance. Findings suggest possible diabetic ketoacidosis or another metabolic disturbance, with renal involvement. Clinical correlation and further evaluation are recommended.</td></tr></table></div>"
            },
            "code": {
              "coding": [
                {
                  "system": "http://loinc.org",
                  "code": "48767-8",
                  "display": "Annotation comment"
                }
              ]
            },
            "title": "Annotation comment"
          }
        ],
        "status": "final",
        "subject": {
          "reference": "urn:uuid:29f95552-b08b-47a4-b31f-955e796349a2",
          "display": "Victor Lagarde"
        },
        "date": "2016-12-23T05:48:18Z",
        "title": "Laboratory Report",
        "confidentiality": "N"
      }
    },
    {
      "fullUrl": "urn:uuid:85a14548-7174-436b-9a79-8574e4fe4caa",
      "resource": {
        "resourceType": "DiagnosticReport",
        "id": "85a14548-7174-436b-9a79-8574e4fe4caa",
        "meta": {
          "profile": [
            "http://hl7.eu/fhir/laboratory/StructureDefinition/DiagnosticReport-eu-lab"
          ]
        },
        "identifier": [
          {
            "assigner": {
              "display": "HL7 Europe"
            },
            "system": "urn:oid:2.16.840.1.113883.2.51.999",
            "value": "0e2d3109-2354-475c-9c16-0b8a78ba35ef"
          }
        ],
        "extension": [
          {
            "url": "http://hl7.org/fhir/5.0/StructureDefinition/extension-DiagnosticReport.composition",
            "valueReference": {
              "reference": "urn:uuid:e41d56dc-943a-41ec-b387-e92d104a2df4"
            }
          }
        ],
        "category": [
          {
            "coding": [
              {
                "code": "26436-6",
                "system": "http://loinc.org",
                "display": "Laboratory studies (set)"
              }
            ]
          }
        ],
        "specimen": [
          {
            "reference": "urn:uuid:9ec38a7b-7d15-4d8f-a81a-22e6245de2d1"
          },
          {
            "reference": "urn:uuid:0747f2b9-dea3-4287-8df9-0c1ae24afce1"
          },
          {
            "reference": "urn:uuid:f2e73774-4ff7-4ad9-9d98-c83dc53a8be6"
          }
        ],
        "result": [
          {
            "reference": "urn:uuid:0c4554eb-a6c7-4003-9a76-20f99d56a724"
          },
          {
            "reference": "urn:uuid:4c0a766b-e907-4c8f-9aad-7b24060aa01f"
          },
          {
            "reference": "urn:uuid:ed368689-e298-4d03-81fd-d274991ed625"
          },
          {
            "reference": "urn:uuid:159182dc-f3a8-4b78-aa8c-0ad0832d65fd"
          },
          {
            "reference": "urn:uuid:8062f973-890d-4bea-a73e-db93efd8125a"
          },
          {
            "reference": "urn:uuid:85ce9444-76b0-4fef-8171-7b8ea31c0dc2"
          },
          {
            "reference": "urn:uuid:944e4093-79b3-49dd-abc9-af7a210c021d"
          },
          {
            "reference": "urn:uuid:beb25f02-e438-4afd-a7d1-0eb974d1b813"
          },
          {
            "reference": "urn:uuid:26fab232-2d27-475b-ad29-48cdff7bd48f"
          },
          {
            "reference": "urn:uuid:a14bfc3c-e645-4cce-ba23-4ee0d5781c93"
          },
          {
            "reference": "urn:uuid:9a776d88-97fc-478e-8076-33fb2c7caa2e"
          },
          {
            "reference": "urn:uuid:61978923-2bc4-4701-a8e5-74384254bfa2"
          },
          {
            "reference": "urn:uuid:04f76a14-b0a7-445f-84f2-be494cc72e25"
          },
          {
            "reference": "urn:uuid:e521a125-c082-4787-8b91-eabf46279542"
          },
          {
            "reference": "urn:uuid:48f1225e-5005-4e08-b3bd-04bdce33a9eb"
          },
          {
            "reference": "urn:uuid:0dd7f1cf-1887-4bb8-87d6-35086a0122b0"
          },
          {
            "reference": "urn:uuid:878f968b-5449-44a8-9cd7-88eb7dfab44e"
          },
          {
            "reference": "urn:uuid:d7668399-d88b-4ddd-ada7-9af358fb00f4"
          },
          {
            "reference": "urn:uuid:0f5c1a00-588f-428d-a5d5-9b4e4514845d"
          },
          {
            "reference": "urn:uuid:6c77a703-a834-4c8d-8850-e8943779946f"
          },
          {
            "reference": "urn:uuid:c4a19cb6-42be-415b-8de8-fc1524e4740a"
          },
          {
            "reference": "urn:uuid:6537bf25-2ff6-4fc5-9e91-3c5ae0ba293b"
          },
          {
            "reference": "urn:uuid:c8b9d169-7fcb-49e6-b7c7-b1bb3f474201"
          },
          {
            "reference": "urn:uuid:e2a7b5eb-dd07-4a58-8f31-2ea857b331bb"
          },
          {
            "reference": "urn:uuid:bb55abb9-121b-403b-bf7c-fee3474f21a7"
          },
          {
            "reference": "urn:uuid:a8f6824d-6d6a-424c-86e0-36cf143480ed"
          },
          {
            "reference": "urn:uuid:9be59bdb-b9f7-4168-8cc1-c48f7fad3c08"
          },
          {
            "reference": "urn:uuid:54c53c76-f97c-4f74-88ae-9577c6f3551c"
          },
          {
            "reference": "urn:uuid:377097bd-cba2-4a3b-9117-6eb562452966"
          },
          {
            "reference": "urn:uuid:f450c4d8-3686-41c0-9bd2-e43294286676"
          },
          {
            "reference": "urn:uuid:a148a7b2-e827-46e9-9812-06d74af7a317"
          },
          {
            "reference": "urn:uuid:1320315e-1e47-489e-bc1e-ad67abd988ef"
          },
          {
            "reference": "urn:uuid:6e7de3ee-5cf5-48a5-9ef4-b930783b3da5"
          },
          {
            "reference": "urn:uuid:c9cbac01-a178-45e4-9fd4-6a3c1f8a915f"
          }
        ],
        "status": "registered",
        "code": {
          "coding": [
            {
              "code": "11502-2",
              "system": "http://loinc.org",
              "display": "Laboratory report"
            }
          ]
        },
        "subject": {
          "reference": "urn:uuid:29f95552-b08b-47a4-b31f-955e796349a2",
          "display": "Victor Lagarde"
        }
      }
    },
    {
      "fullUrl": "urn:uuid:29f95552-b08b-47a4-b31f-955e796349a2",
      "resource": {
        "resourceType": "Patient",
        "id": "29f95552-b08b-47a4-b31f-955e796349a2",
        "meta": {
          "security": [
            {
              "system": "http://terminology.hl7.org/CodeSystem/v3-ActReason",
              "code": "HTEST"
            },
            {
              "system": "http://terminology.hl7.org/CodeSystem/v3-ActReason",
              "code": "TRAIN"
            }
          ],
          "tag": [
            {
              "system": "https://synderai.net/fhir/CodeSystem/tags",
              "code": "synthetic",
              "display": "SYNDERAI Synthetic data"
            }
          ],
          "profile": [
            "http://hl7.eu/fhir/base/StructureDefinition/patient-eu-core"
          ]
        },
        "identifier": [
          {
            "type": {
              "coding": [
                {
                  "code": "PT",
                  "system": "http://terminology.hl7.org/CodeSystem/v2-0203"
                }
              ]
            },
            "system": "http://ec.europa.eu/identifier/eci",
            "value": "9925-001801-9"
          },
          {
            "type": {
              "coding": [
                {
                  "code": "MR",
                  "system": "http://terminology.hl7.org/CodeSystem/v2-0203"
                }
              ]
            },
            "system": "http://local.setting.eu/identifier",
            "value": "22c2dfd0-ac57-8833-2532-848f180896a4"
          }
        ],
        "name": [
          {
            "family": "Lagarde"
          },
          {
            "given": [
              "Victor"
            ]
          },
          {
            "text": "Victor Lagarde"
          }
        ],
        "address": [
          {
            "line": [
              "avenue Robert"
            ],
            "use": "home",
            "type": "physical",
            "postalCode": "80300",
            "city": "Albert",
            "country": "France"
          }
        ],
        "telecom": [
          {
            "system": "phone",
            "value": "0177941801"
          }
        ],
        "extension": [
          {
            "url": "http://hl7.org/fhir/StructureDefinition/patient-nationality",
            "valueCodeableConcept": {
              "coding": [
                {
                  "code": "FR",
                  "system": "http://hl7.org/fhir/ValueSet/country"
                }
              ]
            }
          }
        ],
        "text": {
          "status": "generated",
          "div": "<div xmlns=\"http://www.w3.org/1999/xhtml\"><table class=\"hl7__ips\"><tr><td>Victor Lagarde</td><td>male</td><td>31-Aug-1939</td></tr></table></div>"
        },
        "gender": "male",
        "birthDate": "1939-08-31"
      }
    },
    {
      "fullUrl": "urn:uuid:2d082e76-6812-4790-896c-e994e2221ba3",
      "resource": {
        "resourceType": "ServiceRequest",
        "id": "2d082e76-6812-4790-896c-e994e2221ba3",
        "meta": {
          "profile": [
            "http://hl7.eu/fhir/laboratory/StructureDefinition/ServiceRequest-eu-lab"
          ]
        },
        "identifier": [
          {
            "system": "http://example.org",
            "value": "a80a03f4-8b51-4e63-bfcb-ba0b6e72fb23"
          }
        ],
        "specimen": [
          {
            "reference": "urn:uuid:9ec38a7b-7d15-4d8f-a81a-22e6245de2d1"
          },
          {
            "reference": "urn:uuid:0747f2b9-dea3-4287-8df9-0c1ae24afce1"
          },
          {
            "reference": "urn:uuid:f2e73774-4ff7-4ad9-9d98-c83dc53a8be6"
          }
        ],
        "reasonCode": [
          {
            "coding": [
              {
                "code": "433144002",
                "system": "http://snomed.info/sct",
                "display": "Chronic kidney disease stage 3"
              }
            ]
          },
          {
            "coding": [
              {
                "code": "157141000119108",
                "system": "http://snomed.info/sct",
                "display": "Proteinuria due to type 2 diabetes mellitus"
              }
            ]
          },
          {
            "coding": [
              {
                "code": "431856006",
                "system": "http://snomed.info/sct",
                "display": "Chronic kidney disease stage 2"
              }
            ]
          },
          {
            "coding": [
              {
                "code": "90781000119102",
                "system": "http://snomed.info/sct",
                "display": "Microalbuminuria due to type 2 diabetes mellitus"
              }
            ]
          },
          {
            "coding": [
              {
                "code": "127013003",
                "system": "http://snomed.info/sct",
                "display": "Disorder of kidney due to diabetes mellitus"
              }
            ]
          },
          {
            "coding": [
              {
                "code": "431855005",
                "system": "http://snomed.info/sct",
                "display": "Chronic kidney disease stage 1"
              }
            ]
          },
          {
            "coding": [
              {
                "code": "55822004",
                "system": "http://snomed.info/sct",
                "display": "Hyperlipidemia"
              }
            ]
          },
          {
            "coding": [
              {
                "code": "59621000",
                "system": "http://snomed.info/sct",
                "display": "Essential hypertension"
              }
            ]
          },
          {
            "coding": [
              {
                "code": "237602007",
                "system": "http://snomed.info/sct",
                "display": "Metabolic syndrome X"
              }
            ]
          },
          {
            "coding": [
              {
                "code": "414545008",
                "system": "http://snomed.info/sct",
                "display": "Ischemic heart disease"
              }
            ]
          },
          {
            "coding": [
              {
                "code": "40055000",
                "system": "http://snomed.info/sct",
                "display": "Chronic sinusitis"
              }
            ]
          },
          {
            "coding": [
              {
                "code": "15777000",
                "system": "http://snomed.info/sct",
                "display": "Prediabetes"
              }
            ]
          },
          {
            "coding": [
              {
                "code": "271737000",
                "system": "http://snomed.info/sct",
                "display": "Anemia"
              }
            ]
          }
        ],
        "status": "active",
        "intent": "order",
        "code": {
          "coding": [
            {
              "code": "108252007",
              "system": "http://snomed.info/sct",
              "display": "Laboratory procedure"
            }
          ]
        },
        "subject": {
          "reference": "urn:uuid:29f95552-b08b-47a4-b31f-955e796349a2",
          "display": "Victor Lagarde"
        },
        "requester": {
          "reference": "urn:uuid:1b3c9e70-5c06-4485-93d5-5f742ec06be6"
        }
      }
    },
    {
      "fullUrl": "urn:uuid:1b3c9e70-5c06-4485-93d5-5f742ec06be6",
      "resource": {
        "resourceType": "PractitionerRole",
        "id": "1b3c9e70-5c06-4485-93d5-5f742ec06be6",
        "meta": {
          "profile": [
            "http://hl7.eu/fhir/base/StructureDefinition/practitionerRole-eu"
          ]
        },
        "text": {
          "status": "generated",
          "div": "<div xmlns=\"http://www.w3.org/1999/xhtml\">Provider Role Id: 1b3c9e70-5c06-4485-93d5-5f742ec06be6</div>"
        },
        "organization": {
          "reference": "urn:uuid:a1a2003d-7f08-4a35-b12d-398f78d96319"
        }
      }
    },
    {
      "fullUrl": "urn:uuid:a1a2003d-7f08-4a35-b12d-398f78d96319",
      "resource": {
        "resourceType": "Organization",
        "id": "a1a2003d-7f08-4a35-b12d-398f78d96319",
        "meta": {
          "profile": [
            "http://hl7.eu/fhir/base/StructureDefinition/organization-eu"
          ]
        },
        "identifier": [
          {
            "assigner": {
              "display": "HL7 Europe"
            },
            "system": "urn:oid:2.16.840.1.113883.2.51.999",
            "value": "c00920c4-6f46-4388-998d-d1e713bc2430"
          }
        ],
        "address": [
          {
            "city": "Auxerre",
            "postalCode": "89000",
            "country": "France"
          }
        ],
        "text": {
          "status": "generated",
          "div": "<div xmlns=\"http://www.w3.org/1999/xhtml\">Provider Organization: Thiriot Didier (Cardiologie)</div>"
        },
        "name": "Thiriot Didier (Cardiologie)"
      }
    },
    {
      "fullUrl": "urn:uuid:9ec38a7b-7d15-4d8f-a81a-22e6245de2d1",
      "resource": {
        "resourceType": "Specimen",
        "id": "9ec38a7b-7d15-4d8f-a81a-22e6245de2d1",
        "meta": {
          "profile": [
            "http://hl7.eu/fhir/laboratory/StructureDefinition/Specimen-eu-lab"
          ]
        },
        "collection": {
          "collectedDateTime": "2016-12-23"
        },
        "text": {
          "status": "generated",
          "div": "<div xmlns=\"http://www.w3.org/1999/xhtml\"><table class=\"hl7__eu__lab__report\"><tr><th>Specimen</th><th>Collection Date</th></tr><tr><td>Acellular blood (serum or plasma) specimen</td><td><span class=\"nb\">23-Dec-2016</span></td></tr></table></div>"
        },
        "type": {
          "coding": [
            {
              "code": "122592007",
              "system": "http://snomed.info/sct",
              "display": "Acellular blood (serum or plasma) specimen"
            }
          ]
        }
      }
    },
    {
      "fullUrl": "urn:uuid:0747f2b9-dea3-4287-8df9-0c1ae24afce1",
      "resource": {
        "resourceType": "Specimen",
        "id": "0747f2b9-dea3-4287-8df9-0c1ae24afce1",
        "meta": {
          "profile": [
            "http://hl7.eu/fhir/laboratory/StructureDefinition/Specimen-eu-lab"
          ]
        },
        "collection": {
          "collectedDateTime": "2016-12-23"
        },
        "text": {
          "status": "generated",
          "div": "<div xmlns=\"http://www.w3.org/1999/xhtml\"><table class=\"hl7__eu__lab__report\"><tr><th>Specimen</th><th>Collection Date</th></tr><tr><td>Urine specimen</td><td><span class=\"nb\">23-Dec-2016</span></td></tr></table></div>"
        },
        "type": {
          "coding": [
            {
              "code": "122575003",
              "system": "http://snomed.info/sct",
              "display": "Urine specimen"
            }
          ]
        }
      }
    },
    {
      "fullUrl": "urn:uuid:f2e73774-4ff7-4ad9-9d98-c83dc53a8be6",
      "resource": {
        "resourceType": "Specimen",
        "id": "f2e73774-4ff7-4ad9-9d98-c83dc53a8be6",
        "meta": {
          "profile": [
            "http://hl7.eu/fhir/laboratory/StructureDefinition/Specimen-eu-lab"
          ]
        },
        "collection": {
          "collectedDateTime": "2016-12-23"
        },
        "text": {
          "status": "generated",
          "div": "<div xmlns=\"http://www.w3.org/1999/xhtml\"><table class=\"hl7__eu__lab__report\"><tr><th>Specimen</th><th>Collection Date</th></tr><tr><td>Whole blood specimen (specimen)</td><td><span class=\"nb\">23-Dec-2016</span></td></tr></table></div>"
        },
        "type": {
          "coding": [
            {
              "code": "258580003",
              "system": "http://snomed.info/sct",
              "display": "Whole blood specimen (specimen)"
            }
          ]
        }
      }
    },
    {
      "fullUrl": "urn:uuid:0c4554eb-a6c7-4003-9a76-20f99d56a724",
      "resource": {
        "resourceType": "Observation",
        "id": "0c4554eb-a6c7-4003-9a76-20f99d56a724",
        "meta": {
          "profile": [
            "http://hl7.eu/fhir/laboratory/StructureDefinition/Observation-resultslab-eu-lab"
          ]
        },
        "performer": [
          {
            "display": "The Central European Lab"
          }
        ],
        "category": [
          {
            "coding": [
              {
                "system": "http://terminology.hl7.org/CodeSystem/observation-category",
                "code": "laboratory"
              }
            ]
          }
        ],
        "code": {
          "coding": [
            {
              "code": "2345-7",
              "system": "http://loinc.org",
              "display": "Glucose [Mass/volume] in Serum or Plasma"
            }
          ],
          "text": "Glucose [Mass/volume] in Serum or Plasma"
        },
        "valueQuantity": {
          "system": "http://unitsofmeasure.org",
          "value": 68.3,
          "unit": "mg/dL",
          "code": "mg/dL"
        },
        "referenceRange": [
          {
            "low": {
              "value": 70,
              "code": "mg/dL",
              "system": "http://unitsofmeasure.org"
            }
          },
          {
            "high": {
              "value": 140,
              "code": "mg/dL",
              "system": "http://unitsofmeasure.org"
            }
          }
        ],
        "interpretation": [
          {
            "coding": [
              {
                "code": "L",
                "system": "http://terminology.hl7.org/CodeSystem/v3-ObservationInterpretation",
                "display": "Low"
              }
            ]
          }
        ],
        "text": {
          "status": "generated",
          "div": "<div xmlns=\"http://www.w3.org/1999/xhtml\"><table class=\"hl7__eu__lab__report\"><tr><th>Test</th><th>23-Dec-2016</th><th>Reference&#xA0;Range</th><th>Unit</th></tr><tr><td>Glucose [Mass/volume] in Serum or Plasma</td><td>68.3</td><td>70 - 140</td><td>L</td><td>mg/dL</td></tr></table></div>"
        },
        "status": "final",
        "subject": {
          "reference": "urn:uuid:29f95552-b08b-47a4-b31f-955e796349a2",
          "display": "Victor Lagarde"
        },
        "effectiveDateTime": "2016-12-23T04:48:18Z",
        "specimen": {
          "reference": "urn:uuid:9ec38a7b-7d15-4d8f-a81a-22e6245de2d1"
        }
      }
    },
    {
      "fullUrl": "urn:uuid:4c0a766b-e907-4c8f-9aad-7b24060aa01f",
      "resource": {
        "resourceType": "Observation",
        "id": "4c0a766b-e907-4c8f-9aad-7b24060aa01f",
        "meta": {
          "profile": [
            "http://hl7.eu/fhir/laboratory/StructureDefinition/Observation-resultslab-eu-lab"
          ]
        },
        "performer": [
          {
            "display": "The Central European Lab"
          }
        ],
        "category": [
          {
            "coding": [
              {
                "system": "http://terminology.hl7.org/CodeSystem/observation-category",
                "code": "laboratory"
              }
            ]
          }
        ],
        "code": {
          "coding": [
            {
              "code": "3094-0",
              "system": "http://loinc.org",
              "display": "Urea nitrogen [Mass/volume] in Serum or Plasma"
            }
          ],
          "text": "Urea nitrogen [Mass/volume] in Serum or Plasma"
        },
        "valueQuantity": {
          "system": "http://unitsofmeasure.org",
          "value": 7.1,
          "unit": "mg/dL",
          "code": "mg/dL"
        },
        "referenceRange": [
          {
            "low": {
              "value": 7,
              "code": "mg/dL",
              "system": "http://unitsofmeasure.org"
            }
          },
          {
            "high": {
              "value": 20,
              "code": "mg/dL",
              "system": "http://unitsofmeasure.org"
            }
          }
        ],
        "text": {
          "status": "generated",
          "div": "<div xmlns=\"http://www.w3.org/1999/xhtml\"><table class=\"hl7__eu__lab__report\"><tr><th>Test</th><th>23-Dec-2016</th><th>Reference&#xA0;Range</th><th>Unit</th></tr><tr><td>Urea nitrogen [Mass/volume] in Serum or Plasma</td><td>7.1</td><td>7 - 20</td><td></td><td>mg/dL</td></tr></table></div>"
        },
        "status": "final",
        "subject": {
          "reference": "urn:uuid:29f95552-b08b-47a4-b31f-955e796349a2",
          "display": "Victor Lagarde"
        },
        "effectiveDateTime": "2016-12-23T04:48:18Z",
        "specimen": {
          "reference": "urn:uuid:9ec38a7b-7d15-4d8f-a81a-22e6245de2d1"
        }
      }
    },
    {
      "fullUrl": "urn:uuid:ed368689-e298-4d03-81fd-d274991ed625",
      "resource": {
        "resourceType": "Observation",
        "id": "ed368689-e298-4d03-81fd-d274991ed625",
        "meta": {
          "profile": [
            "http://hl7.eu/fhir/laboratory/StructureDefinition/Observation-resultslab-eu-lab"
          ]
        },
        "performer": [
          {
            "display": "The Central European Lab"
          }
        ],
        "category": [
          {
            "coding": [
              {
                "system": "http://terminology.hl7.org/CodeSystem/observation-category",
                "code": "laboratory"
              }
            ]
          }
        ],
        "code": {
          "coding": [
            {
              "code": "2160-0",
              "system": "http://loinc.org",
              "display": "Creatinine [Mass/volume] in Serum or Plasma"
            }
          ],
          "text": "Creatinine [Mass/volume] in Serum or Plasma"
        },
        "valueQuantity": {
          "system": "http://unitsofmeasure.org",
          "value": 1.8,
          "unit": "mg/dL",
          "code": "mg/dL"
        },
        "referenceRange": [
          {
            "low": {
              "value": 0.9,
              "code": "mg/dL",
              "system": "http://unitsofmeasure.org"
            }
          },
          {
            "high": {
              "value": 1.3,
              "code": "mg/dL",
              "system": "http://unitsofmeasure.org"
            }
          }
        ],
        "interpretation": [
          {
            "coding": [
              {
                "code": "H",
                "system": "http://terminology.hl7.org/CodeSystem/v3-ObservationInterpretation",
                "display": "High"
              }
            ]
          }
        ],
        "text": {
          "status": "generated",
          "div": "<div xmlns=\"http://www.w3.org/1999/xhtml\"><table class=\"hl7__eu__lab__report\"><tr><th>Test</th><th>23-Dec-2016</th><th>Reference&#xA0;Range</th><th>Unit</th></tr><tr><td>Creatinine [Mass/volume] in Serum or Plasma</td><td>1.8</td><td>0.9 - 1.3</td><td>H</td><td>mg/dL</td></tr></table></div>"
        },
        "status": "final",
        "subject": {
          "reference": "urn:uuid:29f95552-b08b-47a4-b31f-955e796349a2",
          "display": "Victor Lagarde"
        },
        "effectiveDateTime": "2016-12-23T04:48:18Z",
        "specimen": {
          "reference": "urn:uuid:9ec38a7b-7d15-4d8f-a81a-22e6245de2d1"
        }
      }
    },
    {
      "fullUrl": "urn:uuid:159182dc-f3a8-4b78-aa8c-0ad0832d65fd",
      "resource": {
        "resourceType": "Observation",
        "id": "159182dc-f3a8-4b78-aa8c-0ad0832d65fd",
        "meta": {
          "profile": [
            "http://hl7.eu/fhir/laboratory/StructureDefinition/Observation-resultslab-eu-lab"
          ]
        },
        "performer": [
          {
            "display": "The Central European Lab"
          }
        ],
        "category": [
          {
            "coding": [
              {
                "system": "http://terminology.hl7.org/CodeSystem/observation-category",
                "code": "laboratory"
              }
            ]
          }
        ],
        "code": {
          "coding": [
            {
              "code": "17861-6",
              "system": "http://loinc.org",
              "display": "Calcium [Mass/volume] in Serum or Plasma"
            }
          ],
          "text": "Calcium [Mass/volume] in Serum or Plasma"
        },
        "valueQuantity": {
          "system": "http://unitsofmeasure.org",
          "value": 9.6,
          "unit": "mg/dL",
          "code": "mg/dL"
        },
        "referenceRange": [
          {
            "low": {
              "value": 8.5,
              "code": "mg/dL",
              "system": "http://unitsofmeasure.org"
            }
          },
          {
            "high": {
              "value": 10.5,
              "code": "mg/dL",
              "system": "http://unitsofmeasure.org"
            }
          }
        ],
        "text": {
          "status": "generated",
          "div": "<div xmlns=\"http://www.w3.org/1999/xhtml\"><table class=\"hl7__eu__lab__report\"><tr><th>Test</th><th>23-Dec-2016</th><th>Reference&#xA0;Range</th><th>Unit</th></tr><tr><td>Calcium [Mass/volume] in Serum or Plasma</td><td>9.6</td><td>8.5 - 10.5</td><td></td><td>mg/dL</td></tr></table></div>"
        },
        "status": "final",
        "subject": {
          "reference": "urn:uuid:29f95552-b08b-47a4-b31f-955e796349a2",
          "display": "Victor Lagarde"
        },
        "effectiveDateTime": "2016-12-23T04:48:18Z",
        "specimen": {
          "reference": "urn:uuid:9ec38a7b-7d15-4d8f-a81a-22e6245de2d1"
        }
      }
    },
    {
      "fullUrl": "urn:uuid:8062f973-890d-4bea-a73e-db93efd8125a",
      "resource": {
        "resourceType": "Observation",
        "id": "8062f973-890d-4bea-a73e-db93efd8125a",
        "meta": {
          "profile": [
            "http://hl7.eu/fhir/laboratory/StructureDefinition/Observation-resultslab-eu-lab"
          ]
        },
        "performer": [
          {
            "display": "The Central European Lab"
          }
        ],
        "category": [
          {
            "coding": [
              {
                "system": "http://terminology.hl7.org/CodeSystem/observation-category",
                "code": "laboratory"
              }
            ]
          }
        ],
        "code": {
          "coding": [
            {
              "code": "2951-2",
              "system": "http://loinc.org",
              "display": "Sodium [Moles/volume] in Serum or Plasma"
            }
          ],
          "text": "Sodium [Moles/volume] in Serum or Plasma"
        },
        "valueQuantity": {
          "system": "http://unitsofmeasure.org",
          "value": 137.3,
          "unit": "mmol/L",
          "code": "mmol/L"
        },
        "referenceRange": [
          {
            "low": {
              "value": 135,
              "code": "mmol/L",
              "system": "http://unitsofmeasure.org"
            }
          },
          {
            "high": {
              "value": 145,
              "code": "mmol/L",
              "system": "http://unitsofmeasure.org"
            }
          }
        ],
        "text": {
          "status": "generated",
          "div": "<div xmlns=\"http://www.w3.org/1999/xhtml\"><table class=\"hl7__eu__lab__report\"><tr><th>Test</th><th>23-Dec-2016</th><th>Reference&#xA0;Range</th><th>Unit</th></tr><tr><td>Sodium [Moles/volume] in Serum or Plasma</td><td>137.3</td><td>135 - 145</td><td></td><td>mmol/L</td></tr></table></div>"
        },
        "status": "final",
        "subject": {
          "reference": "urn:uuid:29f95552-b08b-47a4-b31f-955e796349a2",
          "display": "Victor Lagarde"
        },
        "effectiveDateTime": "2016-12-23T04:48:18Z",
        "specimen": {
          "reference": "urn:uuid:9ec38a7b-7d15-4d8f-a81a-22e6245de2d1"
        }
      }
    },
    {
      "fullUrl": "urn:uuid:85ce9444-76b0-4fef-8171-7b8ea31c0dc2",
      "resource": {
        "resourceType": "Observation",
        "id": "85ce9444-76b0-4fef-8171-7b8ea31c0dc2",
        "meta": {
          "profile": [
            "http://hl7.eu/fhir/laboratory/StructureDefinition/Observation-resultslab-eu-lab"
          ]
        },
        "performer": [
          {
            "display": "The Central European Lab"
          }
        ],
        "category": [
          {
            "coding": [
              {
                "system": "http://terminology.hl7.org/CodeSystem/observation-category",
                "code": "laboratory"
              }
            ]
          }
        ],
        "code": {
          "coding": [
            {
              "code": "2823-3",
              "system": "http://loinc.org",
              "display": "Potassium [Moles/volume] in Serum or Plasma"
            }
          ],
          "text": "Potassium [Moles/volume] in Serum or Plasma"
        },
        "valueQuantity": {
          "system": "http://unitsofmeasure.org",
          "value": 4.8,
          "unit": "mmol/L",
          "code": "mmol/L"
        },
        "referenceRange": [
          {
            "low": {
              "value": 3.5,
              "code": "mmol/L",
              "system": "http://unitsofmeasure.org"
            }
          },
          {
            "high": {
              "value": 5.3,
              "code": "mmol/L",
              "system": "http://unitsofmeasure.org"
            }
          }
        ],
        "text": {
          "status": "generated",
          "div": "<div xmlns=\"http://www.w3.org/1999/xhtml\"><table class=\"hl7__eu__lab__report\"><tr><th>Test</th><th>23-Dec-2016</th><th>Reference&#xA0;Range</th><th>Unit</th></tr><tr><td>Potassium [Moles/volume] in Serum or Plasma</td><td>4.8</td><td>3.5 - 5.3</td><td></td><td>mmol/L</td></tr></table></div>"
        },
        "status": "final",
        "subject": {
          "reference": "urn:uuid:29f95552-b08b-47a4-b31f-955e796349a2",
          "display": "Victor Lagarde"
        },
        "effectiveDateTime": "2016-12-23T04:48:18Z",
        "specimen": {
          "reference": "urn:uuid:9ec38a7b-7d15-4d8f-a81a-22e6245de2d1"
        }
      }
    },
    {
      "fullUrl": "urn:uuid:944e4093-79b3-49dd-abc9-af7a210c021d",
      "resource": {
        "resourceType": "Observation",
        "id": "944e4093-79b3-49dd-abc9-af7a210c021d",
        "meta": {
          "profile": [
            "http://hl7.eu/fhir/laboratory/StructureDefinition/Observation-resultslab-eu-lab"
          ]
        },
        "performer": [
          {
            "display": "The Central European Lab"
          }
        ],
        "category": [
          {
            "coding": [
              {
                "system": "http://terminology.hl7.org/CodeSystem/observation-category",
                "code": "laboratory"
              }
            ]
          }
        ],
        "code": {
          "coding": [
            {
              "code": "2075-0",
              "system": "http://loinc.org",
              "display": "Chloride [Moles/volume] in Serum or Plasma"
            }
          ],
          "text": "Chloride [Moles/volume] in Serum or Plasma"
        },
        "valueQuantity": {
          "system": "http://unitsofmeasure.org",
          "value": 107,
          "unit": "mmol/L",
          "code": "mmol/L"
        },
        "referenceRange": [
          {
            "low": {
              "value": 98,
              "code": "mmol/L",
              "system": "http://unitsofmeasure.org"
            }
          },
          {
            "high": {
              "value": 107,
              "code": "mmol/L",
              "system": "http://unitsofmeasure.org"
            }
          }
        ],
        "text": {
          "status": "generated",
          "div": "<div xmlns=\"http://www.w3.org/1999/xhtml\"><table class=\"hl7__eu__lab__report\"><tr><th>Test</th><th>23-Dec-2016</th><th>Reference&#xA0;Range</th><th>Unit</th></tr><tr><td>Chloride [Moles/volume] in Serum or Plasma</td><td>107.0</td><td>98 - 107</td><td></td><td>mmol/L</td></tr></table></div>"
        },
        "status": "final",
        "subject": {
          "reference": "urn:uuid:29f95552-b08b-47a4-b31f-955e796349a2",
          "display": "Victor Lagarde"
        },
        "effectiveDateTime": "2016-12-23T04:48:18Z",
        "specimen": {
          "reference": "urn:uuid:9ec38a7b-7d15-4d8f-a81a-22e6245de2d1"
        }
      }
    },
    {
      "fullUrl": "urn:uuid:beb25f02-e438-4afd-a7d1-0eb974d1b813",
      "resource": {
        "resourceType": "Observation",
        "id": "beb25f02-e438-4afd-a7d1-0eb974d1b813",
        "meta": {
          "profile": [
            "http://hl7.eu/fhir/laboratory/StructureDefinition/Observation-resultslab-eu-lab"
          ]
        },
        "performer": [
          {
            "display": "The Central European Lab"
          }
        ],
        "category": [
          {
            "coding": [
              {
                "system": "http://terminology.hl7.org/CodeSystem/observation-category",
                "code": "laboratory"
              }
            ]
          }
        ],
        "code": {
          "coding": [
            {
              "code": "2028-9",
              "system": "http://loinc.org",
              "display": "Carbon dioxide, total [Moles/volume] in Serum or Plasma"
            }
          ],
          "text": "Carbon dioxide, total [Moles/volume] in Serum or Plasma"
        },
        "valueQuantity": {
          "system": "http://unitsofmeasure.org",
          "value": 20.4,
          "unit": "mmol/L",
          "code": "mmol/L"
        },
        "referenceRange": [
          {
            "low": {
              "value": 22,
              "code": "mmol/L",
              "system": "http://unitsofmeasure.org"
            }
          },
          {
            "high": {
              "value": 33,
              "code": "mmol/L",
              "system": "http://unitsofmeasure.org"
            }
          }
        ],
        "interpretation": [
          {
            "coding": [
              {
                "code": "L",
                "system": "http://terminology.hl7.org/CodeSystem/v3-ObservationInterpretation",
                "display": "Low"
              }
            ]
          }
        ],
        "text": {
          "status": "generated",
          "div": "<div xmlns=\"http://www.w3.org/1999/xhtml\"><table class=\"hl7__eu__lab__report\"><tr><th>Test</th><th>23-Dec-2016</th><th>Reference&#xA0;Range</th><th>Unit</th></tr><tr><td>Carbon dioxide, total [Moles/volume] in Serum or Plasma</td><td>20.4</td><td>22 - 33</td><td>L</td><td>mmol/L</td></tr></table></div>"
        },
        "status": "final",
        "subject": {
          "reference": "urn:uuid:29f95552-b08b-47a4-b31f-955e796349a2",
          "display": "Victor Lagarde"
        },
        "effectiveDateTime": "2016-12-23T04:48:18Z",
        "specimen": {
          "reference": "urn:uuid:9ec38a7b-7d15-4d8f-a81a-22e6245de2d1"
        }
      }
    },
    {
      "fullUrl": "urn:uuid:26fab232-2d27-475b-ad29-48cdff7bd48f",
      "resource": {
        "resourceType": "Observation",
        "id": "26fab232-2d27-475b-ad29-48cdff7bd48f",
        "meta": {
          "profile": [
            "http://hl7.eu/fhir/laboratory/StructureDefinition/Observation-resultslab-eu-lab"
          ]
        },
        "performer": [
          {
            "display": "The Central European Lab"
          }
        ],
        "category": [
          {
            "coding": [
              {
                "system": "http://terminology.hl7.org/CodeSystem/observation-category",
                "code": "laboratory"
              }
            ]
          }
        ],
        "code": {
          "coding": [
            {
              "code": "5767-9",
              "system": "http://loinc.org",
              "display": "Appearance of Urine"
            }
          ],
          "text": "Appearance of Urine"
        },
        "text": {
          "status": "generated",
          "div": "<div xmlns=\"http://www.w3.org/1999/xhtml\"><table class=\"hl7__eu__lab__report\"><tr><th>Test</th><th>23-Dec-2016</th><th>Reference&#xA0;Range</th><th>Unit</th></tr><tr><td>Appearance of Urine</td></tr></table></div>"
        },
        "status": "final",
        "subject": {
          "reference": "urn:uuid:29f95552-b08b-47a4-b31f-955e796349a2",
          "display": "Victor Lagarde"
        },
        "effectiveDateTime": "2016-12-23T04:48:18Z",
        "specimen": {
          "reference": "urn:uuid:0747f2b9-dea3-4287-8df9-0c1ae24afce1"
        }
      }
    },
    {
      "fullUrl": "urn:uuid:a14bfc3c-e645-4cce-ba23-4ee0d5781c93",
      "resource": {
        "resourceType": "Observation",
        "id": "a14bfc3c-e645-4cce-ba23-4ee0d5781c93",
        "meta": {
          "profile": [
            "http://hl7.eu/fhir/laboratory/StructureDefinition/Observation-resultslab-eu-lab"
          ]
        },
        "performer": [
          {
            "display": "The Central European Lab"
          }
        ],
        "category": [
          {
            "coding": [
              {
                "system": "http://terminology.hl7.org/CodeSystem/observation-category",
                "code": "laboratory"
              }
            ]
          }
        ],
        "code": {
          "coding": [
            {
              "code": "34533-0",
              "system": "http://loinc.org",
              "display": "Odor of Urine"
            }
          ],
          "text": "Odor of Urine"
        },
        "text": {
          "status": "generated",
          "div": "<div xmlns=\"http://www.w3.org/1999/xhtml\"><table class=\"hl7__eu__lab__report\"><tr><th>Test</th><th>23-Dec-2016</th><th>Reference&#xA0;Range</th><th>Unit</th></tr><tr><td>Odor of Urine</td></tr></table></div>"
        },
        "status": "final",
        "subject": {
          "reference": "urn:uuid:29f95552-b08b-47a4-b31f-955e796349a2",
          "display": "Victor Lagarde"
        },
        "effectiveDateTime": "2016-12-23T04:48:18Z",
        "specimen": {
          "reference": "urn:uuid:0747f2b9-dea3-4287-8df9-0c1ae24afce1"
        }
      }
    },
    {
      "fullUrl": "urn:uuid:9a776d88-97fc-478e-8076-33fb2c7caa2e",
      "resource": {
        "resourceType": "Observation",
        "id": "9a776d88-97fc-478e-8076-33fb2c7caa2e",
        "meta": {
          "profile": [
            "http://hl7.eu/fhir/laboratory/StructureDefinition/Observation-resultslab-eu-lab"
          ]
        },
        "performer": [
          {
            "display": "The Central European Lab"
          }
        ],
        "category": [
          {
            "coding": [
              {
                "system": "http://terminology.hl7.org/CodeSystem/observation-category",
                "code": "laboratory"
              }
            ]
          }
        ],
        "code": {
          "coding": [
            {
              "code": "32167-9",
              "system": "http://loinc.org",
              "display": "Clarity of Urine"
            }
          ],
          "text": "Clarity of Urine"
        },
        "text": {
          "status": "generated",
          "div": "<div xmlns=\"http://www.w3.org/1999/xhtml\"><table class=\"hl7__eu__lab__report\"><tr><th>Test</th><th>23-Dec-2016</th><th>Reference&#xA0;Range</th><th>Unit</th></tr><tr><td>Clarity of Urine</td></tr></table></div>"
        },
        "status": "final",
        "subject": {
          "reference": "urn:uuid:29f95552-b08b-47a4-b31f-955e796349a2",
          "display": "Victor Lagarde"
        },
        "effectiveDateTime": "2016-12-23T04:48:18Z",
        "specimen": {
          "reference": "urn:uuid:0747f2b9-dea3-4287-8df9-0c1ae24afce1"
        }
      }
    },
    {
      "fullUrl": "urn:uuid:61978923-2bc4-4701-a8e5-74384254bfa2",
      "resource": {
        "resourceType": "Observation",
        "id": "61978923-2bc4-4701-a8e5-74384254bfa2",
        "meta": {
          "profile": [
            "http://hl7.eu/fhir/laboratory/StructureDefinition/Observation-resultslab-eu-lab"
          ]
        },
        "performer": [
          {
            "display": "The Central European Lab"
          }
        ],
        "category": [
          {
            "coding": [
              {
                "system": "http://terminology.hl7.org/CodeSystem/observation-category",
                "code": "laboratory"
              }
            ]
          }
        ],
        "code": {
          "coding": [
            {
              "code": "5778-6",
              "system": "http://loinc.org",
              "display": "Color of Urine"
            }
          ],
          "text": "Color of Urine"
        },
        "text": {
          "status": "generated",
          "div": "<div xmlns=\"http://www.w3.org/1999/xhtml\"><table class=\"hl7__eu__lab__report\"><tr><th>Test</th><th>23-Dec-2016</th><th>Reference&#xA0;Range</th><th>Unit</th></tr><tr><td>Color of Urine</td></tr></table></div>"
        },
        "status": "final",
        "subject": {
          "reference": "urn:uuid:29f95552-b08b-47a4-b31f-955e796349a2",
          "display": "Victor Lagarde"
        },
        "effectiveDateTime": "2016-12-23T04:48:18Z",
        "specimen": {
          "reference": "urn:uuid:0747f2b9-dea3-4287-8df9-0c1ae24afce1"
        }
      }
    },
    {
      "fullUrl": "urn:uuid:04f76a14-b0a7-445f-84f2-be494cc72e25",
      "resource": {
        "resourceType": "Observation",
        "id": "04f76a14-b0a7-445f-84f2-be494cc72e25",
        "meta": {
          "profile": [
            "http://hl7.eu/fhir/laboratory/StructureDefinition/Observation-resultslab-eu-lab"
          ]
        },
        "performer": [
          {
            "display": "The Central European Lab"
          }
        ],
        "category": [
          {
            "coding": [
              {
                "system": "http://terminology.hl7.org/CodeSystem/observation-category",
                "code": "laboratory"
              }
            ]
          }
        ],
        "code": {
          "coding": [
            {
              "code": "5792-7",
              "system": "http://loinc.org",
              "display": "Glucose [Mass/volume] in Urine by Test strip"
            }
          ],
          "text": "Glucose [Mass/volume] in Urine by Test strip"
        },
        "valueQuantity": {
          "system": "http://unitsofmeasure.org",
          "value": 1.6,
          "unit": "mg/dL",
          "code": "mg/dL"
        },
        "referenceRange": [
          {
            "low": {
              "value": 0,
              "code": "mg/dL",
              "system": "http://unitsofmeasure.org"
            }
          },
          {
            "high": {
              "value": 0.8,
              "code": "mg/dL",
              "system": "http://unitsofmeasure.org"
            }
          }
        ],
        "interpretation": [
          {
            "coding": [
              {
                "code": "H",
                "system": "http://terminology.hl7.org/CodeSystem/v3-ObservationInterpretation",
                "display": "High"
              }
            ]
          }
        ],
        "text": {
          "status": "generated",
          "div": "<div xmlns=\"http://www.w3.org/1999/xhtml\"><table class=\"hl7__eu__lab__report\"><tr><th>Test</th><th>23-Dec-2016</th><th>Reference&#xA0;Range</th><th>Unit</th></tr><tr><td>Glucose [Mass/volume] in Urine by Test strip</td><td>1.6</td><td>0 - 0.8</td><td>H</td><td>mg/dL</td></tr></table></div>"
        },
        "status": "final",
        "subject": {
          "reference": "urn:uuid:29f95552-b08b-47a4-b31f-955e796349a2",
          "display": "Victor Lagarde"
        },
        "effectiveDateTime": "2016-12-23T04:48:18Z",
        "specimen": {
          "reference": "urn:uuid:0747f2b9-dea3-4287-8df9-0c1ae24afce1"
        }
      }
    },
    {
      "fullUrl": "urn:uuid:e521a125-c082-4787-8b91-eabf46279542",
      "resource": {
        "resourceType": "Observation",
        "id": "e521a125-c082-4787-8b91-eabf46279542",
        "meta": {
          "profile": [
            "http://hl7.eu/fhir/laboratory/StructureDefinition/Observation-resultslab-eu-lab"
          ]
        },
        "performer": [
          {
            "display": "The Central European Lab"
          }
        ],
        "category": [
          {
            "coding": [
              {
                "system": "http://terminology.hl7.org/CodeSystem/observation-category",
                "code": "laboratory"
              }
            ]
          }
        ],
        "code": {
          "coding": [
            {
              "code": "25428-4",
              "system": "http://loinc.org",
              "display": "Glucose [Presence] in Urine by Test strip"
            }
          ],
          "text": "Glucose [Presence] in Urine by Test strip"
        },
        "text": {
          "status": "generated",
          "div": "<div xmlns=\"http://www.w3.org/1999/xhtml\"><table class=\"hl7__eu__lab__report\"><tr><th>Test</th><th>23-Dec-2016</th><th>Reference&#xA0;Range</th><th>Unit</th></tr><tr><td>Glucose [Presence] in Urine by Test strip</td></tr></table></div>"
        },
        "status": "final",
        "subject": {
          "reference": "urn:uuid:29f95552-b08b-47a4-b31f-955e796349a2",
          "display": "Victor Lagarde"
        },
        "effectiveDateTime": "2016-12-23T04:48:18Z",
        "specimen": {
          "reference": "urn:uuid:0747f2b9-dea3-4287-8df9-0c1ae24afce1"
        }
      }
    },
    {
      "fullUrl": "urn:uuid:48f1225e-5005-4e08-b3bd-04bdce33a9eb",
      "resource": {
        "resourceType": "Observation",
        "id": "48f1225e-5005-4e08-b3bd-04bdce33a9eb",
        "meta": {
          "profile": [
            "http://hl7.eu/fhir/laboratory/StructureDefinition/Observation-resultslab-eu-lab"
          ]
        },
        "performer": [
          {
            "display": "The Central European Lab"
          }
        ],
        "category": [
          {
            "coding": [
              {
                "system": "http://terminology.hl7.org/CodeSystem/observation-category",
                "code": "laboratory"
              }
            ]
          }
        ],
        "code": {
          "coding": [
            {
              "code": "20505-4",
              "system": "http://loinc.org",
              "display": "Bilirubin.total [Mass/volume] in Urine by Test strip"
            }
          ],
          "text": "Bilirubin.total [Mass/volume] in Urine by Test strip"
        },
        "valueQuantity": {
          "system": "http://unitsofmeasure.org",
          "value": 1.3,
          "unit": "mg/dL",
          "code": "mg/dL"
        },
        "referenceRange": [
          {
            "low": {
              "value": 0,
              "code": "mg/dL",
              "system": "http://unitsofmeasure.org"
            }
          },
          {
            "high": {
              "value": 1.9,
              "code": "mg/dL",
              "system": "http://unitsofmeasure.org"
            }
          }
        ],
        "text": {
          "status": "generated",
          "div": "<div xmlns=\"http://www.w3.org/1999/xhtml\"><table class=\"hl7__eu__lab__report\"><tr><th>Test</th><th>23-Dec-2016</th><th>Reference&#xA0;Range</th><th>Unit</th></tr><tr><td>Bilirubin.total [Mass/volume] in Urine by Test strip</td><td>1.3</td><td>0 - 1.9</td><td></td><td>mg/dL</td></tr></table></div>"
        },
        "status": "final",
        "subject": {
          "reference": "urn:uuid:29f95552-b08b-47a4-b31f-955e796349a2",
          "display": "Victor Lagarde"
        },
        "effectiveDateTime": "2016-12-23T04:48:18Z",
        "specimen": {
          "reference": "urn:uuid:0747f2b9-dea3-4287-8df9-0c1ae24afce1"
        }
      }
    },
    {
      "fullUrl": "urn:uuid:0dd7f1cf-1887-4bb8-87d6-35086a0122b0",
      "resource": {
        "resourceType": "Observation",
        "id": "0dd7f1cf-1887-4bb8-87d6-35086a0122b0",
        "meta": {
          "profile": [
            "http://hl7.eu/fhir/laboratory/StructureDefinition/Observation-resultslab-eu-lab"
          ]
        },
        "performer": [
          {
            "display": "The Central European Lab"
          }
        ],
        "category": [
          {
            "coding": [
              {
                "system": "http://terminology.hl7.org/CodeSystem/observation-category",
                "code": "laboratory"
              }
            ]
          }
        ],
        "code": {
          "coding": [
            {
              "code": "5770-3",
              "system": "http://loinc.org",
              "display": "Bilirubin.total [Presence] in Urine by Test strip"
            }
          ],
          "text": "Bilirubin.total [Presence] in Urine by Test strip"
        },
        "text": {
          "status": "generated",
          "div": "<div xmlns=\"http://www.w3.org/1999/xhtml\"><table class=\"hl7__eu__lab__report\"><tr><th>Test</th><th>23-Dec-2016</th><th>Reference&#xA0;Range</th><th>Unit</th></tr><tr><td>Bilirubin.total [Presence] in Urine by Test strip</td></tr></table></div>"
        },
        "status": "final",
        "subject": {
          "reference": "urn:uuid:29f95552-b08b-47a4-b31f-955e796349a2",
          "display": "Victor Lagarde"
        },
        "effectiveDateTime": "2016-12-23T04:48:18Z",
        "specimen": {
          "reference": "urn:uuid:0747f2b9-dea3-4287-8df9-0c1ae24afce1"
        }
      }
    },
    {
      "fullUrl": "urn:uuid:878f968b-5449-44a8-9cd7-88eb7dfab44e",
      "resource": {
        "resourceType": "Observation",
        "id": "878f968b-5449-44a8-9cd7-88eb7dfab44e",
        "meta": {
          "profile": [
            "http://hl7.eu/fhir/laboratory/StructureDefinition/Observation-resultslab-eu-lab"
          ]
        },
        "performer": [
          {
            "display": "The Central European Lab"
          }
        ],
        "category": [
          {
            "coding": [
              {
                "system": "http://terminology.hl7.org/CodeSystem/observation-category",
                "code": "laboratory"
              }
            ]
          }
        ],
        "code": {
          "coding": [
            {
              "code": "5797-6",
              "system": "http://loinc.org",
              "display": "Ketones [Mass/volume] in Urine by Test strip"
            }
          ],
          "text": "Ketones [Mass/volume] in Urine by Test strip"
        },
        "valueQuantity": {
          "system": "http://unitsofmeasure.org",
          "value": 15.6,
          "unit": "mg/dL",
          "code": "mg/dL"
        },
        "referenceRange": [
          {
            "low": {
              "value": 0,
              "code": "mg/dL",
              "system": "http://unitsofmeasure.org"
            }
          },
          {
            "high": {
              "value": 3,
              "code": "mg/dL",
              "system": "http://unitsofmeasure.org"
            }
          }
        ],
        "interpretation": [
          {
            "coding": [
              {
                "code": "H",
                "system": "http://terminology.hl7.org/CodeSystem/v3-ObservationInterpretation",
                "display": "High"
              }
            ]
          }
        ],
        "text": {
          "status": "generated",
          "div": "<div xmlns=\"http://www.w3.org/1999/xhtml\"><table class=\"hl7__eu__lab__report\"><tr><th>Test</th><th>23-Dec-2016</th><th>Reference&#xA0;Range</th><th>Unit</th></tr><tr><td>Ketones [Mass/volume] in Urine by Test strip</td><td>15.6</td><td>0 - 3</td><td>H</td><td>mg/dL</td></tr></table></div>"
        },
        "status": "final",
        "subject": {
          "reference": "urn:uuid:29f95552-b08b-47a4-b31f-955e796349a2",
          "display": "Victor Lagarde"
        },
        "effectiveDateTime": "2016-12-23T04:48:18Z",
        "specimen": {
          "reference": "urn:uuid:0747f2b9-dea3-4287-8df9-0c1ae24afce1"
        }
      }
    },
    {
      "fullUrl": "urn:uuid:d7668399-d88b-4ddd-ada7-9af358fb00f4",
      "resource": {
        "resourceType": "Observation",
        "id": "d7668399-d88b-4ddd-ada7-9af358fb00f4",
        "meta": {
          "profile": [
            "http://hl7.eu/fhir/laboratory/StructureDefinition/Observation-resultslab-eu-lab"
          ]
        },
        "performer": [
          {
            "display": "The Central European Lab"
          }
        ],
        "category": [
          {
            "coding": [
              {
                "system": "http://terminology.hl7.org/CodeSystem/observation-category",
                "code": "laboratory"
              }
            ]
          }
        ],
        "code": {
          "coding": [
            {
              "code": "2514-8",
              "system": "http://loinc.org",
              "display": "Ketones [Presence] in Urine by Test strip"
            }
          ],
          "text": "Ketones [Presence] in Urine by Test strip"
        },
        "text": {
          "status": "generated",
          "div": "<div xmlns=\"http://www.w3.org/1999/xhtml\"><table class=\"hl7__eu__lab__report\"><tr><th>Test</th><th>23-Dec-2016</th><th>Reference&#xA0;Range</th><th>Unit</th></tr><tr><td>Ketones [Presence] in Urine by Test strip</td></tr></table></div>"
        },
        "status": "final",
        "subject": {
          "reference": "urn:uuid:29f95552-b08b-47a4-b31f-955e796349a2",
          "display": "Victor Lagarde"
        },
        "effectiveDateTime": "2016-12-23T04:48:18Z",
        "specimen": {
          "reference": "urn:uuid:0747f2b9-dea3-4287-8df9-0c1ae24afce1"
        }
      }
    },
    {
      "fullUrl": "urn:uuid:0f5c1a00-588f-428d-a5d5-9b4e4514845d",
      "resource": {
        "resourceType": "Observation",
        "id": "0f5c1a00-588f-428d-a5d5-9b4e4514845d",
        "meta": {
          "profile": [
            "http://hl7.eu/fhir/laboratory/StructureDefinition/Observation-resultslab-eu-lab"
          ]
        },
        "performer": [
          {
            "display": "The Central European Lab"
          }
        ],
        "category": [
          {
            "coding": [
              {
                "system": "http://terminology.hl7.org/CodeSystem/observation-category",
                "code": "laboratory"
              }
            ]
          }
        ],
        "code": {
          "coding": [
            {
              "code": "5811-5",
              "system": "http://loinc.org",
              "display": "Specific gravity of Urine by Test strip"
            }
          ],
          "text": "Specific gravity of Urine by Test strip"
        },
        "valueQuantity": {
          "system": "http://unitsofmeasure.org",
          "value": 1,
          "unit": "{nominal}",
          "code": "{nominal}"
        },
        "referenceRange": [
          {
            "low": {
              "value": 1.01,
              "code": "g/mL",
              "system": "http://unitsofmeasure.org"
            }
          },
          {
            "high": {
              "value": 1.03,
              "code": "g/mL",
              "system": "http://unitsofmeasure.org"
            }
          }
        ],
        "interpretation": [
          {
            "coding": [
              {
                "code": "L",
                "system": "http://terminology.hl7.org/CodeSystem/v3-ObservationInterpretation",
                "display": "Low"
              }
            ]
          }
        ],
        "text": {
          "status": "generated",
          "div": "<div xmlns=\"http://www.w3.org/1999/xhtml\"><table class=\"hl7__eu__lab__report\"><tr><th>Test</th><th>23-Dec-2016</th><th>Reference&#xA0;Range</th><th>Unit</th></tr><tr><td>Specific gravity of Urine by Test strip</td><td>1.0</td><td>1.01 - 1.03</td><td>L</td><td>{nominal}</td></tr></table></div>"
        },
        "status": "final",
        "subject": {
          "reference": "urn:uuid:29f95552-b08b-47a4-b31f-955e796349a2",
          "display": "Victor Lagarde"
        },
        "effectiveDateTime": "2016-12-23T04:48:18Z",
        "specimen": {
          "reference": "urn:uuid:0747f2b9-dea3-4287-8df9-0c1ae24afce1"
        }
      }
    },
    {
      "fullUrl": "urn:uuid:6c77a703-a834-4c8d-8850-e8943779946f",
      "resource": {
        "resourceType": "Observation",
        "id": "6c77a703-a834-4c8d-8850-e8943779946f",
        "meta": {
          "profile": [
            "http://hl7.eu/fhir/laboratory/StructureDefinition/Observation-resultslab-eu-lab"
          ]
        },
        "performer": [
          {
            "display": "The Central European Lab"
          }
        ],
        "category": [
          {
            "coding": [
              {
                "system": "http://terminology.hl7.org/CodeSystem/observation-category",
                "code": "laboratory"
              }
            ]
          }
        ],
        "code": {
          "coding": [
            {
              "code": "5803-2",
              "system": "http://loinc.org",
              "display": "pH of Urine by Test strip"
            }
          ],
          "text": "pH of Urine by Test strip"
        },
        "valueQuantity": {
          "system": "http://unitsofmeasure.org",
          "value": 6.5,
          "unit": "pH",
          "code": "pH"
        },
        "referenceRange": [
          {
            "low": {
              "value": 4.5,
              "code": "pH",
              "system": "http://unitsofmeasure.org"
            }
          },
          {
            "high": {
              "value": 7.5,
              "code": "pH",
              "system": "http://unitsofmeasure.org"
            }
          }
        ],
        "text": {
          "status": "generated",
          "div": "<div xmlns=\"http://www.w3.org/1999/xhtml\"><table class=\"hl7__eu__lab__report\"><tr><th>Test</th><th>23-Dec-2016</th><th>Reference&#xA0;Range</th><th>Unit</th></tr><tr><td>pH of Urine by Test strip</td><td>6.5</td><td>4.5 - 7.5</td><td></td><td>pH</td></tr></table></div>"
        },
        "status": "final",
        "subject": {
          "reference": "urn:uuid:29f95552-b08b-47a4-b31f-955e796349a2",
          "display": "Victor Lagarde"
        },
        "effectiveDateTime": "2016-12-23T04:48:18Z",
        "specimen": {
          "reference": "urn:uuid:0747f2b9-dea3-4287-8df9-0c1ae24afce1"
        }
      }
    },
    {
      "fullUrl": "urn:uuid:c4a19cb6-42be-415b-8de8-fc1524e4740a",
      "resource": {
        "resourceType": "Observation",
        "id": "c4a19cb6-42be-415b-8de8-fc1524e4740a",
        "meta": {
          "profile": [
            "http://hl7.eu/fhir/laboratory/StructureDefinition/Observation-resultslab-eu-lab"
          ]
        },
        "performer": [
          {
            "display": "The Central European Lab"
          }
        ],
        "category": [
          {
            "coding": [
              {
                "system": "http://terminology.hl7.org/CodeSystem/observation-category",
                "code": "laboratory"
              }
            ]
          }
        ],
        "code": {
          "coding": [
            {
              "code": "5804-0",
              "system": "http://loinc.org",
              "display": "Protein [Mass/volume] in Urine by Test strip"
            }
          ],
          "text": "Protein [Mass/volume] in Urine by Test strip"
        },
        "valueQuantity": {
          "system": "http://unitsofmeasure.org",
          "value": 165.5,
          "unit": "mg/dL",
          "code": "mg/dL"
        },
        "referenceRange": [
          {
            "low": {
              "value": 0,
              "code": "mg/dL",
              "system": "http://unitsofmeasure.org"
            }
          },
          {
            "high": {
              "value": 149,
              "code": "mg/dL",
              "system": "http://unitsofmeasure.org"
            }
          }
        ],
        "interpretation": [
          {
            "coding": [
              {
                "code": "H",
                "system": "http://terminology.hl7.org/CodeSystem/v3-ObservationInterpretation",
                "display": "High"
              }
            ]
          }
        ],
        "text": {
          "status": "generated",
          "div": "<div xmlns=\"http://www.w3.org/1999/xhtml\"><table class=\"hl7__eu__lab__report\"><tr><th>Test</th><th>23-Dec-2016</th><th>Reference&#xA0;Range</th><th>Unit</th></tr><tr><td>Protein [Mass/volume] in Urine by Test strip</td><td>165.5</td><td>0 - 149</td><td>H</td><td>mg/dL</td></tr></table></div>"
        },
        "status": "final",
        "subject": {
          "reference": "urn:uuid:29f95552-b08b-47a4-b31f-955e796349a2",
          "display": "Victor Lagarde"
        },
        "effectiveDateTime": "2016-12-23T04:48:18Z",
        "specimen": {
          "reference": "urn:uuid:0747f2b9-dea3-4287-8df9-0c1ae24afce1"
        }
      }
    },
    {
      "fullUrl": "urn:uuid:6537bf25-2ff6-4fc5-9e91-3c5ae0ba293b",
      "resource": {
        "resourceType": "Observation",
        "id": "6537bf25-2ff6-4fc5-9e91-3c5ae0ba293b",
        "meta": {
          "profile": [
            "http://hl7.eu/fhir/laboratory/StructureDefinition/Observation-resultslab-eu-lab"
          ]
        },
        "performer": [
          {
            "display": "The Central European Lab"
          }
        ],
        "category": [
          {
            "coding": [
              {
                "system": "http://terminology.hl7.org/CodeSystem/observation-category",
                "code": "laboratory"
              }
            ]
          }
        ],
        "code": {
          "coding": [
            {
              "code": "20454-5",
              "system": "http://loinc.org",
              "display": "Protein [Presence] in Urine by Test strip"
            }
          ],
          "text": "Protein [Presence] in Urine by Test strip"
        },
        "text": {
          "status": "generated",
          "div": "<div xmlns=\"http://www.w3.org/1999/xhtml\"><table class=\"hl7__eu__lab__report\"><tr><th>Test</th><th>23-Dec-2016</th><th>Reference&#xA0;Range</th><th>Unit</th></tr><tr><td>Protein [Presence] in Urine by Test strip</td></tr></table></div>"
        },
        "status": "final",
        "subject": {
          "reference": "urn:uuid:29f95552-b08b-47a4-b31f-955e796349a2",
          "display": "Victor Lagarde"
        },
        "effectiveDateTime": "2016-12-23T04:48:18Z",
        "specimen": {
          "reference": "urn:uuid:0747f2b9-dea3-4287-8df9-0c1ae24afce1"
        }
      }
    },
    {
      "fullUrl": "urn:uuid:c8b9d169-7fcb-49e6-b7c7-b1bb3f474201",
      "resource": {
        "resourceType": "Observation",
        "id": "c8b9d169-7fcb-49e6-b7c7-b1bb3f474201",
        "meta": {
          "profile": [
            "http://hl7.eu/fhir/laboratory/StructureDefinition/Observation-resultslab-eu-lab"
          ]
        },
        "performer": [
          {
            "display": "The Central European Lab"
          }
        ],
        "category": [
          {
            "coding": [
              {
                "system": "http://terminology.hl7.org/CodeSystem/observation-category",
                "code": "laboratory"
              }
            ]
          }
        ],
        "code": {
          "coding": [
            {
              "code": "5802-4",
              "system": "http://loinc.org",
              "display": "Nitrite [Presence] in Urine by Test strip"
            }
          ],
          "text": "Nitrite [Presence] in Urine by Test strip"
        },
        "text": {
          "status": "generated",
          "div": "<div xmlns=\"http://www.w3.org/1999/xhtml\"><table class=\"hl7__eu__lab__report\"><tr><th>Test</th><th>23-Dec-2016</th><th>Reference&#xA0;Range</th><th>Unit</th></tr><tr><td>Nitrite [Presence] in Urine by Test strip</td></tr></table></div>"
        },
        "status": "final",
        "subject": {
          "reference": "urn:uuid:29f95552-b08b-47a4-b31f-955e796349a2",
          "display": "Victor Lagarde"
        },
        "effectiveDateTime": "2016-12-23T04:48:18Z",
        "specimen": {
          "reference": "urn:uuid:0747f2b9-dea3-4287-8df9-0c1ae24afce1"
        }
      }
    },
    {
      "fullUrl": "urn:uuid:e2a7b5eb-dd07-4a58-8f31-2ea857b331bb",
      "resource": {
        "resourceType": "Observation",
        "id": "e2a7b5eb-dd07-4a58-8f31-2ea857b331bb",
        "meta": {
          "profile": [
            "http://hl7.eu/fhir/laboratory/StructureDefinition/Observation-resultslab-eu-lab"
          ]
        },
        "performer": [
          {
            "display": "The Central European Lab"
          }
        ],
        "category": [
          {
            "coding": [
              {
                "system": "http://terminology.hl7.org/CodeSystem/observation-category",
                "code": "laboratory"
              }
            ]
          }
        ],
        "code": {
          "coding": [
            {
              "code": "5794-3",
              "system": "http://loinc.org",
              "display": "Hemoglobin [Presence] in Urine by Test strip"
            }
          ],
          "text": "Hemoglobin [Presence] in Urine by Test strip"
        },
        "text": {
          "status": "generated",
          "div": "<div xmlns=\"http://www.w3.org/1999/xhtml\"><table class=\"hl7__eu__lab__report\"><tr><th>Test</th><th>23-Dec-2016</th><th>Reference&#xA0;Range</th><th>Unit</th></tr><tr><td>Hemoglobin [Presence] in Urine by Test strip</td></tr></table></div>"
        },
        "status": "final",
        "subject": {
          "reference": "urn:uuid:29f95552-b08b-47a4-b31f-955e796349a2",
          "display": "Victor Lagarde"
        },
        "effectiveDateTime": "2016-12-23T04:48:18Z",
        "specimen": {
          "reference": "urn:uuid:0747f2b9-dea3-4287-8df9-0c1ae24afce1"
        }
      }
    },
    {
      "fullUrl": "urn:uuid:bb55abb9-121b-403b-bf7c-fee3474f21a7",
      "resource": {
        "resourceType": "Observation",
        "id": "bb55abb9-121b-403b-bf7c-fee3474f21a7",
        "meta": {
          "profile": [
            "http://hl7.eu/fhir/laboratory/StructureDefinition/Observation-resultslab-eu-lab"
          ]
        },
        "performer": [
          {
            "display": "The Central European Lab"
          }
        ],
        "category": [
          {
            "coding": [
              {
                "system": "http://terminology.hl7.org/CodeSystem/observation-category",
                "code": "laboratory"
              }
            ]
          }
        ],
        "code": {
          "coding": [
            {
              "code": "5799-2",
              "system": "http://loinc.org",
              "display": "Leukocyte esterase [Presence] in Urine by Test strip"
            }
          ],
          "text": "Leukocyte esterase [Presence] in Urine by Test strip"
        },
        "text": {
          "status": "generated",
          "div": "<div xmlns=\"http://www.w3.org/1999/xhtml\"><table class=\"hl7__eu__lab__report\"><tr><th>Test</th><th>23-Dec-2016</th><th>Reference&#xA0;Range</th><th>Unit</th></tr><tr><td>Leukocyte esterase [Presence] in Urine by Test strip</td></tr></table></div>"
        },
        "status": "final",
        "subject": {
          "reference": "urn:uuid:29f95552-b08b-47a4-b31f-955e796349a2",
          "display": "Victor Lagarde"
        },
        "effectiveDateTime": "2016-12-23T04:48:18Z",
        "specimen": {
          "reference": "urn:uuid:0747f2b9-dea3-4287-8df9-0c1ae24afce1"
        }
      }
    },
    {
      "fullUrl": "urn:uuid:a8f6824d-6d6a-424c-86e0-36cf143480ed",
      "resource": {
        "resourceType": "Observation",
        "id": "a8f6824d-6d6a-424c-86e0-36cf143480ed",
        "meta": {
          "profile": [
            "http://hl7.eu/fhir/laboratory/StructureDefinition/Observation-resultslab-eu-lab"
          ]
        },
        "performer": [
          {
            "display": "The Central European Lab"
          }
        ],
        "category": [
          {
            "coding": [
              {
                "system": "http://terminology.hl7.org/CodeSystem/observation-category",
                "code": "laboratory"
              }
            ]
          }
        ],
        "code": {
          "coding": [
            {
              "code": "4548-4",
              "system": "http://loinc.org",
              "display": "Hemoglobin A1c/Hemoglobin.total in Blood"
            }
          ],
          "text": "Hemoglobin A1c/Hemoglobin.total in Blood"
        },
        "valueQuantity": {
          "system": "http://unitsofmeasure.org",
          "value": 3.3,
          "unit": "%",
          "code": "%"
        },
        "referenceRange": [
          {
            "low": {
              "value": 4.3,
              "code": "%",
              "system": "http://unitsofmeasure.org"
            }
          },
          {
            "high": {
              "value": 6,
              "code": "%",
              "system": "http://unitsofmeasure.org"
            }
          }
        ],
        "interpretation": [
          {
            "coding": [
              {
                "code": "L",
                "system": "http://terminology.hl7.org/CodeSystem/v3-ObservationInterpretation",
                "display": "Low"
              }
            ]
          }
        ],
        "text": {
          "status": "generated",
          "div": "<div xmlns=\"http://www.w3.org/1999/xhtml\"><table class=\"hl7__eu__lab__report\"><tr><th>Test</th><th>23-Dec-2016</th><th>Reference&#xA0;Range</th><th>Unit</th></tr><tr><td>Hemoglobin A1c/Hemoglobin.total in Blood</td><td>3.3</td><td>4.3 - 6</td><td>L</td><td>%</td></tr></table></div>"
        },
        "status": "final",
        "subject": {
          "reference": "urn:uuid:29f95552-b08b-47a4-b31f-955e796349a2",
          "display": "Victor Lagarde"
        },
        "effectiveDateTime": "2016-12-23T04:48:18Z",
        "specimen": {
          "reference": "urn:uuid:f2e73774-4ff7-4ad9-9d98-c83dc53a8be6"
        }
      }
    },
    {
      "fullUrl": "urn:uuid:9be59bdb-b9f7-4168-8cc1-c48f7fad3c08",
      "resource": {
        "resourceType": "Observation",
        "id": "9be59bdb-b9f7-4168-8cc1-c48f7fad3c08",
        "meta": {
          "profile": [
            "http://hl7.eu/fhir/laboratory/StructureDefinition/Observation-resultslab-eu-lab"
          ]
        },
        "performer": [
          {
            "display": "The Central European Lab"
          }
        ],
        "category": [
          {
            "coding": [
              {
                "system": "http://terminology.hl7.org/CodeSystem/observation-category",
                "code": "laboratory"
              }
            ]
          }
        ],
        "code": {
          "coding": [
            {
              "code": "2339-0",
              "system": "http://loinc.org",
              "display": "Glucose [Mass/volume] in Blood"
            }
          ],
          "text": "Glucose [Mass/volume] in Blood"
        },
        "valueQuantity": {
          "system": "http://unitsofmeasure.org",
          "value": 68.3,
          "unit": "mg/dL",
          "code": "mg/dL"
        },
        "referenceRange": [
          {
            "low": {
              "value": 70,
              "code": "mg/dL",
              "system": "http://unitsofmeasure.org"
            }
          },
          {
            "high": {
              "value": 140,
              "code": "mg/dL",
              "system": "http://unitsofmeasure.org"
            }
          }
        ],
        "interpretation": [
          {
            "coding": [
              {
                "code": "L",
                "system": "http://terminology.hl7.org/CodeSystem/v3-ObservationInterpretation",
                "display": "Low"
              }
            ]
          }
        ],
        "text": {
          "status": "generated",
          "div": "<div xmlns=\"http://www.w3.org/1999/xhtml\"><table class=\"hl7__eu__lab__report\"><tr><th>Test</th><th>23-Dec-2016</th><th>Reference&#xA0;Range</th><th>Unit</th></tr><tr><td>Glucose [Mass/volume] in Blood</td><td>68.3</td><td>70 - 140</td><td>L</td><td>mg/dL</td></tr></table></div>"
        },
        "status": "final",
        "subject": {
          "reference": "urn:uuid:29f95552-b08b-47a4-b31f-955e796349a2",
          "display": "Victor Lagarde"
        },
        "effectiveDateTime": "2016-12-23T04:48:18Z",
        "specimen": {
          "reference": "urn:uuid:f2e73774-4ff7-4ad9-9d98-c83dc53a8be6"
        }
      }
    },
    {
      "fullUrl": "urn:uuid:54c53c76-f97c-4f74-88ae-9577c6f3551c",
      "resource": {
        "resourceType": "Observation",
        "id": "54c53c76-f97c-4f74-88ae-9577c6f3551c",
        "meta": {
          "profile": [
            "http://hl7.eu/fhir/laboratory/StructureDefinition/Observation-resultslab-eu-lab"
          ]
        },
        "performer": [
          {
            "display": "The Central European Lab"
          }
        ],
        "category": [
          {
            "coding": [
              {
                "system": "http://terminology.hl7.org/CodeSystem/observation-category",
                "code": "laboratory"
              }
            ]
          }
        ],
        "code": {
          "coding": [
            {
              "code": "6299-2",
              "system": "http://loinc.org",
              "display": "Urea nitrogen [Mass/volume] in Blood"
            }
          ],
          "text": "Urea nitrogen [Mass/volume] in Blood"
        },
        "valueQuantity": {
          "system": "http://unitsofmeasure.org",
          "value": 7.1,
          "unit": "mg/dL",
          "code": "mg/dL"
        },
        "referenceRange": [
          {
            "low": {
              "value": 7,
              "code": "mg/dL",
              "system": "http://unitsofmeasure.org"
            }
          },
          {
            "high": {
              "value": 20,
              "code": "mg/dL",
              "system": "http://unitsofmeasure.org"
            }
          }
        ],
        "text": {
          "status": "generated",
          "div": "<div xmlns=\"http://www.w3.org/1999/xhtml\"><table class=\"hl7__eu__lab__report\"><tr><th>Test</th><th>23-Dec-2016</th><th>Reference&#xA0;Range</th><th>Unit</th></tr><tr><td>Urea nitrogen [Mass/volume] in Blood</td><td>7.1</td><td>7 - 20</td><td></td><td>mg/dL</td></tr></table></div>"
        },
        "status": "final",
        "subject": {
          "reference": "urn:uuid:29f95552-b08b-47a4-b31f-955e796349a2",
          "display": "Victor Lagarde"
        },
        "effectiveDateTime": "2016-12-23T04:48:18Z",
        "specimen": {
          "reference": "urn:uuid:f2e73774-4ff7-4ad9-9d98-c83dc53a8be6"
        }
      }
    },
    {
      "fullUrl": "urn:uuid:377097bd-cba2-4a3b-9117-6eb562452966",
      "resource": {
        "resourceType": "Observation",
        "id": "377097bd-cba2-4a3b-9117-6eb562452966",
        "meta": {
          "profile": [
            "http://hl7.eu/fhir/laboratory/StructureDefinition/Observation-resultslab-eu-lab"
          ]
        },
        "performer": [
          {
            "display": "The Central European Lab"
          }
        ],
        "category": [
          {
            "coding": [
              {
                "system": "http://terminology.hl7.org/CodeSystem/observation-category",
                "code": "laboratory"
              }
            ]
          }
        ],
        "code": {
          "coding": [
            {
              "code": "38483-4",
              "system": "http://loinc.org",
              "display": "Creatinine [Mass/volume] in Blood"
            }
          ],
          "text": "Creatinine [Mass/volume] in Blood"
        },
        "valueQuantity": {
          "system": "http://unitsofmeasure.org",
          "value": 1.7,
          "unit": "mg/dL",
          "code": "mg/dL"
        },
        "referenceRange": [
          {
            "low": {
              "value": 0.9,
              "code": "mg/dL",
              "system": "http://unitsofmeasure.org"
            }
          },
          {
            "high": {
              "value": 1.3,
              "code": "mg/dL",
              "system": "http://unitsofmeasure.org"
            }
          }
        ],
        "interpretation": [
          {
            "coding": [
              {
                "code": "H",
                "system": "http://terminology.hl7.org/CodeSystem/v3-ObservationInterpretation",
                "display": "High"
              }
            ]
          }
        ],
        "text": {
          "status": "generated",
          "div": "<div xmlns=\"http://www.w3.org/1999/xhtml\"><table class=\"hl7__eu__lab__report\"><tr><th>Test</th><th>23-Dec-2016</th><th>Reference&#xA0;Range</th><th>Unit</th></tr><tr><td>Creatinine [Mass/volume] in Blood</td><td>1.7</td><td>0.9 - 1.3</td><td>H</td><td>mg/dL</td></tr></table></div>"
        },
        "status": "final",
        "subject": {
          "reference": "urn:uuid:29f95552-b08b-47a4-b31f-955e796349a2",
          "display": "Victor Lagarde"
        },
        "effectiveDateTime": "2016-12-23T04:48:18Z",
        "specimen": {
          "reference": "urn:uuid:f2e73774-4ff7-4ad9-9d98-c83dc53a8be6"
        }
      }
    },
    {
      "fullUrl": "urn:uuid:f450c4d8-3686-41c0-9bd2-e43294286676",
      "resource": {
        "resourceType": "Observation",
        "id": "f450c4d8-3686-41c0-9bd2-e43294286676",
        "meta": {
          "profile": [
            "http://hl7.eu/fhir/laboratory/StructureDefinition/Observation-resultslab-eu-lab"
          ]
        },
        "performer": [
          {
            "display": "The Central European Lab"
          }
        ],
        "category": [
          {
            "coding": [
              {
                "system": "http://terminology.hl7.org/CodeSystem/observation-category",
                "code": "laboratory"
              }
            ]
          }
        ],
        "code": {
          "coding": [
            {
              "code": "49765-1",
              "system": "http://loinc.org",
              "display": "Calcium [Mass/volume] in Blood"
            }
          ],
          "text": "Calcium [Mass/volume] in Blood"
        },
        "valueQuantity": {
          "system": "http://unitsofmeasure.org",
          "value": 9.6,
          "unit": "mg/dL",
          "code": "mg/dL"
        },
        "referenceRange": [
          {
            "low": {
              "value": 8.5,
              "code": "mg/dL",
              "system": "http://unitsofmeasure.org"
            }
          },
          {
            "high": {
              "value": 10.5,
              "code": "mg/dL",
              "system": "http://unitsofmeasure.org"
            }
          }
        ],
        "text": {
          "status": "generated",
          "div": "<div xmlns=\"http://www.w3.org/1999/xhtml\"><table class=\"hl7__eu__lab__report\"><tr><th>Test</th><th>23-Dec-2016</th><th>Reference&#xA0;Range</th><th>Unit</th></tr><tr><td>Calcium [Mass/volume] in Blood</td><td>9.6</td><td>8.5 - 10.5</td><td></td><td>mg/dL</td></tr></table></div>"
        },
        "status": "final",
        "subject": {
          "reference": "urn:uuid:29f95552-b08b-47a4-b31f-955e796349a2",
          "display": "Victor Lagarde"
        },
        "effectiveDateTime": "2016-12-23T04:48:18Z",
        "specimen": {
          "reference": "urn:uuid:f2e73774-4ff7-4ad9-9d98-c83dc53a8be6"
        }
      }
    },
    {
      "fullUrl": "urn:uuid:a148a7b2-e827-46e9-9812-06d74af7a317",
      "resource": {
        "resourceType": "Observation",
        "id": "a148a7b2-e827-46e9-9812-06d74af7a317",
        "meta": {
          "profile": [
            "http://hl7.eu/fhir/laboratory/StructureDefinition/Observation-resultslab-eu-lab"
          ]
        },
        "performer": [
          {
            "display": "The Central European Lab"
          }
        ],
        "category": [
          {
            "coding": [
              {
                "system": "http://terminology.hl7.org/CodeSystem/observation-category",
                "code": "laboratory"
              }
            ]
          }
        ],
        "code": {
          "coding": [
            {
              "code": "2947-0",
              "system": "http://loinc.org",
              "display": "Sodium [Moles/volume] in Blood"
            }
          ],
          "text": "Sodium [Moles/volume] in Blood"
        },
        "valueQuantity": {
          "system": "http://unitsofmeasure.org",
          "value": 137.3,
          "unit": "mmol/L",
          "code": "mmol/L"
        },
        "referenceRange": [
          {
            "low": {
              "value": 135,
              "code": "mmol/L",
              "system": "http://unitsofmeasure.org"
            }
          },
          {
            "high": {
              "value": 145,
              "code": "mmol/L",
              "system": "http://unitsofmeasure.org"
            }
          }
        ],
        "text": {
          "status": "generated",
          "div": "<div xmlns=\"http://www.w3.org/1999/xhtml\"><table class=\"hl7__eu__lab__report\"><tr><th>Test</th><th>23-Dec-2016</th><th>Reference&#xA0;Range</th><th>Unit</th></tr><tr><td>Sodium [Moles/volume] in Blood</td><td>137.3</td><td>135 - 145</td><td></td><td>mmol/L</td></tr></table></div>"
        },
        "status": "final",
        "subject": {
          "reference": "urn:uuid:29f95552-b08b-47a4-b31f-955e796349a2",
          "display": "Victor Lagarde"
        },
        "effectiveDateTime": "2016-12-23T04:48:18Z",
        "specimen": {
          "reference": "urn:uuid:f2e73774-4ff7-4ad9-9d98-c83dc53a8be6"
        }
      }
    },
    {
      "fullUrl": "urn:uuid:1320315e-1e47-489e-bc1e-ad67abd988ef",
      "resource": {
        "resourceType": "Observation",
        "id": "1320315e-1e47-489e-bc1e-ad67abd988ef",
        "meta": {
          "profile": [
            "http://hl7.eu/fhir/laboratory/StructureDefinition/Observation-resultslab-eu-lab"
          ]
        },
        "performer": [
          {
            "display": "The Central European Lab"
          }
        ],
        "category": [
          {
            "coding": [
              {
                "system": "http://terminology.hl7.org/CodeSystem/observation-category",
                "code": "laboratory"
              }
            ]
          }
        ],
        "code": {
          "coding": [
            {
              "code": "6298-4",
              "system": "http://loinc.org",
              "display": "Potassium [Moles/volume] in Blood"
            }
          ],
          "text": "Potassium [Moles/volume] in Blood"
        },
        "valueQuantity": {
          "system": "http://unitsofmeasure.org",
          "value": 4.8,
          "unit": "mmol/L",
          "code": "mmol/L"
        },
        "referenceRange": [
          {
            "low": {
              "value": 3.5,
              "code": "mmol/L",
              "system": "http://unitsofmeasure.org"
            }
          },
          {
            "high": {
              "value": 5.1,
              "code": "mmol/L",
              "system": "http://unitsofmeasure.org"
            }
          }
        ],
        "text": {
          "status": "generated",
          "div": "<div xmlns=\"http://www.w3.org/1999/xhtml\"><table class=\"hl7__eu__lab__report\"><tr><th>Test</th><th>23-Dec-2016</th><th>Reference&#xA0;Range</th><th>Unit</th></tr><tr><td>Potassium [Moles/volume] in Blood</td><td>4.8</td><td>3.5 - 5.1</td><td></td><td>mmol/L</td></tr></table></div>"
        },
        "status": "final",
        "subject": {
          "reference": "urn:uuid:29f95552-b08b-47a4-b31f-955e796349a2",
          "display": "Victor Lagarde"
        },
        "effectiveDateTime": "2016-12-23T04:48:18Z",
        "specimen": {
          "reference": "urn:uuid:f2e73774-4ff7-4ad9-9d98-c83dc53a8be6"
        }
      }
    },
    {
      "fullUrl": "urn:uuid:6e7de3ee-5cf5-48a5-9ef4-b930783b3da5",
      "resource": {
        "resourceType": "Observation",
        "id": "6e7de3ee-5cf5-48a5-9ef4-b930783b3da5",
        "meta": {
          "profile": [
            "http://hl7.eu/fhir/laboratory/StructureDefinition/Observation-resultslab-eu-lab"
          ]
        },
        "performer": [
          {
            "display": "The Central European Lab"
          }
        ],
        "category": [
          {
            "coding": [
              {
                "system": "http://terminology.hl7.org/CodeSystem/observation-category",
                "code": "laboratory"
              }
            ]
          }
        ],
        "code": {
          "coding": [
            {
              "code": "2069-3",
              "system": "http://loinc.org",
              "display": "Chloride [Moles/volume] in Blood"
            }
          ],
          "text": "Chloride [Moles/volume] in Blood"
        },
        "valueQuantity": {
          "system": "http://unitsofmeasure.org",
          "value": 107,
          "unit": "mmol/L",
          "code": "mmol/L"
        },
        "referenceRange": [
          {
            "low": {
              "value": 98,
              "code": "mmol/L",
              "system": "http://unitsofmeasure.org"
            }
          },
          {
            "high": {
              "value": 108,
              "code": "mmol/L",
              "system": "http://unitsofmeasure.org"
            }
          }
        ],
        "text": {
          "status": "generated",
          "div": "<div xmlns=\"http://www.w3.org/1999/xhtml\"><table class=\"hl7__eu__lab__report\"><tr><th>Test</th><th>23-Dec-2016</th><th>Reference&#xA0;Range</th><th>Unit</th></tr><tr><td>Chloride [Moles/volume] in Blood</td><td>107.0</td><td>98 - 108</td><td></td><td>mmol/L</td></tr></table></div>"
        },
        "status": "final",
        "subject": {
          "reference": "urn:uuid:29f95552-b08b-47a4-b31f-955e796349a2",
          "display": "Victor Lagarde"
        },
        "effectiveDateTime": "2016-12-23T04:48:18Z",
        "specimen": {
          "reference": "urn:uuid:f2e73774-4ff7-4ad9-9d98-c83dc53a8be6"
        }
      }
    },
    {
      "fullUrl": "urn:uuid:c9cbac01-a178-45e4-9fd4-6a3c1f8a915f",
      "resource": {
        "resourceType": "Observation",
        "id": "c9cbac01-a178-45e4-9fd4-6a3c1f8a915f",
        "meta": {
          "profile": [
            "http://hl7.eu/fhir/laboratory/StructureDefinition/Observation-resultslab-eu-lab"
          ]
        },
        "performer": [
          {
            "display": "The Central European Lab"
          }
        ],
        "category": [
          {
            "coding": [
              {
                "system": "http://terminology.hl7.org/CodeSystem/observation-category",
                "code": "laboratory"
              }
            ]
          }
        ],
        "code": {
          "coding": [
            {
              "code": "20565-8",
              "system": "http://loinc.org",
              "display": "Carbon dioxide, total [Moles/volume] in Blood"
            }
          ],
          "text": "Carbon dioxide, total [Moles/volume] in Blood"
        },
        "valueQuantity": {
          "system": "http://unitsofmeasure.org",
          "value": 20.4,
          "unit": "mmol/L",
          "code": "mmol/L"
        },
        "referenceRange": [
          {
            "low": {
              "value": 22,
              "code": "mmol/L",
              "system": "http://unitsofmeasure.org"
            }
          },
          {
            "high": {
              "value": 29,
              "code": "mmol/L",
              "system": "http://unitsofmeasure.org"
            }
          }
        ],
        "interpretation": [
          {
            "coding": [
              {
                "code": "L",
                "system": "http://terminology.hl7.org/CodeSystem/v3-ObservationInterpretation",
                "display": "Low"
              }
            ]
          }
        ],
        "text": {
          "status": "generated",
          "div": "<div xmlns=\"http://www.w3.org/1999/xhtml\"><table class=\"hl7__eu__lab__report\"><tr><th>Test</th><th>23-Dec-2016</th><th>Reference&#xA0;Range</th><th>Unit</th></tr><tr><td>Carbon dioxide, total [Moles/volume] in Blood</td><td>20.4</td><td>22 - 29</td><td>L</td><td>mmol/L</td></tr></table></div>"
        },
        "status": "final",
        "subject": {
          "reference": "urn:uuid:29f95552-b08b-47a4-b31f-955e796349a2",
          "display": "Victor Lagarde"
        },
        "effectiveDateTime": "2016-12-23T04:48:18Z",
        "specimen": {
          "reference": "urn:uuid:f2e73774-4ff7-4ad9-9d98-c83dc53a8be6"
        }
      }
    },
    {
      "fullUrl": "urn:uuid:c92e870e-c11a-4e89-97ac-8b45ccd40466",
      "resource": {
        "resourceType": "Device",
        "id": "c92e870e-c11a-4e89-97ac-8b45ccd40466",
        "deviceName": [
          {
            "name": "SYNDERAI Synthetic Generator",
            "type": "manufacturer-name"
          }
        ],
        "version": [
          {
            "value": "5.0"
          }
        ],
        "text": {
          "status": "generated",
          "div": "<div xmlns=\"http://www.w3.org/1999/xhtml\">SYNDERAI Synthetic Generator v5.0</div>"
        },
        "status": "active\"",
        "distinctIdentifier": "synderai-generator-50",
        "manufacturer": "SYNDERAI Project"
      }
    },
    {
      "fullUrl": "urn:uuid:7b36befe-635a-469a-9874-15ac04f8a671",
      "resource": {
        "resourceType": "Provenance",
        "id": "7b36befe-635a-469a-9874-15ac04f8a671",
        "target": [
          {
            "reference": "Patient/29f95552-b08b-47a4-b31f-955e796349a2"
          },
          {
            "reference": "Bundle/19823bf0-b0c3-4764-9e2d-874772bbb55d"
          },
          {
            "reference": "Composition/65d3674a-ff91-4547-911e-92120cafc8f4"
          },
          {
            "reference": "PractitionerRole/01a24704-3b7c-40da-b213-fa0ad2652de4"
          },
          {
            "reference": "Practitioner/e2c8e4c8-7577-4caa-b1cd-fb9ec0e13379"
          },
          {
            "reference": "PractitionerRole/1b3c9e70-5c06-4485-93d5-5f742ec06be6"
          },
          {
            "reference": "Organization/a1a2003d-7f08-4a35-b12d-398f78d96319"
          }
        ],
        "activity": {
          "text": "Synthetic Example Data Generation"
        },
        "policy": [
          "https://synderai.net/synderai-synthetic-data-policy"
        ],
        "agent": [
          {
            "type": {
              "text": "author"
            },
            "who": {
              "reference": "Device/c92e870e-c11a-4e89-97ac-8b45ccd40466"
            }
          }
        ],
        "reason": [
          {
            "text": "Interoperability Testing and Training (non-clinical use)"
          }
        ],
        "text": {
          "status": "generated",
          "div": "<div xmlns=\"http://www.w3.org/1999/xhtml\">Provenance for SYNDERAI Synthetic Example Data Resource</div>"
        },
        "recorded": "2016-12-23T05:48:18Z"
      }
    },
    {
      "fullUrl": "urn:uuid:01a24704-3b7c-40da-b213-fa0ad2652de4",
      "resource": {
        "resourceType": "PractitionerRole",
        "id": "01a24704-3b7c-40da-b213-fa0ad2652de4",
        "meta": {
          "profile": [
            "http://hl7.eu/fhir/base/StructureDefinition/practitionerRole-eu"
          ]
        },
        "text": {
          "status": "generated",
          "div": "<div xmlns=\"http://www.w3.org/1999/xhtml\">Laboratory Role Id: 01a24704-3b7c-40da-b213-fa0ad2652de4</div>"
        },
        "practitioner": {
          "reference": "urn:uuid:e2c8e4c8-7577-4caa-b1cd-fb9ec0e13379"
        }
      }
    },
    {
      "fullUrl": "urn:uuid:e2c8e4c8-7577-4caa-b1cd-fb9ec0e13379",
      "resource": {
        "resourceType": "Practitioner",
        "id": "e2c8e4c8-7577-4caa-b1cd-fb9ec0e13379",
        "meta": {
          "profile": [
            "http://hl7.eu/fhir/base/StructureDefinition/practitioner-eu"
          ]
        },
        "identifier": [
          {
            "assigner": {
              "display": "HL7 Europe"
            },
            "system": "urn:oid:2.16.840.1.113883.2.51.999",
            "value": "2c3323f0-6fea-4ba4-aff1-f9c9b74c66ff"
          }
        ],
        "name": [
          {
            "prefix": [
              "dr"
            ],
            "given": [
              "Ex"
            ],
            "family": "Ample"
          }
        ],
        "address": [
          {
            "line": [
              "Laboratoire Central Européenne",
              "Boulevard du Jardin Botanique 32"
            ],
            "postalCode": "1000",
            "city": "Brussels",
            "country": "Belgium"
          }
        ],
        "text": {
          "status": "generated",
          "div": "<div xmlns=\"http://www.w3.org/1999/xhtml\">Laboratory: Laboratoire Central Européenne, 1000 Brussels, Belgium</div>"
        }
      }
    }
  ],
  "type": "document",
  "timestamp": "2016-12-23T05:48:18Z"
}
