{
  "resourceType": "Bundle",
  "id": "4ad59ae4-5159-4409-99ef-7098117e6aeb",
  "meta": {
    "profile": [
      "http://hl7.eu/fhir/laboratory/StructureDefinition/Bundle-eu-lab"
    ]
  },
  "identifier": {
    "assigner": {
      "display": "HL7 Europe"
    },
    "system": "urn:oid:2.16.840.1.113883.2.51.999",
    "value": "03ee07e5-e781-49da-bc62-a9743a3ac9b3"
  },
  "entry": [
    {
      "fullUrl": "urn:uuid:0a310fb8-f30a-41df-99cd-c40b6a5f56e1",
      "resource": {
        "resourceType": "Composition",
        "id": "0a310fb8-f30a-41df-99cd-c40b6a5f56e1",
        "meta": {
          "profile": [
            "http://hl7.eu/fhir/laboratory/StructureDefinition/Composition-eu-lab"
          ]
        },
        "identifier": {
          "assigner": {
            "display": "HL7 Europe"
          },
          "system": "urn:oid:2.16.840.1.113883.2.51.999",
          "value": "6637fabd-e77c-4ae6-b631-22b3a2fd410f"
        },
        "author": [
          {
            "reference": "urn:uuid:c222b173-05bc-45a0-98e6-c981cfdb8f42"
          }
        ],
        "category": [
          {
            "coding": [
              {
                "code": "26436-6",
                "system": "http://loinc.org",
                "display": "Laboratory studies (set)"
              }
            ]
          }
        ],
        "type": {
          "coding": [
            {
              "code": "11502-2",
              "system": "http://loinc.org",
              "display": "Laboratory report"
            }
          ],
          "text": "Laboratory Report"
        },
        "section": [
          {
            "code": {
              "coding": [
                {
                  "code": "26436-6",
                  "system": "http://loinc.org",
                  "display": "Laboratory studies (set)"
                }
              ],
              "text": "Laboratory studies"
            },
            "section": [
              {
                "code": {
                  "coding": [
                    {
                      "code": "$18719-5",
                      "system": "http://loinc.org",
                      "display": "Chemistry studies (set)"
                    }
                  ],
                  "text": "Chemistry"
                },
                "entry": [
                  {
                    "reference": "urn:uuid:253de900-6297-4a38-8751-b0740721f966"
                  },
                  {
                    "reference": "urn:uuid:5575f016-52ab-4d70-9cf5-49ce4da9d9dd"
                  },
                  {
                    "reference": "urn:uuid:34e72604-f76f-4ea3-9973-def828c596dd"
                  },
                  {
                    "reference": "urn:uuid:a5faf875-fac7-43c0-9a9d-1cbc8e7c83b8"
                  },
                  {
                    "reference": "urn:uuid:232612d0-b8ff-406b-accf-b824842b731a"
                  },
                  {
                    "reference": "urn:uuid:ccfc4ddd-3b34-4e36-9814-3592d2b5bdcc"
                  },
                  {
                    "reference": "urn:uuid:74d926a8-e576-4471-9674-6442cc4e0c78"
                  },
                  {
                    "reference": "urn:uuid:cdf9d554-ef33-4db0-8c6d-4ac7979c1bcf"
                  },
                  {
                    "reference": "urn:uuid:6d865dca-3985-479a-a6e5-694417903c74"
                  }
                ],
                "text": {
                  "status": "generated",
                  "div": "<div xmlns=\"http://www.w3.org/1999/xhtml\"><h3>Chemistry</h3><table class=\"hl7__eu__lab__report\"><thead><tr><th>Test</th><th>17-JAN-2019</th><th>Reference&#xA0;Range</th><th>Unit</th></tr></thead><tbody><tr><td>Hemoglobin A1c/Hemoglobin.total in Blood</td><td>6.2</td><td>4.5 - 6.4</td><td>%</td></tr><tr><td>Glucose [Mass/volume] in Blood</td><td>91.3</td><td>70 - 99</td><td>mg/dL</td></tr><tr><td>Urea nitrogen [Mass/volume] in Blood</td><td>11.3</td><td>7 - 20</td><td>mg/dL</td></tr><tr><td>Creatinine [Mass/volume] in Blood</td><td>1.1</td><td>0.7 - 1.3</td><td>mg/dL</td></tr><tr><td>Calcium [Mass/volume] in Blood</td><td>9.9</td><td>8.5 - 10.5</td><td>mg/dL</td></tr><tr><td>Sodium [Moles/volume] in Blood</td><td>142.8</td><td>135 - 145</td><td>mmol/L</td></tr><tr><td>Potassium [Moles/volume] in Blood</td><td>4.1</td><td>3.5 - 5.3</td><td>mmol/L</td></tr><tr><td>Chloride [Moles/volume] in Blood</td><td>101.9</td><td>98 - 110</td><td>mmol/L</td></tr><tr><td>Carbon dioxide, total [Moles/volume] in Blood</td><td><strong>21.5 L</strong></td><td>22 - 29</td><td>mmol/L</td></tr></tbody></table></div>"
                },
                "title": "Chemistry"
              }
            ],
            "title": "Laboratory Report"
          },
          {
            "text": {
              "status": "generated",
              "div": "<div xmlns=\"http://www.w3.org/1999/xhtml\"><h3>Annotation</h3><table class=\"hl7__eu__lab__report\"><tr><th>Conclusion and Recommendations based on this report and previous findings known to us</th></tr><tr><td>All measured parameters are within normal limits except for a mildly decreased total carbon dioxide, which may suggest mild metabolic acidosis or compensated respiratory alkalosis. Glycemic control (HbA1c and glucose) is at the upper end of normal, indicating a need for continued monitoring. Renal and electrolyte parameters are unremarkable.</td></tr></table></div>"
            },
            "code": {
              "coding": [
                {
                  "system": "http://loinc.org",
                  "code": "48767-8",
                  "display": "Annotation comment"
                }
              ]
            },
            "title": "Annotation comment"
          }
        ],
        "status": "final",
        "subject": {
          "reference": "urn:uuid:584d5f98-7aa9-40b7-8abf-e5dc58b40c0d",
          "display": "Alfred Rémy"
        },
        "date": "2019-01-17T07:54:36Z",
        "title": "Laboratory Report",
        "confidentiality": "N"
      }
    },
    {
      "fullUrl": "urn:uuid:994454a5-8806-4bfd-accc-b661c79b69ed",
      "resource": {
        "resourceType": "DiagnosticReport",
        "id": "994454a5-8806-4bfd-accc-b661c79b69ed",
        "meta": {
          "profile": [
            "http://hl7.eu/fhir/laboratory/StructureDefinition/DiagnosticReport-eu-lab"
          ]
        },
        "identifier": [
          {
            "assigner": {
              "display": "HL7 Europe"
            },
            "system": "urn:oid:2.16.840.1.113883.2.51.999",
            "value": "4f5b5574-bd99-46c8-9b07-72482478920c"
          }
        ],
        "extension": [
          {
            "url": "http://hl7.org/fhir/5.0/StructureDefinition/extension-DiagnosticReport.composition",
            "valueReference": {
              "reference": "urn:uuid:6637fabd-e77c-4ae6-b631-22b3a2fd410f"
            }
          }
        ],
        "category": [
          {
            "coding": [
              {
                "code": "26436-6",
                "system": "http://loinc.org",
                "display": "Laboratory studies (set)"
              }
            ]
          }
        ],
        "specimen": [
          {
            "reference": "urn:uuid:5c730cee-5cd8-490a-8c20-ef156ac84bd2"
          }
        ],
        "result": [
          {
            "reference": "urn:uuid:253de900-6297-4a38-8751-b0740721f966"
          },
          {
            "reference": "urn:uuid:5575f016-52ab-4d70-9cf5-49ce4da9d9dd"
          },
          {
            "reference": "urn:uuid:34e72604-f76f-4ea3-9973-def828c596dd"
          },
          {
            "reference": "urn:uuid:a5faf875-fac7-43c0-9a9d-1cbc8e7c83b8"
          },
          {
            "reference": "urn:uuid:232612d0-b8ff-406b-accf-b824842b731a"
          },
          {
            "reference": "urn:uuid:ccfc4ddd-3b34-4e36-9814-3592d2b5bdcc"
          },
          {
            "reference": "urn:uuid:74d926a8-e576-4471-9674-6442cc4e0c78"
          },
          {
            "reference": "urn:uuid:cdf9d554-ef33-4db0-8c6d-4ac7979c1bcf"
          },
          {
            "reference": "urn:uuid:6d865dca-3985-479a-a6e5-694417903c74"
          }
        ],
        "status": "registered",
        "code": {
          "coding": [
            {
              "code": "11502-2",
              "system": "http://loinc.org",
              "display": "Laboratory report"
            }
          ]
        },
        "subject": {
          "reference": "urn:uuid:584d5f98-7aa9-40b7-8abf-e5dc58b40c0d",
          "display": "Alfred Rémy"
        }
      }
    },
    {
      "fullUrl": "urn:uuid:584d5f98-7aa9-40b7-8abf-e5dc58b40c0d",
      "resource": {
        "resourceType": "Patient",
        "id": "584d5f98-7aa9-40b7-8abf-e5dc58b40c0d",
        "meta": {
          "security": [
            {
              "system": "http://terminology.hl7.org/CodeSystem/v3-ActReason",
              "code": "HTEST"
            },
            {
              "system": "http://terminology.hl7.org/CodeSystem/v3-ActReason",
              "code": "TRAIN"
            }
          ],
          "tag": [
            {
              "system": "https://synderai.net/fhir/CodeSystem/tags",
              "code": "synthetic",
              "display": "SYNDERAI Synthetic data"
            }
          ],
          "profile": [
            "http://hl7.eu/fhir/base/StructureDefinition/patient-eu-core"
          ]
        },
        "identifier": [
          {
            "type": {
              "coding": [
                {
                  "code": "PT",
                  "system": "http://terminology.hl7.org/CodeSystem/v2-0203"
                }
              ]
            },
            "system": "http://ec.europa.eu/identifier/eci",
            "value": "9962-084919-2"
          },
          {
            "type": {
              "coding": [
                {
                  "code": "MR",
                  "system": "http://terminology.hl7.org/CodeSystem/v2-0203"
                }
              ]
            },
            "system": "http://local.setting.eu/identifier",
            "value": "cc3b7d7f-bed4-5811-99b9-3468e2f4203c"
          }
        ],
        "name": [
          {
            "family": "Rémy"
          },
          {
            "given": [
              "Alfred"
            ]
          },
          {
            "text": "Alfred Rémy"
          }
        ],
        "address": [
          {
            "line": [
              "88, rue de Jacquot"
            ],
            "use": "home",
            "type": "physical",
            "postalCode": "75018",
            "city": "Paris",
            "country": "France"
          }
        ],
        "telecom": [
          {
            "system": "phone",
            "value": "+33 (0)4 73 74 17 67"
          }
        ],
        "extension": [
          {
            "url": "http://hl7.org/fhir/StructureDefinition/patient-nationality",
            "valueCodeableConcept": {
              "coding": [
                {
                  "code": "FR",
                  "system": "http://hl7.org/fhir/ValueSet/country"
                }
              ]
            }
          }
        ],
        "text": {
          "status": "generated",
          "div": "<div xmlns=\"http://www.w3.org/1999/xhtml\"><table class=\"hl7__ips\"><tr><td>Alfred Rémy</td><td>male</td><td>05-Jul-1967</td></tr></table></div>"
        },
        "gender": "male",
        "birthDate": "1967-07-05"
      }
    },
    {
      "fullUrl": "urn:uuid:a1af9d82-5766-46f7-8a86-9aa5c98013ac",
      "resource": {
        "resourceType": "ServiceRequest",
        "id": "a1af9d82-5766-46f7-8a86-9aa5c98013ac",
        "meta": {
          "profile": [
            "http://hl7.eu/fhir/laboratory/StructureDefinition/ServiceRequest-eu-lab"
          ]
        },
        "identifier": [
          {
            "system": "http://example.org",
            "value": "63fa627d-5698-4184-9978-345a6ab7becd"
          }
        ],
        "specimen": [
          {
            "reference": "urn:uuid:5c730cee-5cd8-490a-8c20-ef156ac84bd2"
          }
        ],
        "reasonCode": [
          {
            "coding": [
              {
                "code": "271737000",
                "system": "http://snomed.info/sct",
                "display": "Anemia"
              }
            ]
          },
          {
            "coding": [
              {
                "code": "15777000",
                "system": "http://snomed.info/sct",
                "display": "Prediabetes"
              }
            ]
          }
        ],
        "status": "active",
        "intent": "order",
        "code": {
          "coding": [
            {
              "code": "108252007",
              "system": "http://snomed.info/sct",
              "display": "Laboratory procedure"
            }
          ]
        },
        "subject": {
          "reference": "urn:uuid:584d5f98-7aa9-40b7-8abf-e5dc58b40c0d",
          "display": "Alfred Rémy"
        },
        "requester": {
          "reference": "urn:uuid:c7e0a33b-35ce-452c-aa8e-87020a02ec67"
        }
      }
    },
    {
      "fullUrl": "urn:uuid:c7e0a33b-35ce-452c-aa8e-87020a02ec67",
      "resource": {
        "resourceType": "PractitionerRole",
        "id": "c7e0a33b-35ce-452c-aa8e-87020a02ec67",
        "meta": {
          "profile": [
            "http://hl7.eu/fhir/base/StructureDefinition/practitionerRole-eu"
          ]
        },
        "text": {
          "status": "generated",
          "div": "<div xmlns=\"http://www.w3.org/1999/xhtml\">Provider Role Id: c7e0a33b-35ce-452c-aa8e-87020a02ec67</div>"
        },
        "organization": {
          "reference": "urn:uuid:db3de645-e679-4655-baf7-8c83906ac987"
        }
      }
    },
    {
      "fullUrl": "urn:uuid:db3de645-e679-4655-baf7-8c83906ac987",
      "resource": {
        "resourceType": "Organization",
        "id": "db3de645-e679-4655-baf7-8c83906ac987",
        "meta": {
          "profile": [
            "http://hl7.eu/fhir/base/StructureDefinition/organization-eu"
          ]
        },
        "identifier": [
          {
            "assigner": {
              "display": "HL7 Europe"
            },
            "system": "urn:oid:2.16.840.1.113883.2.51.999",
            "value": "c685399c-5452-4269-b61e-98c604e4f5ad"
          }
        ],
        "address": [
          {
            "city": "Paris",
            "postalCode": "75005",
            "country": "France"
          }
        ],
        "text": {
          "status": "generated",
          "div": "<div xmlns=\"http://www.w3.org/1999/xhtml\">Provider Organization: Maison des parents Irène Joliot-Curie</div>"
        },
        "name": "Maison des parents Irène Joliot-Curie"
      }
    },
    {
      "fullUrl": "urn:uuid:5c730cee-5cd8-490a-8c20-ef156ac84bd2",
      "resource": {
        "resourceType": "Specimen",
        "id": "5c730cee-5cd8-490a-8c20-ef156ac84bd2",
        "meta": {
          "profile": [
            "http://hl7.eu/fhir/laboratory/StructureDefinition/Specimen-eu-lab"
          ]
        },
        "collection": {
          "collectedDateTime": "2019-01-17"
        },
        "text": {
          "status": "generated",
          "div": "<div xmlns=\"http://www.w3.org/1999/xhtml\"><table class=\"hl7__eu__lab__report\"><tr><th>Specimen</th><th>Collection Date</th></tr><tr><td>Whole blood specimen (specimen)</td><td><span class=\"nb\">17-Jan-2019</span></td></tr></table></div>"
        },
        "type": {
          "coding": [
            {
              "code": "258580003",
              "system": "http://snomed.info/sct",
              "display": "Whole blood specimen (specimen)"
            }
          ]
        }
      }
    },
    {
      "fullUrl": "urn:uuid:253de900-6297-4a38-8751-b0740721f966",
      "resource": {
        "resourceType": "Observation",
        "id": "253de900-6297-4a38-8751-b0740721f966",
        "meta": {
          "profile": [
            "http://hl7.eu/fhir/laboratory/StructureDefinition/Observation-resultslab-eu-lab"
          ]
        },
        "performer": [
          {
            "display": "The Central European Lab"
          }
        ],
        "category": [
          {
            "coding": [
              {
                "system": "http://terminology.hl7.org/CodeSystem/observation-category",
                "code": "laboratory"
              }
            ]
          }
        ],
        "code": {
          "coding": [
            {
              "code": "4548-4",
              "system": "http://loinc.org",
              "display": "Hemoglobin A1c/Hemoglobin.total in Blood"
            }
          ],
          "text": "Hemoglobin A1c/Hemoglobin.total in Blood"
        },
        "valueQuantity": {
          "system": "http://unitsofmeasure.org",
          "value": 6.2,
          "unit": "%",
          "code": "%"
        },
        "referenceRange": [
          {
            "low": {
              "value": 4.5,
              "code": "%",
              "system": "http://unitsofmeasure.org"
            }
          },
          {
            "high": {
              "value": 6.4,
              "code": "%",
              "system": "http://unitsofmeasure.org"
            }
          }
        ],
        "text": {
          "status": "generated",
          "div": "<div xmlns=\"http://www.w3.org/1999/xhtml\"><table class=\"hl7__eu__lab__report\"><tr><th>Test</th><th>17-Jan-2019</th><th>Reference&#xA0;Range</th><th>Unit</th></tr><tr><td>Hemoglobin A1c/Hemoglobin.total in Blood</td><td>6.2</td><td>4.5 - 6.4</td><td></td><td>%</td></tr></table></div>"
        },
        "status": "final",
        "subject": {
          "reference": "urn:uuid:584d5f98-7aa9-40b7-8abf-e5dc58b40c0d",
          "display": "Alfred Rémy"
        },
        "effectiveDateTime": "2019-01-17T06:54:36Z",
        "specimen": {
          "reference": "urn:uuid:5c730cee-5cd8-490a-8c20-ef156ac84bd2"
        }
      }
    },
    {
      "fullUrl": "urn:uuid:5575f016-52ab-4d70-9cf5-49ce4da9d9dd",
      "resource": {
        "resourceType": "Observation",
        "id": "5575f016-52ab-4d70-9cf5-49ce4da9d9dd",
        "meta": {
          "profile": [
            "http://hl7.eu/fhir/laboratory/StructureDefinition/Observation-resultslab-eu-lab"
          ]
        },
        "performer": [
          {
            "display": "The Central European Lab"
          }
        ],
        "category": [
          {
            "coding": [
              {
                "system": "http://terminology.hl7.org/CodeSystem/observation-category",
                "code": "laboratory"
              }
            ]
          }
        ],
        "code": {
          "coding": [
            {
              "code": "2339-0",
              "system": "http://loinc.org",
              "display": "Glucose [Mass/volume] in Blood"
            }
          ],
          "text": "Glucose [Mass/volume] in Blood"
        },
        "valueQuantity": {
          "system": "http://unitsofmeasure.org",
          "value": 91.3,
          "unit": "mg/dL",
          "code": "mg/dL"
        },
        "referenceRange": [
          {
            "low": {
              "value": 70,
              "code": "mg/dL",
              "system": "http://unitsofmeasure.org"
            }
          },
          {
            "high": {
              "value": 99,
              "code": "mg/dL",
              "system": "http://unitsofmeasure.org"
            }
          }
        ],
        "text": {
          "status": "generated",
          "div": "<div xmlns=\"http://www.w3.org/1999/xhtml\"><table class=\"hl7__eu__lab__report\"><tr><th>Test</th><th>17-Jan-2019</th><th>Reference&#xA0;Range</th><th>Unit</th></tr><tr><td>Glucose [Mass/volume] in Blood</td><td>91.3</td><td>70 - 99</td><td></td><td>mg/dL</td></tr></table></div>"
        },
        "status": "final",
        "subject": {
          "reference": "urn:uuid:584d5f98-7aa9-40b7-8abf-e5dc58b40c0d",
          "display": "Alfred Rémy"
        },
        "effectiveDateTime": "2019-01-17T06:54:36Z",
        "specimen": {
          "reference": "urn:uuid:5c730cee-5cd8-490a-8c20-ef156ac84bd2"
        }
      }
    },
    {
      "fullUrl": "urn:uuid:34e72604-f76f-4ea3-9973-def828c596dd",
      "resource": {
        "resourceType": "Observation",
        "id": "34e72604-f76f-4ea3-9973-def828c596dd",
        "meta": {
          "profile": [
            "http://hl7.eu/fhir/laboratory/StructureDefinition/Observation-resultslab-eu-lab"
          ]
        },
        "performer": [
          {
            "display": "The Central European Lab"
          }
        ],
        "category": [
          {
            "coding": [
              {
                "system": "http://terminology.hl7.org/CodeSystem/observation-category",
                "code": "laboratory"
              }
            ]
          }
        ],
        "code": {
          "coding": [
            {
              "code": "6299-2",
              "system": "http://loinc.org",
              "display": "Urea nitrogen [Mass/volume] in Blood"
            }
          ],
          "text": "Urea nitrogen [Mass/volume] in Blood"
        },
        "valueQuantity": {
          "system": "http://unitsofmeasure.org",
          "value": 11.3,
          "unit": "mg/dL",
          "code": "mg/dL"
        },
        "referenceRange": [
          {
            "low": {
              "value": 7,
              "code": "mg/dL",
              "system": "http://unitsofmeasure.org"
            }
          },
          {
            "high": {
              "value": 20,
              "code": "mg/dL",
              "system": "http://unitsofmeasure.org"
            }
          }
        ],
        "text": {
          "status": "generated",
          "div": "<div xmlns=\"http://www.w3.org/1999/xhtml\"><table class=\"hl7__eu__lab__report\"><tr><th>Test</th><th>17-Jan-2019</th><th>Reference&#xA0;Range</th><th>Unit</th></tr><tr><td>Urea nitrogen [Mass/volume] in Blood</td><td>11.3</td><td>7 - 20</td><td></td><td>mg/dL</td></tr></table></div>"
        },
        "status": "final",
        "subject": {
          "reference": "urn:uuid:584d5f98-7aa9-40b7-8abf-e5dc58b40c0d",
          "display": "Alfred Rémy"
        },
        "effectiveDateTime": "2019-01-17T06:54:36Z",
        "specimen": {
          "reference": "urn:uuid:5c730cee-5cd8-490a-8c20-ef156ac84bd2"
        }
      }
    },
    {
      "fullUrl": "urn:uuid:a5faf875-fac7-43c0-9a9d-1cbc8e7c83b8",
      "resource": {
        "resourceType": "Observation",
        "id": "a5faf875-fac7-43c0-9a9d-1cbc8e7c83b8",
        "meta": {
          "profile": [
            "http://hl7.eu/fhir/laboratory/StructureDefinition/Observation-resultslab-eu-lab"
          ]
        },
        "performer": [
          {
            "display": "The Central European Lab"
          }
        ],
        "category": [
          {
            "coding": [
              {
                "system": "http://terminology.hl7.org/CodeSystem/observation-category",
                "code": "laboratory"
              }
            ]
          }
        ],
        "code": {
          "coding": [
            {
              "code": "38483-4",
              "system": "http://loinc.org",
              "display": "Creatinine [Mass/volume] in Blood"
            }
          ],
          "text": "Creatinine [Mass/volume] in Blood"
        },
        "valueQuantity": {
          "system": "http://unitsofmeasure.org",
          "value": 1.1,
          "unit": "mg/dL",
          "code": "mg/dL"
        },
        "referenceRange": [
          {
            "low": {
              "value": 0.7,
              "code": "mg/dL",
              "system": "http://unitsofmeasure.org"
            }
          },
          {
            "high": {
              "value": 1.3,
              "code": "mg/dL",
              "system": "http://unitsofmeasure.org"
            }
          }
        ],
        "text": {
          "status": "generated",
          "div": "<div xmlns=\"http://www.w3.org/1999/xhtml\"><table class=\"hl7__eu__lab__report\"><tr><th>Test</th><th>17-Jan-2019</th><th>Reference&#xA0;Range</th><th>Unit</th></tr><tr><td>Creatinine [Mass/volume] in Blood</td><td>1.1</td><td>0.7 - 1.3</td><td></td><td>mg/dL</td></tr></table></div>"
        },
        "status": "final",
        "subject": {
          "reference": "urn:uuid:584d5f98-7aa9-40b7-8abf-e5dc58b40c0d",
          "display": "Alfred Rémy"
        },
        "effectiveDateTime": "2019-01-17T06:54:36Z",
        "specimen": {
          "reference": "urn:uuid:5c730cee-5cd8-490a-8c20-ef156ac84bd2"
        }
      }
    },
    {
      "fullUrl": "urn:uuid:232612d0-b8ff-406b-accf-b824842b731a",
      "resource": {
        "resourceType": "Observation",
        "id": "232612d0-b8ff-406b-accf-b824842b731a",
        "meta": {
          "profile": [
            "http://hl7.eu/fhir/laboratory/StructureDefinition/Observation-resultslab-eu-lab"
          ]
        },
        "performer": [
          {
            "display": "The Central European Lab"
          }
        ],
        "category": [
          {
            "coding": [
              {
                "system": "http://terminology.hl7.org/CodeSystem/observation-category",
                "code": "laboratory"
              }
            ]
          }
        ],
        "code": {
          "coding": [
            {
              "code": "49765-1",
              "system": "http://loinc.org",
              "display": "Calcium [Mass/volume] in Blood"
            }
          ],
          "text": "Calcium [Mass/volume] in Blood"
        },
        "valueQuantity": {
          "system": "http://unitsofmeasure.org",
          "value": 9.9,
          "unit": "mg/dL",
          "code": "mg/dL"
        },
        "referenceRange": [
          {
            "low": {
              "value": 8.5,
              "code": "mg/dL",
              "system": "http://unitsofmeasure.org"
            }
          },
          {
            "high": {
              "value": 10.5,
              "code": "mg/dL",
              "system": "http://unitsofmeasure.org"
            }
          }
        ],
        "text": {
          "status": "generated",
          "div": "<div xmlns=\"http://www.w3.org/1999/xhtml\"><table class=\"hl7__eu__lab__report\"><tr><th>Test</th><th>17-Jan-2019</th><th>Reference&#xA0;Range</th><th>Unit</th></tr><tr><td>Calcium [Mass/volume] in Blood</td><td>9.9</td><td>8.5 - 10.5</td><td></td><td>mg/dL</td></tr></table></div>"
        },
        "status": "final",
        "subject": {
          "reference": "urn:uuid:584d5f98-7aa9-40b7-8abf-e5dc58b40c0d",
          "display": "Alfred Rémy"
        },
        "effectiveDateTime": "2019-01-17T06:54:36Z",
        "specimen": {
          "reference": "urn:uuid:5c730cee-5cd8-490a-8c20-ef156ac84bd2"
        }
      }
    },
    {
      "fullUrl": "urn:uuid:ccfc4ddd-3b34-4e36-9814-3592d2b5bdcc",
      "resource": {
        "resourceType": "Observation",
        "id": "ccfc4ddd-3b34-4e36-9814-3592d2b5bdcc",
        "meta": {
          "profile": [
            "http://hl7.eu/fhir/laboratory/StructureDefinition/Observation-resultslab-eu-lab"
          ]
        },
        "performer": [
          {
            "display": "The Central European Lab"
          }
        ],
        "category": [
          {
            "coding": [
              {
                "system": "http://terminology.hl7.org/CodeSystem/observation-category",
                "code": "laboratory"
              }
            ]
          }
        ],
        "code": {
          "coding": [
            {
              "code": "2947-0",
              "system": "http://loinc.org",
              "display": "Sodium [Moles/volume] in Blood"
            }
          ],
          "text": "Sodium [Moles/volume] in Blood"
        },
        "valueQuantity": {
          "system": "http://unitsofmeasure.org",
          "value": 142.8,
          "unit": "mmol/L",
          "code": "mmol/L"
        },
        "referenceRange": [
          {
            "low": {
              "value": 135,
              "code": "mmol/L",
              "system": "http://unitsofmeasure.org"
            }
          },
          {
            "high": {
              "value": 145,
              "code": "mmol/L",
              "system": "http://unitsofmeasure.org"
            }
          }
        ],
        "text": {
          "status": "generated",
          "div": "<div xmlns=\"http://www.w3.org/1999/xhtml\"><table class=\"hl7__eu__lab__report\"><tr><th>Test</th><th>17-Jan-2019</th><th>Reference&#xA0;Range</th><th>Unit</th></tr><tr><td>Sodium [Moles/volume] in Blood</td><td>142.8</td><td>135 - 145</td><td></td><td>mmol/L</td></tr></table></div>"
        },
        "status": "final",
        "subject": {
          "reference": "urn:uuid:584d5f98-7aa9-40b7-8abf-e5dc58b40c0d",
          "display": "Alfred Rémy"
        },
        "effectiveDateTime": "2019-01-17T06:54:36Z",
        "specimen": {
          "reference": "urn:uuid:5c730cee-5cd8-490a-8c20-ef156ac84bd2"
        }
      }
    },
    {
      "fullUrl": "urn:uuid:74d926a8-e576-4471-9674-6442cc4e0c78",
      "resource": {
        "resourceType": "Observation",
        "id": "74d926a8-e576-4471-9674-6442cc4e0c78",
        "meta": {
          "profile": [
            "http://hl7.eu/fhir/laboratory/StructureDefinition/Observation-resultslab-eu-lab"
          ]
        },
        "performer": [
          {
            "display": "The Central European Lab"
          }
        ],
        "category": [
          {
            "coding": [
              {
                "system": "http://terminology.hl7.org/CodeSystem/observation-category",
                "code": "laboratory"
              }
            ]
          }
        ],
        "code": {
          "coding": [
            {
              "code": "6298-4",
              "system": "http://loinc.org",
              "display": "Potassium [Moles/volume] in Blood"
            }
          ],
          "text": "Potassium [Moles/volume] in Blood"
        },
        "valueQuantity": {
          "system": "http://unitsofmeasure.org",
          "value": 4.1,
          "unit": "mmol/L",
          "code": "mmol/L"
        },
        "referenceRange": [
          {
            "low": {
              "value": 3.5,
              "code": "mmol/L",
              "system": "http://unitsofmeasure.org"
            }
          },
          {
            "high": {
              "value": 5.3,
              "code": "mmol/L",
              "system": "http://unitsofmeasure.org"
            }
          }
        ],
        "text": {
          "status": "generated",
          "div": "<div xmlns=\"http://www.w3.org/1999/xhtml\"><table class=\"hl7__eu__lab__report\"><tr><th>Test</th><th>17-Jan-2019</th><th>Reference&#xA0;Range</th><th>Unit</th></tr><tr><td>Potassium [Moles/volume] in Blood</td><td>4.1</td><td>3.5 - 5.3</td><td></td><td>mmol/L</td></tr></table></div>"
        },
        "status": "final",
        "subject": {
          "reference": "urn:uuid:584d5f98-7aa9-40b7-8abf-e5dc58b40c0d",
          "display": "Alfred Rémy"
        },
        "effectiveDateTime": "2019-01-17T06:54:36Z",
        "specimen": {
          "reference": "urn:uuid:5c730cee-5cd8-490a-8c20-ef156ac84bd2"
        }
      }
    },
    {
      "fullUrl": "urn:uuid:cdf9d554-ef33-4db0-8c6d-4ac7979c1bcf",
      "resource": {
        "resourceType": "Observation",
        "id": "cdf9d554-ef33-4db0-8c6d-4ac7979c1bcf",
        "meta": {
          "profile": [
            "http://hl7.eu/fhir/laboratory/StructureDefinition/Observation-resultslab-eu-lab"
          ]
        },
        "performer": [
          {
            "display": "The Central European Lab"
          }
        ],
        "category": [
          {
            "coding": [
              {
                "system": "http://terminology.hl7.org/CodeSystem/observation-category",
                "code": "laboratory"
              }
            ]
          }
        ],
        "code": {
          "coding": [
            {
              "code": "2069-3",
              "system": "http://loinc.org",
              "display": "Chloride [Moles/volume] in Blood"
            }
          ],
          "text": "Chloride [Moles/volume] in Blood"
        },
        "valueQuantity": {
          "system": "http://unitsofmeasure.org",
          "value": 101.9,
          "unit": "mmol/L",
          "code": "mmol/L"
        },
        "referenceRange": [
          {
            "low": {
              "value": 98,
              "code": "mmol/L",
              "system": "http://unitsofmeasure.org"
            }
          },
          {
            "high": {
              "value": 110,
              "code": "mmol/L",
              "system": "http://unitsofmeasure.org"
            }
          }
        ],
        "text": {
          "status": "generated",
          "div": "<div xmlns=\"http://www.w3.org/1999/xhtml\"><table class=\"hl7__eu__lab__report\"><tr><th>Test</th><th>17-Jan-2019</th><th>Reference&#xA0;Range</th><th>Unit</th></tr><tr><td>Chloride [Moles/volume] in Blood</td><td>101.9</td><td>98 - 110</td><td></td><td>mmol/L</td></tr></table></div>"
        },
        "status": "final",
        "subject": {
          "reference": "urn:uuid:584d5f98-7aa9-40b7-8abf-e5dc58b40c0d",
          "display": "Alfred Rémy"
        },
        "effectiveDateTime": "2019-01-17T06:54:36Z",
        "specimen": {
          "reference": "urn:uuid:5c730cee-5cd8-490a-8c20-ef156ac84bd2"
        }
      }
    },
    {
      "fullUrl": "urn:uuid:6d865dca-3985-479a-a6e5-694417903c74",
      "resource": {
        "resourceType": "Observation",
        "id": "6d865dca-3985-479a-a6e5-694417903c74",
        "meta": {
          "profile": [
            "http://hl7.eu/fhir/laboratory/StructureDefinition/Observation-resultslab-eu-lab"
          ]
        },
        "performer": [
          {
            "display": "The Central European Lab"
          }
        ],
        "category": [
          {
            "coding": [
              {
                "system": "http://terminology.hl7.org/CodeSystem/observation-category",
                "code": "laboratory"
              }
            ]
          }
        ],
        "code": {
          "coding": [
            {
              "code": "20565-8",
              "system": "http://loinc.org",
              "display": "Carbon dioxide, total [Moles/volume] in Blood"
            }
          ],
          "text": "Carbon dioxide, total [Moles/volume] in Blood"
        },
        "valueQuantity": {
          "system": "http://unitsofmeasure.org",
          "value": 21.5,
          "unit": "mmol/L",
          "code": "mmol/L"
        },
        "referenceRange": [
          {
            "low": {
              "value": 22,
              "code": "mmol/L",
              "system": "http://unitsofmeasure.org"
            }
          },
          {
            "high": {
              "value": 29,
              "code": "mmol/L",
              "system": "http://unitsofmeasure.org"
            }
          }
        ],
        "interpretation": [
          {
            "coding": [
              {
                "code": "L",
                "system": "http://terminology.hl7.org/CodeSystem/v3-ObservationInterpretation",
                "display": "Low"
              }
            ]
          }
        ],
        "text": {
          "status": "generated",
          "div": "<div xmlns=\"http://www.w3.org/1999/xhtml\"><table class=\"hl7__eu__lab__report\"><tr><th>Test</th><th>17-Jan-2019</th><th>Reference&#xA0;Range</th><th>Unit</th></tr><tr><td>Carbon dioxide, total [Moles/volume] in Blood</td><td>21.5</td><td>22 - 29</td><td>L</td><td>mmol/L</td></tr></table></div>"
        },
        "status": "final",
        "subject": {
          "reference": "urn:uuid:584d5f98-7aa9-40b7-8abf-e5dc58b40c0d",
          "display": "Alfred Rémy"
        },
        "effectiveDateTime": "2019-01-17T06:54:36Z",
        "specimen": {
          "reference": "urn:uuid:5c730cee-5cd8-490a-8c20-ef156ac84bd2"
        }
      }
    },
    {
      "fullUrl": "urn:uuid:1cafb869-5e74-467f-84d5-3365e5e4968a",
      "resource": {
        "resourceType": "Device",
        "id": "1cafb869-5e74-467f-84d5-3365e5e4968a",
        "deviceName": [
          {
            "name": "SYNDERAI Synthetic Generator",
            "type": "manufacturer-name"
          }
        ],
        "version": [
          {
            "value": "5.0"
          }
        ],
        "text": {
          "status": "generated",
          "div": "<div xmlns=\"http://www.w3.org/1999/xhtml\">SYNDERAI Synthetic Generator v5.0</div>"
        },
        "status": "active\"",
        "distinctIdentifier": "synderai-generator-50",
        "manufacturer": "SYNDERAI Project"
      }
    },
    {
      "fullUrl": "urn:uuid:d1f9b671-f57f-487d-8a9a-142095c390d5",
      "resource": {
        "resourceType": "Provenance",
        "id": "d1f9b671-f57f-487d-8a9a-142095c390d5",
        "target": [
          {
            "reference": "Patient/584d5f98-7aa9-40b7-8abf-e5dc58b40c0d"
          },
          {
            "reference": "Bundle/4ad59ae4-5159-4409-99ef-7098117e6aeb"
          },
          {
            "reference": "Composition/0a310fb8-f30a-41df-99cd-c40b6a5f56e1"
          },
          {
            "reference": "PractitionerRole/c222b173-05bc-45a0-98e6-c981cfdb8f42"
          },
          {
            "reference": "Practitioner/807235f1-38c9-4639-99a7-0826b64c2062"
          },
          {
            "reference": "PractitionerRole/c7e0a33b-35ce-452c-aa8e-87020a02ec67"
          },
          {
            "reference": "Organization/db3de645-e679-4655-baf7-8c83906ac987"
          }
        ],
        "activity": {
          "text": "Synthetic Example Data Generation"
        },
        "policy": [
          "https://synderai.net/synderai-synthetic-data-policy"
        ],
        "agent": [
          {
            "type": {
              "text": "author"
            },
            "who": {
              "reference": "Device/1cafb869-5e74-467f-84d5-3365e5e4968a"
            }
          }
        ],
        "reason": [
          {
            "text": "Interoperability Testing and Training (non-clinical use)"
          }
        ],
        "text": {
          "status": "generated",
          "div": "<div xmlns=\"http://www.w3.org/1999/xhtml\">Provenance for SYNDERAI Synthetic Example Data Resource</div>"
        },
        "recorded": "2019-01-17T07:54:36Z"
      }
    },
    {
      "fullUrl": "urn:uuid:c222b173-05bc-45a0-98e6-c981cfdb8f42",
      "resource": {
        "resourceType": "PractitionerRole",
        "id": "c222b173-05bc-45a0-98e6-c981cfdb8f42",
        "meta": {
          "profile": [
            "http://hl7.eu/fhir/base/StructureDefinition/practitionerRole-eu"
          ]
        },
        "text": {
          "status": "generated",
          "div": "<div xmlns=\"http://www.w3.org/1999/xhtml\">Laboratory Role Id: c222b173-05bc-45a0-98e6-c981cfdb8f42</div>"
        },
        "practitioner": {
          "reference": "urn:uuid:807235f1-38c9-4639-99a7-0826b64c2062"
        }
      }
    },
    {
      "fullUrl": "urn:uuid:807235f1-38c9-4639-99a7-0826b64c2062",
      "resource": {
        "resourceType": "Practitioner",
        "id": "807235f1-38c9-4639-99a7-0826b64c2062",
        "meta": {
          "profile": [
            "http://hl7.eu/fhir/base/StructureDefinition/practitioner-eu"
          ]
        },
        "identifier": [
          {
            "assigner": {
              "display": "HL7 Europe"
            },
            "system": "urn:oid:2.16.840.1.113883.2.51.999",
            "value": "3c48e4c1-bf39-4144-9168-21aac823eae5"
          }
        ],
        "name": [
          {
            "prefix": [
              "dr"
            ],
            "given": [
              "Ex"
            ],
            "family": "Ample"
          }
        ],
        "address": [
          {
            "line": [
              "Laboratoire Central Européenne",
              "Boulevard du Jardin Botanique 32"
            ],
            "postalCode": "1000",
            "city": "Brussels",
            "country": "Belgium"
          }
        ],
        "text": {
          "status": "generated",
          "div": "<div xmlns=\"http://www.w3.org/1999/xhtml\">Laboratory: Laboratoire Central Européenne, 1000 Brussels, Belgium</div>"
        }
      }
    }
  ],
  "type": "document",
  "timestamp": "2019-01-17T07:54:36Z"
}
