{
  "resourceType": "Bundle",
  "id": "74da04c8-d66b-40c8-9282-0ce673336fa1",
  "meta": {
    "profile": [
      "http://hl7.eu/fhir/laboratory/StructureDefinition/Bundle-eu-lab"
    ]
  },
  "identifier": {
    "assigner": {
      "display": "HL7 Europe"
    },
    "system": "urn:oid:2.16.840.1.113883.2.51.999",
    "value": "bf5c938e-f56d-475b-970e-d91f35abf05b"
  },
  "entry": [
    {
      "fullUrl": "urn:uuid:dccd9f07-8d44-4edf-80e3-ba751bfcde93",
      "resource": {
        "resourceType": "Composition",
        "id": "dccd9f07-8d44-4edf-80e3-ba751bfcde93",
        "meta": {
          "profile": [
            "http://hl7.eu/fhir/laboratory/StructureDefinition/Composition-eu-lab"
          ]
        },
        "identifier": {
          "assigner": {
            "display": "HL7 Europe"
          },
          "system": "urn:oid:2.16.840.1.113883.2.51.999",
          "value": "f106d8c3-840c-4e93-9866-48738a123348"
        },
        "author": [
          {
            "reference": "urn:uuid:7ee166f2-5d72-44de-83e4-8da041a5b170"
          }
        ],
        "category": [
          {
            "coding": [
              {
                "code": "26436-6",
                "system": "http://loinc.org",
                "display": "Laboratory studies (set)"
              }
            ]
          }
        ],
        "type": {
          "coding": [
            {
              "code": "11502-2",
              "system": "http://loinc.org",
              "display": "Laboratory report"
            }
          ],
          "text": "Laboratory Report"
        },
        "section": [
          {
            "code": {
              "coding": [
                {
                  "code": "26436-6",
                  "system": "http://loinc.org",
                  "display": "Laboratory studies (set)"
                }
              ],
              "text": "Laboratory studies"
            },
            "section": [
              {
                "code": {
                  "coding": [
                    {
                      "code": "$18719-5",
                      "system": "http://loinc.org",
                      "display": "Chemistry studies (set)"
                    }
                  ],
                  "text": "Chemistry"
                },
                "entry": [
                  {
                    "reference": "urn:uuid:f00bc2bb-9c62-4749-af42-84cfbd8364ea"
                  },
                  {
                    "reference": "urn:uuid:7b8b767e-fd8d-4019-b687-b132d5a1ea3f"
                  },
                  {
                    "reference": "urn:uuid:e623ec24-a02c-40bf-89bf-d2581ef3cfbe"
                  },
                  {
                    "reference": "urn:uuid:ecd1300a-3a21-4ffc-8a37-39e4ddb4a8f8"
                  },
                  {
                    "reference": "urn:uuid:e3cb7a31-e793-435c-a6ca-97a0ef55fe74"
                  },
                  {
                    "reference": "urn:uuid:1f216ffb-72a1-4ae3-9aa9-7cdf56c734b5"
                  },
                  {
                    "reference": "urn:uuid:a5eeba06-6e6e-4776-b00b-69520e2a1a19"
                  },
                  {
                    "reference": "urn:uuid:f01c53c1-5302-44ca-8e4b-aa0651f8b1b6"
                  },
                  {
                    "reference": "urn:uuid:8fee9c7b-0f27-43d8-9f40-c6300895b0be"
                  }
                ],
                "text": {
                  "status": "generated",
                  "div": "<div xmlns=\"http://www.w3.org/1999/xhtml\"><h3>Chemistry</h3><table class=\"hl7__eu__lab__report\"><thead><tr><th>Test</th><th>29-APR-2024</th><th>Reference&#xA0;Range</th><th>Unit</th></tr></thead><tbody><tr><td>Hemoglobin A1c/Hemoglobin.total in Blood</td><td>5.9</td><td>4 - 6</td><td>%</td></tr><tr><td>Glucose [Mass/volume] in Blood</td><td>97.8</td><td>70 - 140</td><td>mg/dL</td></tr><tr><td>Urea nitrogen [Mass/volume] in Blood</td><td>12.3</td><td>7 - 20</td><td>mg/dL</td></tr><tr><td>Creatinine [Mass/volume] in Blood</td><td><strong>0.8 L</strong></td><td>0.9 - 1.3</td><td>mg/dL</td></tr><tr><td>Calcium [Mass/volume] in Blood</td><td>8.8</td><td>8.5 - 10.5</td><td>mg/dL</td></tr><tr><td>Sodium [Moles/volume] in Blood</td><td>136.1</td><td>135 - 145</td><td>mmol/L</td></tr><tr><td>Potassium [Moles/volume] in Blood</td><td>3.9</td><td>3.5 - 5</td><td>mmol/L</td></tr><tr><td>Chloride [Moles/volume] in Blood</td><td><strong>110.4 H</strong></td><td>98 - 110</td><td>mmol/L</td></tr><tr><td>Carbon dioxide, total [Moles/volume] in Blood</td><td>27.2</td><td>22 - 32</td><td>mmol/L</td></tr></tbody></table></div>"
                },
                "title": "Chemistry"
              }
            ],
            "title": "Laboratory Report"
          },
          {
            "text": {
              "status": "generated",
              "div": "<div xmlns=\"http://www.w3.org/1999/xhtml\"><h3>Annotation</h3><table class=\"hl7__eu__lab__report\"><tr><th>Conclusion and Recommendations based on this report and previous findings known to us</th></tr><tr><td>Laboratory results are largely within normal limits. HbA1c and glucose indicate good glycemic control. Creatinine is slightly below the reference range but not clinically significant. Chloride is marginally elevated, which may reflect mild electrolyte imbalance but is not alarming in isolation. No evidence of renal dysfunction or significant metabolic disturbance. Clinical correlation recommended.</td></tr></table></div>"
            },
            "code": {
              "coding": [
                {
                  "system": "http://loinc.org",
                  "code": "48767-8",
                  "display": "Annotation comment"
                }
              ]
            },
            "title": "Annotation comment"
          }
        ],
        "status": "final",
        "subject": {
          "reference": "urn:uuid:3f5f265d-d5b1-4b1a-8627-cc0343bd89e1",
          "display": "Alessio Fanucci"
        },
        "date": "2024-04-29T09:49:06Z",
        "title": "Laboratory Report",
        "confidentiality": "N"
      }
    },
    {
      "fullUrl": "urn:uuid:83559c83-7fdd-4a7f-ac2d-010dd3e82668",
      "resource": {
        "resourceType": "DiagnosticReport",
        "id": "83559c83-7fdd-4a7f-ac2d-010dd3e82668",
        "meta": {
          "profile": [
            "http://hl7.eu/fhir/laboratory/StructureDefinition/DiagnosticReport-eu-lab"
          ]
        },
        "identifier": [
          {
            "assigner": {
              "display": "HL7 Europe"
            },
            "system": "urn:oid:2.16.840.1.113883.2.51.999",
            "value": "da5d0758-f02c-4d31-9599-8a5a89d964b8"
          }
        ],
        "extension": [
          {
            "url": "http://hl7.org/fhir/5.0/StructureDefinition/extension-DiagnosticReport.composition",
            "valueReference": {
              "reference": "urn:uuid:f106d8c3-840c-4e93-9866-48738a123348"
            }
          }
        ],
        "category": [
          {
            "coding": [
              {
                "code": "26436-6",
                "system": "http://loinc.org",
                "display": "Laboratory studies (set)"
              }
            ]
          }
        ],
        "specimen": [
          {
            "reference": "urn:uuid:e9bc5835-cbdb-4ed4-b99a-7b7a0a451eda"
          }
        ],
        "result": [
          {
            "reference": "urn:uuid:f00bc2bb-9c62-4749-af42-84cfbd8364ea"
          },
          {
            "reference": "urn:uuid:7b8b767e-fd8d-4019-b687-b132d5a1ea3f"
          },
          {
            "reference": "urn:uuid:e623ec24-a02c-40bf-89bf-d2581ef3cfbe"
          },
          {
            "reference": "urn:uuid:ecd1300a-3a21-4ffc-8a37-39e4ddb4a8f8"
          },
          {
            "reference": "urn:uuid:e3cb7a31-e793-435c-a6ca-97a0ef55fe74"
          },
          {
            "reference": "urn:uuid:1f216ffb-72a1-4ae3-9aa9-7cdf56c734b5"
          },
          {
            "reference": "urn:uuid:a5eeba06-6e6e-4776-b00b-69520e2a1a19"
          },
          {
            "reference": "urn:uuid:f01c53c1-5302-44ca-8e4b-aa0651f8b1b6"
          },
          {
            "reference": "urn:uuid:8fee9c7b-0f27-43d8-9f40-c6300895b0be"
          }
        ],
        "status": "registered",
        "code": {
          "coding": [
            {
              "code": "11502-2",
              "system": "http://loinc.org",
              "display": "Laboratory report"
            }
          ]
        },
        "subject": {
          "reference": "urn:uuid:3f5f265d-d5b1-4b1a-8627-cc0343bd89e1",
          "display": "Alessio Fanucci"
        }
      }
    },
    {
      "fullUrl": "urn:uuid:3f5f265d-d5b1-4b1a-8627-cc0343bd89e1",
      "resource": {
        "resourceType": "Patient",
        "id": "3f5f265d-d5b1-4b1a-8627-cc0343bd89e1",
        "meta": {
          "security": [
            {
              "system": "http://terminology.hl7.org/CodeSystem/v3-ActReason",
              "code": "HTEST"
            },
            {
              "system": "http://terminology.hl7.org/CodeSystem/v3-ActReason",
              "code": "TRAIN"
            }
          ],
          "tag": [
            {
              "system": "https://synderai.net/fhir/CodeSystem/tags",
              "code": "synthetic",
              "display": "SYNDERAI Synthetic data"
            }
          ],
          "profile": [
            "http://hl7.eu/fhir/base/StructureDefinition/patient-eu-core"
          ]
        },
        "identifier": [
          {
            "type": {
              "coding": [
                {
                  "code": "PT",
                  "system": "http://terminology.hl7.org/CodeSystem/v2-0203"
                }
              ]
            },
            "system": "http://ec.europa.eu/identifier/eci",
            "value": "4754-874768-3"
          },
          {
            "type": {
              "coding": [
                {
                  "code": "MR",
                  "system": "http://terminology.hl7.org/CodeSystem/v2-0203"
                }
              ]
            },
            "system": "http://local.setting.eu/identifier",
            "value": "4b888823-bdd8-59a3-b785-e7ba28e6a7b5"
          }
        ],
        "name": [
          {
            "family": "Fanucci"
          },
          {
            "given": [
              "Alessio"
            ]
          },
          {
            "text": "Alessio Fanucci"
          }
        ],
        "address": [
          {
            "line": [
              "Incrocio Combi, 822"
            ],
            "use": "home",
            "type": "physical",
            "postalCode": "33015",
            "city": "Moggio Udinese",
            "country": "Italy"
          }
        ],
        "telecom": [
          {
            "system": "phone",
            "value": "0125684636"
          }
        ],
        "extension": [
          {
            "url": "http://hl7.org/fhir/StructureDefinition/patient-nationality",
            "valueCodeableConcept": {
              "coding": [
                {
                  "code": "IT",
                  "system": "http://hl7.org/fhir/ValueSet/country"
                }
              ]
            }
          }
        ],
        "text": {
          "status": "generated",
          "div": "<div xmlns=\"http://www.w3.org/1999/xhtml\"><table class=\"hl7__ips\"><tr><td>Alessio Fanucci</td><td>male</td><td>12-Sep-1964</td></tr></table></div>"
        },
        "gender": "male",
        "birthDate": "1964-09-12"
      }
    },
    {
      "fullUrl": "urn:uuid:ae2c8684-491e-44d4-a68f-709fab30b588",
      "resource": {
        "resourceType": "ServiceRequest",
        "id": "ae2c8684-491e-44d4-a68f-709fab30b588",
        "meta": {
          "profile": [
            "http://hl7.eu/fhir/laboratory/StructureDefinition/ServiceRequest-eu-lab"
          ]
        },
        "identifier": [
          {
            "system": "http://example.org",
            "value": "43d4ea99-44dd-4ba3-a7ca-2e61f532e4a0"
          }
        ],
        "specimen": [
          {
            "reference": "urn:uuid:e9bc5835-cbdb-4ed4-b99a-7b7a0a451eda"
          }
        ],
        "reasonCode": [
          {
            "coding": [
              {
                "code": "15777000",
                "system": "http://snomed.info/sct",
                "display": "Prediabetes"
              }
            ]
          },
          {
            "coding": [
              {
                "code": "271737000",
                "system": "http://snomed.info/sct",
                "display": "Anemia"
              }
            ]
          },
          {
            "coding": [
              {
                "code": "40055000",
                "system": "http://snomed.info/sct",
                "display": "Chronic sinusitis"
              }
            ]
          }
        ],
        "status": "active",
        "intent": "order",
        "code": {
          "coding": [
            {
              "code": "108252007",
              "system": "http://snomed.info/sct",
              "display": "Laboratory procedure"
            }
          ]
        },
        "subject": {
          "reference": "urn:uuid:3f5f265d-d5b1-4b1a-8627-cc0343bd89e1",
          "display": "Alessio Fanucci"
        },
        "requester": {
          "reference": "urn:uuid:e01e1da7-4630-49e0-9fd7-b650a129d3dd"
        }
      }
    },
    {
      "fullUrl": "urn:uuid:e01e1da7-4630-49e0-9fd7-b650a129d3dd",
      "resource": {
        "resourceType": "PractitionerRole",
        "id": "e01e1da7-4630-49e0-9fd7-b650a129d3dd",
        "meta": {
          "profile": [
            "http://hl7.eu/fhir/base/StructureDefinition/practitionerRole-eu"
          ]
        },
        "text": {
          "status": "generated",
          "div": "<div xmlns=\"http://www.w3.org/1999/xhtml\">Provider Role Id: e01e1da7-4630-49e0-9fd7-b650a129d3dd</div>"
        },
        "organization": {
          "reference": "urn:uuid:8437f7e6-0724-4724-8ee1-73c23e32f3eb"
        }
      }
    },
    {
      "fullUrl": "urn:uuid:8437f7e6-0724-4724-8ee1-73c23e32f3eb",
      "resource": {
        "resourceType": "Organization",
        "id": "8437f7e6-0724-4724-8ee1-73c23e32f3eb",
        "meta": {
          "profile": [
            "http://hl7.eu/fhir/base/StructureDefinition/organization-eu"
          ]
        },
        "identifier": [
          {
            "assigner": {
              "display": "HL7 Europe"
            },
            "system": "urn:oid:2.16.840.1.113883.2.51.999",
            "value": "e678e6b4-6897-4be0-ab6e-084890a6cc5e"
          }
        ],
        "address": [
          {
            "city": "Artegna",
            "postalCode": "33011",
            "country": "Italy"
          }
        ],
        "text": {
          "status": "generated",
          "div": "<div xmlns=\"http://www.w3.org/1999/xhtml\">Provider Organization: Ambulatori</div>"
        },
        "name": "Ambulatori"
      }
    },
    {
      "fullUrl": "urn:uuid:e9bc5835-cbdb-4ed4-b99a-7b7a0a451eda",
      "resource": {
        "resourceType": "Specimen",
        "id": "e9bc5835-cbdb-4ed4-b99a-7b7a0a451eda",
        "meta": {
          "profile": [
            "http://hl7.eu/fhir/laboratory/StructureDefinition/Specimen-eu-lab"
          ]
        },
        "collection": {
          "collectedDateTime": "2024-04-29"
        },
        "text": {
          "status": "generated",
          "div": "<div xmlns=\"http://www.w3.org/1999/xhtml\"><table class=\"hl7__eu__lab__report\"><tr><th>Specimen</th><th>Collection Date</th></tr><tr><td>Whole blood specimen (specimen)</td><td><span class=\"nb\">29-Apr-2024</span></td></tr></table></div>"
        },
        "type": {
          "coding": [
            {
              "code": "258580003",
              "system": "http://snomed.info/sct",
              "display": "Whole blood specimen (specimen)"
            }
          ]
        }
      }
    },
    {
      "fullUrl": "urn:uuid:f00bc2bb-9c62-4749-af42-84cfbd8364ea",
      "resource": {
        "resourceType": "Observation",
        "id": "f00bc2bb-9c62-4749-af42-84cfbd8364ea",
        "meta": {
          "profile": [
            "http://hl7.eu/fhir/laboratory/StructureDefinition/Observation-resultslab-eu-lab"
          ]
        },
        "performer": [
          {
            "display": "The Central European Lab"
          }
        ],
        "category": [
          {
            "coding": [
              {
                "system": "http://terminology.hl7.org/CodeSystem/observation-category",
                "code": "laboratory"
              }
            ]
          }
        ],
        "code": {
          "coding": [
            {
              "code": "4548-4",
              "system": "http://loinc.org",
              "display": "Hemoglobin A1c/Hemoglobin.total in Blood"
            }
          ],
          "text": "Hemoglobin A1c/Hemoglobin.total in Blood"
        },
        "valueQuantity": {
          "system": "http://unitsofmeasure.org",
          "value": 5.9,
          "unit": "%",
          "code": "%"
        },
        "referenceRange": [
          {
            "low": {
              "value": 4,
              "code": "%",
              "system": "http://unitsofmeasure.org"
            }
          },
          {
            "high": {
              "value": 6,
              "code": "%",
              "system": "http://unitsofmeasure.org"
            }
          }
        ],
        "text": {
          "status": "generated",
          "div": "<div xmlns=\"http://www.w3.org/1999/xhtml\"><table class=\"hl7__eu__lab__report\"><tr><th>Test</th><th>29-Apr-2024</th><th>Reference&#xA0;Range</th><th>Unit</th></tr><tr><td>Hemoglobin A1c/Hemoglobin.total in Blood</td><td>5.9</td><td>4 - 6</td><td></td><td>%</td></tr></table></div>"
        },
        "status": "final",
        "subject": {
          "reference": "urn:uuid:3f5f265d-d5b1-4b1a-8627-cc0343bd89e1",
          "display": "Alessio Fanucci"
        },
        "effectiveDateTime": "2024-04-29T07:49:06Z",
        "specimen": {
          "reference": "urn:uuid:e9bc5835-cbdb-4ed4-b99a-7b7a0a451eda"
        }
      }
    },
    {
      "fullUrl": "urn:uuid:7b8b767e-fd8d-4019-b687-b132d5a1ea3f",
      "resource": {
        "resourceType": "Observation",
        "id": "7b8b767e-fd8d-4019-b687-b132d5a1ea3f",
        "meta": {
          "profile": [
            "http://hl7.eu/fhir/laboratory/StructureDefinition/Observation-resultslab-eu-lab"
          ]
        },
        "performer": [
          {
            "display": "The Central European Lab"
          }
        ],
        "category": [
          {
            "coding": [
              {
                "system": "http://terminology.hl7.org/CodeSystem/observation-category",
                "code": "laboratory"
              }
            ]
          }
        ],
        "code": {
          "coding": [
            {
              "code": "2339-0",
              "system": "http://loinc.org",
              "display": "Glucose [Mass/volume] in Blood"
            }
          ],
          "text": "Glucose [Mass/volume] in Blood"
        },
        "valueQuantity": {
          "system": "http://unitsofmeasure.org",
          "value": 97.8,
          "unit": "mg/dL",
          "code": "mg/dL"
        },
        "referenceRange": [
          {
            "low": {
              "value": 70,
              "code": "mg/dL",
              "system": "http://unitsofmeasure.org"
            }
          },
          {
            "high": {
              "value": 140,
              "code": "mg/dL",
              "system": "http://unitsofmeasure.org"
            }
          }
        ],
        "text": {
          "status": "generated",
          "div": "<div xmlns=\"http://www.w3.org/1999/xhtml\"><table class=\"hl7__eu__lab__report\"><tr><th>Test</th><th>29-Apr-2024</th><th>Reference&#xA0;Range</th><th>Unit</th></tr><tr><td>Glucose [Mass/volume] in Blood</td><td>97.8</td><td>70 - 140</td><td></td><td>mg/dL</td></tr></table></div>"
        },
        "status": "final",
        "subject": {
          "reference": "urn:uuid:3f5f265d-d5b1-4b1a-8627-cc0343bd89e1",
          "display": "Alessio Fanucci"
        },
        "effectiveDateTime": "2024-04-29T07:49:06Z",
        "specimen": {
          "reference": "urn:uuid:e9bc5835-cbdb-4ed4-b99a-7b7a0a451eda"
        }
      }
    },
    {
      "fullUrl": "urn:uuid:e623ec24-a02c-40bf-89bf-d2581ef3cfbe",
      "resource": {
        "resourceType": "Observation",
        "id": "e623ec24-a02c-40bf-89bf-d2581ef3cfbe",
        "meta": {
          "profile": [
            "http://hl7.eu/fhir/laboratory/StructureDefinition/Observation-resultslab-eu-lab"
          ]
        },
        "performer": [
          {
            "display": "The Central European Lab"
          }
        ],
        "category": [
          {
            "coding": [
              {
                "system": "http://terminology.hl7.org/CodeSystem/observation-category",
                "code": "laboratory"
              }
            ]
          }
        ],
        "code": {
          "coding": [
            {
              "code": "6299-2",
              "system": "http://loinc.org",
              "display": "Urea nitrogen [Mass/volume] in Blood"
            }
          ],
          "text": "Urea nitrogen [Mass/volume] in Blood"
        },
        "valueQuantity": {
          "system": "http://unitsofmeasure.org",
          "value": 12.3,
          "unit": "mg/dL",
          "code": "mg/dL"
        },
        "referenceRange": [
          {
            "low": {
              "value": 7,
              "code": "mg/dL",
              "system": "http://unitsofmeasure.org"
            }
          },
          {
            "high": {
              "value": 20,
              "code": "mg/dL",
              "system": "http://unitsofmeasure.org"
            }
          }
        ],
        "text": {
          "status": "generated",
          "div": "<div xmlns=\"http://www.w3.org/1999/xhtml\"><table class=\"hl7__eu__lab__report\"><tr><th>Test</th><th>29-Apr-2024</th><th>Reference&#xA0;Range</th><th>Unit</th></tr><tr><td>Urea nitrogen [Mass/volume] in Blood</td><td>12.3</td><td>7 - 20</td><td></td><td>mg/dL</td></tr></table></div>"
        },
        "status": "final",
        "subject": {
          "reference": "urn:uuid:3f5f265d-d5b1-4b1a-8627-cc0343bd89e1",
          "display": "Alessio Fanucci"
        },
        "effectiveDateTime": "2024-04-29T07:49:06Z",
        "specimen": {
          "reference": "urn:uuid:e9bc5835-cbdb-4ed4-b99a-7b7a0a451eda"
        }
      }
    },
    {
      "fullUrl": "urn:uuid:ecd1300a-3a21-4ffc-8a37-39e4ddb4a8f8",
      "resource": {
        "resourceType": "Observation",
        "id": "ecd1300a-3a21-4ffc-8a37-39e4ddb4a8f8",
        "meta": {
          "profile": [
            "http://hl7.eu/fhir/laboratory/StructureDefinition/Observation-resultslab-eu-lab"
          ]
        },
        "performer": [
          {
            "display": "The Central European Lab"
          }
        ],
        "category": [
          {
            "coding": [
              {
                "system": "http://terminology.hl7.org/CodeSystem/observation-category",
                "code": "laboratory"
              }
            ]
          }
        ],
        "code": {
          "coding": [
            {
              "code": "38483-4",
              "system": "http://loinc.org",
              "display": "Creatinine [Mass/volume] in Blood"
            }
          ],
          "text": "Creatinine [Mass/volume] in Blood"
        },
        "valueQuantity": {
          "system": "http://unitsofmeasure.org",
          "value": 0.8,
          "unit": "mg/dL",
          "code": "mg/dL"
        },
        "referenceRange": [
          {
            "low": {
              "value": 0.9,
              "code": "mg/dL",
              "system": "http://unitsofmeasure.org"
            }
          },
          {
            "high": {
              "value": 1.3,
              "code": "mg/dL",
              "system": "http://unitsofmeasure.org"
            }
          }
        ],
        "interpretation": [
          {
            "coding": [
              {
                "code": "L",
                "system": "http://terminology.hl7.org/CodeSystem/v3-ObservationInterpretation",
                "display": "Low"
              }
            ]
          }
        ],
        "text": {
          "status": "generated",
          "div": "<div xmlns=\"http://www.w3.org/1999/xhtml\"><table class=\"hl7__eu__lab__report\"><tr><th>Test</th><th>29-Apr-2024</th><th>Reference&#xA0;Range</th><th>Unit</th></tr><tr><td>Creatinine [Mass/volume] in Blood</td><td>0.8</td><td>0.9 - 1.3</td><td>L</td><td>mg/dL</td></tr></table></div>"
        },
        "status": "final",
        "subject": {
          "reference": "urn:uuid:3f5f265d-d5b1-4b1a-8627-cc0343bd89e1",
          "display": "Alessio Fanucci"
        },
        "effectiveDateTime": "2024-04-29T07:49:06Z",
        "specimen": {
          "reference": "urn:uuid:e9bc5835-cbdb-4ed4-b99a-7b7a0a451eda"
        }
      }
    },
    {
      "fullUrl": "urn:uuid:e3cb7a31-e793-435c-a6ca-97a0ef55fe74",
      "resource": {
        "resourceType": "Observation",
        "id": "e3cb7a31-e793-435c-a6ca-97a0ef55fe74",
        "meta": {
          "profile": [
            "http://hl7.eu/fhir/laboratory/StructureDefinition/Observation-resultslab-eu-lab"
          ]
        },
        "performer": [
          {
            "display": "The Central European Lab"
          }
        ],
        "category": [
          {
            "coding": [
              {
                "system": "http://terminology.hl7.org/CodeSystem/observation-category",
                "code": "laboratory"
              }
            ]
          }
        ],
        "code": {
          "coding": [
            {
              "code": "49765-1",
              "system": "http://loinc.org",
              "display": "Calcium [Mass/volume] in Blood"
            }
          ],
          "text": "Calcium [Mass/volume] in Blood"
        },
        "valueQuantity": {
          "system": "http://unitsofmeasure.org",
          "value": 8.8,
          "unit": "mg/dL",
          "code": "mg/dL"
        },
        "referenceRange": [
          {
            "low": {
              "value": 8.5,
              "code": "mg/dL",
              "system": "http://unitsofmeasure.org"
            }
          },
          {
            "high": {
              "value": 10.5,
              "code": "mg/dL",
              "system": "http://unitsofmeasure.org"
            }
          }
        ],
        "text": {
          "status": "generated",
          "div": "<div xmlns=\"http://www.w3.org/1999/xhtml\"><table class=\"hl7__eu__lab__report\"><tr><th>Test</th><th>29-Apr-2024</th><th>Reference&#xA0;Range</th><th>Unit</th></tr><tr><td>Calcium [Mass/volume] in Blood</td><td>8.8</td><td>8.5 - 10.5</td><td></td><td>mg/dL</td></tr></table></div>"
        },
        "status": "final",
        "subject": {
          "reference": "urn:uuid:3f5f265d-d5b1-4b1a-8627-cc0343bd89e1",
          "display": "Alessio Fanucci"
        },
        "effectiveDateTime": "2024-04-29T07:49:06Z",
        "specimen": {
          "reference": "urn:uuid:e9bc5835-cbdb-4ed4-b99a-7b7a0a451eda"
        }
      }
    },
    {
      "fullUrl": "urn:uuid:1f216ffb-72a1-4ae3-9aa9-7cdf56c734b5",
      "resource": {
        "resourceType": "Observation",
        "id": "1f216ffb-72a1-4ae3-9aa9-7cdf56c734b5",
        "meta": {
          "profile": [
            "http://hl7.eu/fhir/laboratory/StructureDefinition/Observation-resultslab-eu-lab"
          ]
        },
        "performer": [
          {
            "display": "The Central European Lab"
          }
        ],
        "category": [
          {
            "coding": [
              {
                "system": "http://terminology.hl7.org/CodeSystem/observation-category",
                "code": "laboratory"
              }
            ]
          }
        ],
        "code": {
          "coding": [
            {
              "code": "2947-0",
              "system": "http://loinc.org",
              "display": "Sodium [Moles/volume] in Blood"
            }
          ],
          "text": "Sodium [Moles/volume] in Blood"
        },
        "valueQuantity": {
          "system": "http://unitsofmeasure.org",
          "value": 136.1,
          "unit": "mmol/L",
          "code": "mmol/L"
        },
        "referenceRange": [
          {
            "low": {
              "value": 135,
              "code": "mmol/L",
              "system": "http://unitsofmeasure.org"
            }
          },
          {
            "high": {
              "value": 145,
              "code": "mmol/L",
              "system": "http://unitsofmeasure.org"
            }
          }
        ],
        "text": {
          "status": "generated",
          "div": "<div xmlns=\"http://www.w3.org/1999/xhtml\"><table class=\"hl7__eu__lab__report\"><tr><th>Test</th><th>29-Apr-2024</th><th>Reference&#xA0;Range</th><th>Unit</th></tr><tr><td>Sodium [Moles/volume] in Blood</td><td>136.1</td><td>135 - 145</td><td></td><td>mmol/L</td></tr></table></div>"
        },
        "status": "final",
        "subject": {
          "reference": "urn:uuid:3f5f265d-d5b1-4b1a-8627-cc0343bd89e1",
          "display": "Alessio Fanucci"
        },
        "effectiveDateTime": "2024-04-29T07:49:06Z",
        "specimen": {
          "reference": "urn:uuid:e9bc5835-cbdb-4ed4-b99a-7b7a0a451eda"
        }
      }
    },
    {
      "fullUrl": "urn:uuid:a5eeba06-6e6e-4776-b00b-69520e2a1a19",
      "resource": {
        "resourceType": "Observation",
        "id": "a5eeba06-6e6e-4776-b00b-69520e2a1a19",
        "meta": {
          "profile": [
            "http://hl7.eu/fhir/laboratory/StructureDefinition/Observation-resultslab-eu-lab"
          ]
        },
        "performer": [
          {
            "display": "The Central European Lab"
          }
        ],
        "category": [
          {
            "coding": [
              {
                "system": "http://terminology.hl7.org/CodeSystem/observation-category",
                "code": "laboratory"
              }
            ]
          }
        ],
        "code": {
          "coding": [
            {
              "code": "6298-4",
              "system": "http://loinc.org",
              "display": "Potassium [Moles/volume] in Blood"
            }
          ],
          "text": "Potassium [Moles/volume] in Blood"
        },
        "valueQuantity": {
          "system": "http://unitsofmeasure.org",
          "value": 3.9,
          "unit": "mmol/L",
          "code": "mmol/L"
        },
        "referenceRange": [
          {
            "low": {
              "value": 3.5,
              "code": "mmol/L",
              "system": "http://unitsofmeasure.org"
            }
          },
          {
            "high": {
              "value": 5,
              "code": "mmol/L",
              "system": "http://unitsofmeasure.org"
            }
          }
        ],
        "text": {
          "status": "generated",
          "div": "<div xmlns=\"http://www.w3.org/1999/xhtml\"><table class=\"hl7__eu__lab__report\"><tr><th>Test</th><th>29-Apr-2024</th><th>Reference&#xA0;Range</th><th>Unit</th></tr><tr><td>Potassium [Moles/volume] in Blood</td><td>3.9</td><td>3.5 - 5</td><td></td><td>mmol/L</td></tr></table></div>"
        },
        "status": "final",
        "subject": {
          "reference": "urn:uuid:3f5f265d-d5b1-4b1a-8627-cc0343bd89e1",
          "display": "Alessio Fanucci"
        },
        "effectiveDateTime": "2024-04-29T07:49:06Z",
        "specimen": {
          "reference": "urn:uuid:e9bc5835-cbdb-4ed4-b99a-7b7a0a451eda"
        }
      }
    },
    {
      "fullUrl": "urn:uuid:f01c53c1-5302-44ca-8e4b-aa0651f8b1b6",
      "resource": {
        "resourceType": "Observation",
        "id": "f01c53c1-5302-44ca-8e4b-aa0651f8b1b6",
        "meta": {
          "profile": [
            "http://hl7.eu/fhir/laboratory/StructureDefinition/Observation-resultslab-eu-lab"
          ]
        },
        "performer": [
          {
            "display": "The Central European Lab"
          }
        ],
        "category": [
          {
            "coding": [
              {
                "system": "http://terminology.hl7.org/CodeSystem/observation-category",
                "code": "laboratory"
              }
            ]
          }
        ],
        "code": {
          "coding": [
            {
              "code": "2069-3",
              "system": "http://loinc.org",
              "display": "Chloride [Moles/volume] in Blood"
            }
          ],
          "text": "Chloride [Moles/volume] in Blood"
        },
        "valueQuantity": {
          "system": "http://unitsofmeasure.org",
          "value": 110.4,
          "unit": "mmol/L",
          "code": "mmol/L"
        },
        "referenceRange": [
          {
            "low": {
              "value": 98,
              "code": "mmol/L",
              "system": "http://unitsofmeasure.org"
            }
          },
          {
            "high": {
              "value": 110,
              "code": "mmol/L",
              "system": "http://unitsofmeasure.org"
            }
          }
        ],
        "interpretation": [
          {
            "coding": [
              {
                "code": "H",
                "system": "http://terminology.hl7.org/CodeSystem/v3-ObservationInterpretation",
                "display": "High"
              }
            ]
          }
        ],
        "text": {
          "status": "generated",
          "div": "<div xmlns=\"http://www.w3.org/1999/xhtml\"><table class=\"hl7__eu__lab__report\"><tr><th>Test</th><th>29-Apr-2024</th><th>Reference&#xA0;Range</th><th>Unit</th></tr><tr><td>Chloride [Moles/volume] in Blood</td><td>110.4</td><td>98 - 110</td><td>H</td><td>mmol/L</td></tr></table></div>"
        },
        "status": "final",
        "subject": {
          "reference": "urn:uuid:3f5f265d-d5b1-4b1a-8627-cc0343bd89e1",
          "display": "Alessio Fanucci"
        },
        "effectiveDateTime": "2024-04-29T07:49:06Z",
        "specimen": {
          "reference": "urn:uuid:e9bc5835-cbdb-4ed4-b99a-7b7a0a451eda"
        }
      }
    },
    {
      "fullUrl": "urn:uuid:8fee9c7b-0f27-43d8-9f40-c6300895b0be",
      "resource": {
        "resourceType": "Observation",
        "id": "8fee9c7b-0f27-43d8-9f40-c6300895b0be",
        "meta": {
          "profile": [
            "http://hl7.eu/fhir/laboratory/StructureDefinition/Observation-resultslab-eu-lab"
          ]
        },
        "performer": [
          {
            "display": "The Central European Lab"
          }
        ],
        "category": [
          {
            "coding": [
              {
                "system": "http://terminology.hl7.org/CodeSystem/observation-category",
                "code": "laboratory"
              }
            ]
          }
        ],
        "code": {
          "coding": [
            {
              "code": "20565-8",
              "system": "http://loinc.org",
              "display": "Carbon dioxide, total [Moles/volume] in Blood"
            }
          ],
          "text": "Carbon dioxide, total [Moles/volume] in Blood"
        },
        "valueQuantity": {
          "system": "http://unitsofmeasure.org",
          "value": 27.2,
          "unit": "mmol/L",
          "code": "mmol/L"
        },
        "referenceRange": [
          {
            "low": {
              "value": 22,
              "code": "mmol/L",
              "system": "http://unitsofmeasure.org"
            }
          },
          {
            "high": {
              "value": 32,
              "code": "mmol/L",
              "system": "http://unitsofmeasure.org"
            }
          }
        ],
        "text": {
          "status": "generated",
          "div": "<div xmlns=\"http://www.w3.org/1999/xhtml\"><table class=\"hl7__eu__lab__report\"><tr><th>Test</th><th>29-Apr-2024</th><th>Reference&#xA0;Range</th><th>Unit</th></tr><tr><td>Carbon dioxide, total [Moles/volume] in Blood</td><td>27.2</td><td>22 - 32</td><td></td><td>mmol/L</td></tr></table></div>"
        },
        "status": "final",
        "subject": {
          "reference": "urn:uuid:3f5f265d-d5b1-4b1a-8627-cc0343bd89e1",
          "display": "Alessio Fanucci"
        },
        "effectiveDateTime": "2024-04-29T07:49:06Z",
        "specimen": {
          "reference": "urn:uuid:e9bc5835-cbdb-4ed4-b99a-7b7a0a451eda"
        }
      }
    },
    {
      "fullUrl": "urn:uuid:863e3de7-9286-49ca-91c4-1ec396e6ad85",
      "resource": {
        "resourceType": "Device",
        "id": "863e3de7-9286-49ca-91c4-1ec396e6ad85",
        "deviceName": [
          {
            "name": "SYNDERAI Synthetic Generator",
            "type": "manufacturer-name"
          }
        ],
        "version": [
          {
            "value": "5.0"
          }
        ],
        "text": {
          "status": "generated",
          "div": "<div xmlns=\"http://www.w3.org/1999/xhtml\">SYNDERAI Synthetic Generator v5.0</div>"
        },
        "status": "active\"",
        "distinctIdentifier": "synderai-generator-50",
        "manufacturer": "SYNDERAI Project"
      }
    },
    {
      "fullUrl": "urn:uuid:8acbbc3f-2cb0-4b29-8355-d1a5cb00ef0f",
      "resource": {
        "resourceType": "Provenance",
        "id": "8acbbc3f-2cb0-4b29-8355-d1a5cb00ef0f",
        "target": [
          {
            "reference": "Patient/3f5f265d-d5b1-4b1a-8627-cc0343bd89e1"
          },
          {
            "reference": "Bundle/74da04c8-d66b-40c8-9282-0ce673336fa1"
          },
          {
            "reference": "Composition/dccd9f07-8d44-4edf-80e3-ba751bfcde93"
          },
          {
            "reference": "PractitionerRole/7ee166f2-5d72-44de-83e4-8da041a5b170"
          },
          {
            "reference": "Practitioner/c0b04510-8f19-4f49-b6e4-9dce11872b9e"
          },
          {
            "reference": "PractitionerRole/e01e1da7-4630-49e0-9fd7-b650a129d3dd"
          },
          {
            "reference": "Organization/8437f7e6-0724-4724-8ee1-73c23e32f3eb"
          }
        ],
        "activity": {
          "text": "Synthetic Example Data Generation"
        },
        "policy": [
          "https://synderai.net/synderai-synthetic-data-policy"
        ],
        "agent": [
          {
            "type": {
              "text": "author"
            },
            "who": {
              "reference": "Device/863e3de7-9286-49ca-91c4-1ec396e6ad85"
            }
          }
        ],
        "reason": [
          {
            "text": "Interoperability Testing and Training (non-clinical use)"
          }
        ],
        "text": {
          "status": "generated",
          "div": "<div xmlns=\"http://www.w3.org/1999/xhtml\">Provenance for SYNDERAI Synthetic Example Data Resource</div>"
        },
        "recorded": "2024-04-29T09:49:06Z"
      }
    },
    {
      "fullUrl": "urn:uuid:7ee166f2-5d72-44de-83e4-8da041a5b170",
      "resource": {
        "resourceType": "PractitionerRole",
        "id": "7ee166f2-5d72-44de-83e4-8da041a5b170",
        "meta": {
          "profile": [
            "http://hl7.eu/fhir/base/StructureDefinition/practitionerRole-eu"
          ]
        },
        "text": {
          "status": "generated",
          "div": "<div xmlns=\"http://www.w3.org/1999/xhtml\">Laboratory Role Id: 7ee166f2-5d72-44de-83e4-8da041a5b170</div>"
        },
        "practitioner": {
          "reference": "urn:uuid:c0b04510-8f19-4f49-b6e4-9dce11872b9e"
        }
      }
    },
    {
      "fullUrl": "urn:uuid:c0b04510-8f19-4f49-b6e4-9dce11872b9e",
      "resource": {
        "resourceType": "Practitioner",
        "id": "c0b04510-8f19-4f49-b6e4-9dce11872b9e",
        "meta": {
          "profile": [
            "http://hl7.eu/fhir/base/StructureDefinition/practitioner-eu"
          ]
        },
        "identifier": [
          {
            "assigner": {
              "display": "HL7 Europe"
            },
            "system": "urn:oid:2.16.840.1.113883.2.51.999",
            "value": "c78fc603-6911-4e54-a31f-bd0da10c23da"
          }
        ],
        "name": [
          {
            "prefix": [
              "dr"
            ],
            "given": [
              "Ex"
            ],
            "family": "Ample"
          }
        ],
        "address": [
          {
            "line": [
              "Laboratoire Central Européenne",
              "Boulevard du Jardin Botanique 32"
            ],
            "postalCode": "1000",
            "city": "Brussels",
            "country": "Belgium"
          }
        ],
        "text": {
          "status": "generated",
          "div": "<div xmlns=\"http://www.w3.org/1999/xhtml\">Laboratory: Laboratoire Central Européenne, 1000 Brussels, Belgium</div>"
        }
      }
    }
  ],
  "type": "document",
  "timestamp": "2024-04-29T09:49:06Z"
}
