{
  "resourceType": "Bundle",
  "id": "fb66df8e-bdf6-4e41-950e-a90780e03388",
  "meta": {
    "profile": [
      "http://hl7.eu/fhir/laboratory/StructureDefinition/Bundle-eu-lab"
    ]
  },
  "identifier": {
    "assigner": {
      "display": "HL7 Europe"
    },
    "system": "urn:oid:2.16.840.1.113883.2.51.999",
    "value": "27092706-0872-4955-8b1f-14158eff1462"
  },
  "entry": [
    {
      "fullUrl": "urn:uuid:c1b44ebe-c1e9-42e1-b44d-93c01d062496",
      "resource": {
        "resourceType": "Composition",
        "id": "c1b44ebe-c1e9-42e1-b44d-93c01d062496",
        "meta": {
          "profile": [
            "http://hl7.eu/fhir/laboratory/StructureDefinition/Composition-eu-lab"
          ]
        },
        "identifier": {
          "assigner": {
            "display": "HL7 Europe"
          },
          "system": "urn:oid:2.16.840.1.113883.2.51.999",
          "value": "8dfbab9b-5dad-4e1a-a0f9-f48e4b815e40"
        },
        "author": [
          {
            "reference": "urn:uuid:7ab0a869-c861-41c5-8dac-9ee9542e5a19"
          }
        ],
        "category": [
          {
            "coding": [
              {
                "code": "26436-6",
                "system": "http://loinc.org",
                "display": "Laboratory studies (set)"
              }
            ]
          }
        ],
        "type": {
          "coding": [
            {
              "code": "11502-2",
              "system": "http://loinc.org",
              "display": "Laboratory report"
            }
          ],
          "text": "Laboratory Report"
        },
        "section": [
          {
            "code": {
              "coding": [
                {
                  "code": "26436-6",
                  "system": "http://loinc.org",
                  "display": "Laboratory studies (set)"
                }
              ],
              "text": "Laboratory studies"
            },
            "section": [
              {
                "code": {
                  "coding": [
                    {
                      "code": "$18719-5",
                      "system": "http://loinc.org",
                      "display": "Chemistry studies (set)"
                    }
                  ],
                  "text": "Chemistry"
                },
                "entry": [
                  {
                    "reference": "urn:uuid:197d9e4f-3480-453f-90e8-5799e5f11d47"
                  },
                  {
                    "reference": "urn:uuid:0e2fa4b6-126f-4dda-99b9-e28d0985b63a"
                  },
                  {
                    "reference": "urn:uuid:a9b8ecb9-f6ff-46ea-8317-eca4f2108a11"
                  },
                  {
                    "reference": "urn:uuid:88a1d3dd-8171-492f-8d14-b85468df0a3b"
                  },
                  {
                    "reference": "urn:uuid:bb8cdef5-d87e-4a95-b24e-52e95915251a"
                  },
                  {
                    "reference": "urn:uuid:661df060-9077-4b15-952e-b7f7b0c98e16"
                  },
                  {
                    "reference": "urn:uuid:48e5d4e6-fccc-4e13-95c4-db79b2fc73c9"
                  },
                  {
                    "reference": "urn:uuid:754c17f0-4096-4482-9978-61ff8391bfcc"
                  },
                  {
                    "reference": "urn:uuid:40a3ea37-57de-49cd-8d84-93ae8a064672"
                  }
                ],
                "text": {
                  "status": "generated",
                  "div": "<div xmlns=\"http://www.w3.org/1999/xhtml\"><h3>Chemistry</h3><table class=\"hl7__eu__lab__report\"><thead><tr><th>Test</th><th>24-APR-2023</th><th>Reference&#xA0;Range</th><th>Unit</th></tr></thead><tbody><tr><td>Hemoglobin A1c/Hemoglobin.total in Blood</td><td><strong>6.2 H</strong></td><td>4 - 6</td><td>%</td></tr><tr><td>Glucose [Mass/volume] in Blood</td><td>89.4</td><td>70 - 140</td><td>mg/dL</td></tr><tr><td>Urea nitrogen [Mass/volume] in Blood</td><td>17.8</td><td>7 - 20</td><td>mg/dL</td></tr><tr><td>Creatinine [Mass/volume] in Blood</td><td><strong>0.8 L</strong></td><td>0.9 - 1.3</td><td>mg/dL</td></tr><tr><td>Calcium [Mass/volume] in Blood</td><td>9.6</td><td>8.5 - 10.5</td><td>mg/dL</td></tr><tr><td>Sodium [Moles/volume] in Blood</td><td>143.3</td><td>135 - 145</td><td>mmol/L</td></tr><tr><td>Potassium [Moles/volume] in Blood</td><td>4.0</td><td>3.5 - 5</td><td>mmol/L</td></tr><tr><td>Chloride [Moles/volume] in Blood</td><td>104.0</td><td>98 - 110</td><td>mmol/L</td></tr><tr><td>Carbon dioxide, total [Moles/volume] in Blood</td><td>26.9</td><td>22 - 32</td><td>mmol/L</td></tr></tbody></table></div>"
                },
                "title": "Chemistry"
              }
            ],
            "title": "Laboratory Report"
          },
          {
            "text": {
              "status": "generated",
              "div": "<div xmlns=\"http://www.w3.org/1999/xhtml\"><h3>Annotation</h3><table class=\"hl7__eu__lab__report\"><tr><th>Conclusion and Recommendations based on this report and previous findings known to us</th></tr><tr><td>The patient shows mildly elevated HbA1c, indicating suboptimal long-term glucose control and possible prediabetes or early diabetes. All other parameters, including renal function, electrolytes, and glucose, are within normal limits except for a slightly low creatinine, which is not clinically significant. Recommend monitoring glycemic control and considering lifestyle or therapeutic interventions.</td></tr></table></div>"
            },
            "code": {
              "coding": [
                {
                  "system": "http://loinc.org",
                  "code": "48767-8",
                  "display": "Annotation comment"
                }
              ]
            },
            "title": "Annotation comment"
          }
        ],
        "status": "final",
        "subject": {
          "reference": "urn:uuid:c0b726e0-591f-4d18-a163-54e2540cac6d",
          "display": "Alessio Fanucci"
        },
        "date": "2023-04-24T09:49:06Z",
        "title": "Laboratory Report",
        "confidentiality": "N"
      }
    },
    {
      "fullUrl": "urn:uuid:3e303d47-d83d-4c3a-8b5d-f42e70c78c82",
      "resource": {
        "resourceType": "DiagnosticReport",
        "id": "3e303d47-d83d-4c3a-8b5d-f42e70c78c82",
        "meta": {
          "profile": [
            "http://hl7.eu/fhir/laboratory/StructureDefinition/DiagnosticReport-eu-lab"
          ]
        },
        "identifier": [
          {
            "assigner": {
              "display": "HL7 Europe"
            },
            "system": "urn:oid:2.16.840.1.113883.2.51.999",
            "value": "46fc5a29-db61-432e-8d55-c5c3561ee5cb"
          }
        ],
        "extension": [
          {
            "url": "http://hl7.org/fhir/5.0/StructureDefinition/extension-DiagnosticReport.composition",
            "valueReference": {
              "reference": "urn:uuid:8dfbab9b-5dad-4e1a-a0f9-f48e4b815e40"
            }
          }
        ],
        "category": [
          {
            "coding": [
              {
                "code": "26436-6",
                "system": "http://loinc.org",
                "display": "Laboratory studies (set)"
              }
            ]
          }
        ],
        "specimen": [
          {
            "reference": "urn:uuid:37406b58-5f1e-42c1-bbbc-0a20fdc589c4"
          }
        ],
        "result": [
          {
            "reference": "urn:uuid:197d9e4f-3480-453f-90e8-5799e5f11d47"
          },
          {
            "reference": "urn:uuid:0e2fa4b6-126f-4dda-99b9-e28d0985b63a"
          },
          {
            "reference": "urn:uuid:a9b8ecb9-f6ff-46ea-8317-eca4f2108a11"
          },
          {
            "reference": "urn:uuid:88a1d3dd-8171-492f-8d14-b85468df0a3b"
          },
          {
            "reference": "urn:uuid:bb8cdef5-d87e-4a95-b24e-52e95915251a"
          },
          {
            "reference": "urn:uuid:661df060-9077-4b15-952e-b7f7b0c98e16"
          },
          {
            "reference": "urn:uuid:48e5d4e6-fccc-4e13-95c4-db79b2fc73c9"
          },
          {
            "reference": "urn:uuid:754c17f0-4096-4482-9978-61ff8391bfcc"
          },
          {
            "reference": "urn:uuid:40a3ea37-57de-49cd-8d84-93ae8a064672"
          }
        ],
        "status": "registered",
        "code": {
          "coding": [
            {
              "code": "11502-2",
              "system": "http://loinc.org",
              "display": "Laboratory report"
            }
          ]
        },
        "subject": {
          "reference": "urn:uuid:c0b726e0-591f-4d18-a163-54e2540cac6d",
          "display": "Alessio Fanucci"
        }
      }
    },
    {
      "fullUrl": "urn:uuid:c0b726e0-591f-4d18-a163-54e2540cac6d",
      "resource": {
        "resourceType": "Patient",
        "id": "c0b726e0-591f-4d18-a163-54e2540cac6d",
        "meta": {
          "security": [
            {
              "system": "http://terminology.hl7.org/CodeSystem/v3-ActReason",
              "code": "HTEST"
            },
            {
              "system": "http://terminology.hl7.org/CodeSystem/v3-ActReason",
              "code": "TRAIN"
            }
          ],
          "tag": [
            {
              "system": "https://synderai.net/fhir/CodeSystem/tags",
              "code": "synthetic",
              "display": "SYNDERAI Synthetic data"
            }
          ],
          "profile": [
            "http://hl7.eu/fhir/base/StructureDefinition/patient-eu-core"
          ]
        },
        "identifier": [
          {
            "type": {
              "coding": [
                {
                  "code": "PT",
                  "system": "http://terminology.hl7.org/CodeSystem/v2-0203"
                }
              ]
            },
            "system": "http://ec.europa.eu/identifier/eci",
            "value": "4754-874768-3"
          },
          {
            "type": {
              "coding": [
                {
                  "code": "MR",
                  "system": "http://terminology.hl7.org/CodeSystem/v2-0203"
                }
              ]
            },
            "system": "http://local.setting.eu/identifier",
            "value": "4b888823-bdd8-59a3-b785-e7ba28e6a7b5"
          }
        ],
        "name": [
          {
            "family": "Fanucci"
          },
          {
            "given": [
              "Alessio"
            ]
          },
          {
            "text": "Alessio Fanucci"
          }
        ],
        "address": [
          {
            "line": [
              "Incrocio Combi, 822"
            ],
            "use": "home",
            "type": "physical",
            "postalCode": "33015",
            "city": "Moggio Udinese",
            "country": "Italy"
          }
        ],
        "telecom": [
          {
            "system": "phone",
            "value": "0125684636"
          }
        ],
        "extension": [
          {
            "url": "http://hl7.org/fhir/StructureDefinition/patient-nationality",
            "valueCodeableConcept": {
              "coding": [
                {
                  "code": "IT",
                  "system": "http://hl7.org/fhir/ValueSet/country"
                }
              ]
            }
          }
        ],
        "text": {
          "status": "generated",
          "div": "<div xmlns=\"http://www.w3.org/1999/xhtml\"><table class=\"hl7__ips\"><tr><td>Alessio Fanucci</td><td>male</td><td>12-Sep-1964</td></tr></table></div>"
        },
        "gender": "male",
        "birthDate": "1964-09-12"
      }
    },
    {
      "fullUrl": "urn:uuid:e536b268-0e96-40b3-b22c-cbc00da05d2c",
      "resource": {
        "resourceType": "ServiceRequest",
        "id": "e536b268-0e96-40b3-b22c-cbc00da05d2c",
        "meta": {
          "profile": [
            "http://hl7.eu/fhir/laboratory/StructureDefinition/ServiceRequest-eu-lab"
          ]
        },
        "identifier": [
          {
            "system": "http://example.org",
            "value": "3b40b3d0-9799-4270-8024-f763caada82d"
          }
        ],
        "specimen": [
          {
            "reference": "urn:uuid:37406b58-5f1e-42c1-bbbc-0a20fdc589c4"
          }
        ],
        "reasonCode": [
          {
            "coding": [
              {
                "code": "15777000",
                "system": "http://snomed.info/sct",
                "display": "Prediabetes"
              }
            ]
          },
          {
            "coding": [
              {
                "code": "271737000",
                "system": "http://snomed.info/sct",
                "display": "Anemia"
              }
            ]
          },
          {
            "coding": [
              {
                "code": "40055000",
                "system": "http://snomed.info/sct",
                "display": "Chronic sinusitis"
              }
            ]
          }
        ],
        "status": "active",
        "intent": "order",
        "code": {
          "coding": [
            {
              "code": "108252007",
              "system": "http://snomed.info/sct",
              "display": "Laboratory procedure"
            }
          ]
        },
        "subject": {
          "reference": "urn:uuid:c0b726e0-591f-4d18-a163-54e2540cac6d",
          "display": "Alessio Fanucci"
        },
        "requester": {
          "reference": "urn:uuid:9882e1eb-71a6-47b2-83cc-9ffb359ce5f7"
        }
      }
    },
    {
      "fullUrl": "urn:uuid:9882e1eb-71a6-47b2-83cc-9ffb359ce5f7",
      "resource": {
        "resourceType": "PractitionerRole",
        "id": "9882e1eb-71a6-47b2-83cc-9ffb359ce5f7",
        "meta": {
          "profile": [
            "http://hl7.eu/fhir/base/StructureDefinition/practitionerRole-eu"
          ]
        },
        "text": {
          "status": "generated",
          "div": "<div xmlns=\"http://www.w3.org/1999/xhtml\">Provider Role Id: 9882e1eb-71a6-47b2-83cc-9ffb359ce5f7</div>"
        },
        "organization": {
          "reference": "urn:uuid:72da536e-66fd-4c3a-985f-8ff7a2b14a72"
        }
      }
    },
    {
      "fullUrl": "urn:uuid:72da536e-66fd-4c3a-985f-8ff7a2b14a72",
      "resource": {
        "resourceType": "Organization",
        "id": "72da536e-66fd-4c3a-985f-8ff7a2b14a72",
        "meta": {
          "profile": [
            "http://hl7.eu/fhir/base/StructureDefinition/organization-eu"
          ]
        },
        "identifier": [
          {
            "assigner": {
              "display": "HL7 Europe"
            },
            "system": "urn:oid:2.16.840.1.113883.2.51.999",
            "value": "b83df901-c480-4f14-b726-3515b6652ceb"
          }
        ],
        "address": [
          {
            "city": "Artegna",
            "postalCode": "33011",
            "country": "Italy"
          }
        ],
        "text": {
          "status": "generated",
          "div": "<div xmlns=\"http://www.w3.org/1999/xhtml\">Provider Organization: Ambulatori</div>"
        },
        "name": "Ambulatori"
      }
    },
    {
      "fullUrl": "urn:uuid:37406b58-5f1e-42c1-bbbc-0a20fdc589c4",
      "resource": {
        "resourceType": "Specimen",
        "id": "37406b58-5f1e-42c1-bbbc-0a20fdc589c4",
        "meta": {
          "profile": [
            "http://hl7.eu/fhir/laboratory/StructureDefinition/Specimen-eu-lab"
          ]
        },
        "collection": {
          "collectedDateTime": "2023-04-24"
        },
        "text": {
          "status": "generated",
          "div": "<div xmlns=\"http://www.w3.org/1999/xhtml\"><table class=\"hl7__eu__lab__report\"><tr><th>Specimen</th><th>Collection Date</th></tr><tr><td>Whole blood specimen (specimen)</td><td><span class=\"nb\">24-Apr-2023</span></td></tr></table></div>"
        },
        "type": {
          "coding": [
            {
              "code": "258580003",
              "system": "http://snomed.info/sct",
              "display": "Whole blood specimen (specimen)"
            }
          ]
        }
      }
    },
    {
      "fullUrl": "urn:uuid:197d9e4f-3480-453f-90e8-5799e5f11d47",
      "resource": {
        "resourceType": "Observation",
        "id": "197d9e4f-3480-453f-90e8-5799e5f11d47",
        "meta": {
          "profile": [
            "http://hl7.eu/fhir/laboratory/StructureDefinition/Observation-resultslab-eu-lab"
          ]
        },
        "performer": [
          {
            "display": "The Central European Lab"
          }
        ],
        "category": [
          {
            "coding": [
              {
                "system": "http://terminology.hl7.org/CodeSystem/observation-category",
                "code": "laboratory"
              }
            ]
          }
        ],
        "code": {
          "coding": [
            {
              "code": "4548-4",
              "system": "http://loinc.org",
              "display": "Hemoglobin A1c/Hemoglobin.total in Blood"
            }
          ],
          "text": "Hemoglobin A1c/Hemoglobin.total in Blood"
        },
        "valueQuantity": {
          "system": "http://unitsofmeasure.org",
          "value": 6.2,
          "unit": "%",
          "code": "%"
        },
        "referenceRange": [
          {
            "low": {
              "value": 4,
              "code": "%",
              "system": "http://unitsofmeasure.org"
            }
          },
          {
            "high": {
              "value": 6,
              "code": "%",
              "system": "http://unitsofmeasure.org"
            }
          }
        ],
        "interpretation": [
          {
            "coding": [
              {
                "code": "H",
                "system": "http://terminology.hl7.org/CodeSystem/v3-ObservationInterpretation",
                "display": "High"
              }
            ]
          }
        ],
        "text": {
          "status": "generated",
          "div": "<div xmlns=\"http://www.w3.org/1999/xhtml\"><table class=\"hl7__eu__lab__report\"><tr><th>Test</th><th>24-Apr-2023</th><th>Reference&#xA0;Range</th><th>Unit</th></tr><tr><td>Hemoglobin A1c/Hemoglobin.total in Blood</td><td>6.2</td><td>4 - 6</td><td>H</td><td>%</td></tr></table></div>"
        },
        "status": "final",
        "subject": {
          "reference": "urn:uuid:c0b726e0-591f-4d18-a163-54e2540cac6d",
          "display": "Alessio Fanucci"
        },
        "effectiveDateTime": "2023-04-24T07:49:06Z",
        "specimen": {
          "reference": "urn:uuid:37406b58-5f1e-42c1-bbbc-0a20fdc589c4"
        }
      }
    },
    {
      "fullUrl": "urn:uuid:0e2fa4b6-126f-4dda-99b9-e28d0985b63a",
      "resource": {
        "resourceType": "Observation",
        "id": "0e2fa4b6-126f-4dda-99b9-e28d0985b63a",
        "meta": {
          "profile": [
            "http://hl7.eu/fhir/laboratory/StructureDefinition/Observation-resultslab-eu-lab"
          ]
        },
        "performer": [
          {
            "display": "The Central European Lab"
          }
        ],
        "category": [
          {
            "coding": [
              {
                "system": "http://terminology.hl7.org/CodeSystem/observation-category",
                "code": "laboratory"
              }
            ]
          }
        ],
        "code": {
          "coding": [
            {
              "code": "2339-0",
              "system": "http://loinc.org",
              "display": "Glucose [Mass/volume] in Blood"
            }
          ],
          "text": "Glucose [Mass/volume] in Blood"
        },
        "valueQuantity": {
          "system": "http://unitsofmeasure.org",
          "value": 89.4,
          "unit": "mg/dL",
          "code": "mg/dL"
        },
        "referenceRange": [
          {
            "low": {
              "value": 70,
              "code": "mg/dL",
              "system": "http://unitsofmeasure.org"
            }
          },
          {
            "high": {
              "value": 140,
              "code": "mg/dL",
              "system": "http://unitsofmeasure.org"
            }
          }
        ],
        "text": {
          "status": "generated",
          "div": "<div xmlns=\"http://www.w3.org/1999/xhtml\"><table class=\"hl7__eu__lab__report\"><tr><th>Test</th><th>24-Apr-2023</th><th>Reference&#xA0;Range</th><th>Unit</th></tr><tr><td>Glucose [Mass/volume] in Blood</td><td>89.4</td><td>70 - 140</td><td></td><td>mg/dL</td></tr></table></div>"
        },
        "status": "final",
        "subject": {
          "reference": "urn:uuid:c0b726e0-591f-4d18-a163-54e2540cac6d",
          "display": "Alessio Fanucci"
        },
        "effectiveDateTime": "2023-04-24T07:49:06Z",
        "specimen": {
          "reference": "urn:uuid:37406b58-5f1e-42c1-bbbc-0a20fdc589c4"
        }
      }
    },
    {
      "fullUrl": "urn:uuid:a9b8ecb9-f6ff-46ea-8317-eca4f2108a11",
      "resource": {
        "resourceType": "Observation",
        "id": "a9b8ecb9-f6ff-46ea-8317-eca4f2108a11",
        "meta": {
          "profile": [
            "http://hl7.eu/fhir/laboratory/StructureDefinition/Observation-resultslab-eu-lab"
          ]
        },
        "performer": [
          {
            "display": "The Central European Lab"
          }
        ],
        "category": [
          {
            "coding": [
              {
                "system": "http://terminology.hl7.org/CodeSystem/observation-category",
                "code": "laboratory"
              }
            ]
          }
        ],
        "code": {
          "coding": [
            {
              "code": "6299-2",
              "system": "http://loinc.org",
              "display": "Urea nitrogen [Mass/volume] in Blood"
            }
          ],
          "text": "Urea nitrogen [Mass/volume] in Blood"
        },
        "valueQuantity": {
          "system": "http://unitsofmeasure.org",
          "value": 17.8,
          "unit": "mg/dL",
          "code": "mg/dL"
        },
        "referenceRange": [
          {
            "low": {
              "value": 7,
              "code": "mg/dL",
              "system": "http://unitsofmeasure.org"
            }
          },
          {
            "high": {
              "value": 20,
              "code": "mg/dL",
              "system": "http://unitsofmeasure.org"
            }
          }
        ],
        "text": {
          "status": "generated",
          "div": "<div xmlns=\"http://www.w3.org/1999/xhtml\"><table class=\"hl7__eu__lab__report\"><tr><th>Test</th><th>24-Apr-2023</th><th>Reference&#xA0;Range</th><th>Unit</th></tr><tr><td>Urea nitrogen [Mass/volume] in Blood</td><td>17.8</td><td>7 - 20</td><td></td><td>mg/dL</td></tr></table></div>"
        },
        "status": "final",
        "subject": {
          "reference": "urn:uuid:c0b726e0-591f-4d18-a163-54e2540cac6d",
          "display": "Alessio Fanucci"
        },
        "effectiveDateTime": "2023-04-24T07:49:06Z",
        "specimen": {
          "reference": "urn:uuid:37406b58-5f1e-42c1-bbbc-0a20fdc589c4"
        }
      }
    },
    {
      "fullUrl": "urn:uuid:88a1d3dd-8171-492f-8d14-b85468df0a3b",
      "resource": {
        "resourceType": "Observation",
        "id": "88a1d3dd-8171-492f-8d14-b85468df0a3b",
        "meta": {
          "profile": [
            "http://hl7.eu/fhir/laboratory/StructureDefinition/Observation-resultslab-eu-lab"
          ]
        },
        "performer": [
          {
            "display": "The Central European Lab"
          }
        ],
        "category": [
          {
            "coding": [
              {
                "system": "http://terminology.hl7.org/CodeSystem/observation-category",
                "code": "laboratory"
              }
            ]
          }
        ],
        "code": {
          "coding": [
            {
              "code": "38483-4",
              "system": "http://loinc.org",
              "display": "Creatinine [Mass/volume] in Blood"
            }
          ],
          "text": "Creatinine [Mass/volume] in Blood"
        },
        "valueQuantity": {
          "system": "http://unitsofmeasure.org",
          "value": 0.8,
          "unit": "mg/dL",
          "code": "mg/dL"
        },
        "referenceRange": [
          {
            "low": {
              "value": 0.9,
              "code": "mg/dL",
              "system": "http://unitsofmeasure.org"
            }
          },
          {
            "high": {
              "value": 1.3,
              "code": "mg/dL",
              "system": "http://unitsofmeasure.org"
            }
          }
        ],
        "interpretation": [
          {
            "coding": [
              {
                "code": "L",
                "system": "http://terminology.hl7.org/CodeSystem/v3-ObservationInterpretation",
                "display": "Low"
              }
            ]
          }
        ],
        "text": {
          "status": "generated",
          "div": "<div xmlns=\"http://www.w3.org/1999/xhtml\"><table class=\"hl7__eu__lab__report\"><tr><th>Test</th><th>24-Apr-2023</th><th>Reference&#xA0;Range</th><th>Unit</th></tr><tr><td>Creatinine [Mass/volume] in Blood</td><td>0.8</td><td>0.9 - 1.3</td><td>L</td><td>mg/dL</td></tr></table></div>"
        },
        "status": "final",
        "subject": {
          "reference": "urn:uuid:c0b726e0-591f-4d18-a163-54e2540cac6d",
          "display": "Alessio Fanucci"
        },
        "effectiveDateTime": "2023-04-24T07:49:06Z",
        "specimen": {
          "reference": "urn:uuid:37406b58-5f1e-42c1-bbbc-0a20fdc589c4"
        }
      }
    },
    {
      "fullUrl": "urn:uuid:bb8cdef5-d87e-4a95-b24e-52e95915251a",
      "resource": {
        "resourceType": "Observation",
        "id": "bb8cdef5-d87e-4a95-b24e-52e95915251a",
        "meta": {
          "profile": [
            "http://hl7.eu/fhir/laboratory/StructureDefinition/Observation-resultslab-eu-lab"
          ]
        },
        "performer": [
          {
            "display": "The Central European Lab"
          }
        ],
        "category": [
          {
            "coding": [
              {
                "system": "http://terminology.hl7.org/CodeSystem/observation-category",
                "code": "laboratory"
              }
            ]
          }
        ],
        "code": {
          "coding": [
            {
              "code": "49765-1",
              "system": "http://loinc.org",
              "display": "Calcium [Mass/volume] in Blood"
            }
          ],
          "text": "Calcium [Mass/volume] in Blood"
        },
        "valueQuantity": {
          "system": "http://unitsofmeasure.org",
          "value": 9.6,
          "unit": "mg/dL",
          "code": "mg/dL"
        },
        "referenceRange": [
          {
            "low": {
              "value": 8.5,
              "code": "mg/dL",
              "system": "http://unitsofmeasure.org"
            }
          },
          {
            "high": {
              "value": 10.5,
              "code": "mg/dL",
              "system": "http://unitsofmeasure.org"
            }
          }
        ],
        "text": {
          "status": "generated",
          "div": "<div xmlns=\"http://www.w3.org/1999/xhtml\"><table class=\"hl7__eu__lab__report\"><tr><th>Test</th><th>24-Apr-2023</th><th>Reference&#xA0;Range</th><th>Unit</th></tr><tr><td>Calcium [Mass/volume] in Blood</td><td>9.6</td><td>8.5 - 10.5</td><td></td><td>mg/dL</td></tr></table></div>"
        },
        "status": "final",
        "subject": {
          "reference": "urn:uuid:c0b726e0-591f-4d18-a163-54e2540cac6d",
          "display": "Alessio Fanucci"
        },
        "effectiveDateTime": "2023-04-24T07:49:06Z",
        "specimen": {
          "reference": "urn:uuid:37406b58-5f1e-42c1-bbbc-0a20fdc589c4"
        }
      }
    },
    {
      "fullUrl": "urn:uuid:661df060-9077-4b15-952e-b7f7b0c98e16",
      "resource": {
        "resourceType": "Observation",
        "id": "661df060-9077-4b15-952e-b7f7b0c98e16",
        "meta": {
          "profile": [
            "http://hl7.eu/fhir/laboratory/StructureDefinition/Observation-resultslab-eu-lab"
          ]
        },
        "performer": [
          {
            "display": "The Central European Lab"
          }
        ],
        "category": [
          {
            "coding": [
              {
                "system": "http://terminology.hl7.org/CodeSystem/observation-category",
                "code": "laboratory"
              }
            ]
          }
        ],
        "code": {
          "coding": [
            {
              "code": "2947-0",
              "system": "http://loinc.org",
              "display": "Sodium [Moles/volume] in Blood"
            }
          ],
          "text": "Sodium [Moles/volume] in Blood"
        },
        "valueQuantity": {
          "system": "http://unitsofmeasure.org",
          "value": 143.3,
          "unit": "mmol/L",
          "code": "mmol/L"
        },
        "referenceRange": [
          {
            "low": {
              "value": 135,
              "code": "mmol/L",
              "system": "http://unitsofmeasure.org"
            }
          },
          {
            "high": {
              "value": 145,
              "code": "mmol/L",
              "system": "http://unitsofmeasure.org"
            }
          }
        ],
        "text": {
          "status": "generated",
          "div": "<div xmlns=\"http://www.w3.org/1999/xhtml\"><table class=\"hl7__eu__lab__report\"><tr><th>Test</th><th>24-Apr-2023</th><th>Reference&#xA0;Range</th><th>Unit</th></tr><tr><td>Sodium [Moles/volume] in Blood</td><td>143.3</td><td>135 - 145</td><td></td><td>mmol/L</td></tr></table></div>"
        },
        "status": "final",
        "subject": {
          "reference": "urn:uuid:c0b726e0-591f-4d18-a163-54e2540cac6d",
          "display": "Alessio Fanucci"
        },
        "effectiveDateTime": "2023-04-24T07:49:06Z",
        "specimen": {
          "reference": "urn:uuid:37406b58-5f1e-42c1-bbbc-0a20fdc589c4"
        }
      }
    },
    {
      "fullUrl": "urn:uuid:48e5d4e6-fccc-4e13-95c4-db79b2fc73c9",
      "resource": {
        "resourceType": "Observation",
        "id": "48e5d4e6-fccc-4e13-95c4-db79b2fc73c9",
        "meta": {
          "profile": [
            "http://hl7.eu/fhir/laboratory/StructureDefinition/Observation-resultslab-eu-lab"
          ]
        },
        "performer": [
          {
            "display": "The Central European Lab"
          }
        ],
        "category": [
          {
            "coding": [
              {
                "system": "http://terminology.hl7.org/CodeSystem/observation-category",
                "code": "laboratory"
              }
            ]
          }
        ],
        "code": {
          "coding": [
            {
              "code": "6298-4",
              "system": "http://loinc.org",
              "display": "Potassium [Moles/volume] in Blood"
            }
          ],
          "text": "Potassium [Moles/volume] in Blood"
        },
        "valueQuantity": {
          "system": "http://unitsofmeasure.org",
          "value": 4,
          "unit": "mmol/L",
          "code": "mmol/L"
        },
        "referenceRange": [
          {
            "low": {
              "value": 3.5,
              "code": "mmol/L",
              "system": "http://unitsofmeasure.org"
            }
          },
          {
            "high": {
              "value": 5,
              "code": "mmol/L",
              "system": "http://unitsofmeasure.org"
            }
          }
        ],
        "text": {
          "status": "generated",
          "div": "<div xmlns=\"http://www.w3.org/1999/xhtml\"><table class=\"hl7__eu__lab__report\"><tr><th>Test</th><th>24-Apr-2023</th><th>Reference&#xA0;Range</th><th>Unit</th></tr><tr><td>Potassium [Moles/volume] in Blood</td><td>4.0</td><td>3.5 - 5</td><td></td><td>mmol/L</td></tr></table></div>"
        },
        "status": "final",
        "subject": {
          "reference": "urn:uuid:c0b726e0-591f-4d18-a163-54e2540cac6d",
          "display": "Alessio Fanucci"
        },
        "effectiveDateTime": "2023-04-24T07:49:06Z",
        "specimen": {
          "reference": "urn:uuid:37406b58-5f1e-42c1-bbbc-0a20fdc589c4"
        }
      }
    },
    {
      "fullUrl": "urn:uuid:754c17f0-4096-4482-9978-61ff8391bfcc",
      "resource": {
        "resourceType": "Observation",
        "id": "754c17f0-4096-4482-9978-61ff8391bfcc",
        "meta": {
          "profile": [
            "http://hl7.eu/fhir/laboratory/StructureDefinition/Observation-resultslab-eu-lab"
          ]
        },
        "performer": [
          {
            "display": "The Central European Lab"
          }
        ],
        "category": [
          {
            "coding": [
              {
                "system": "http://terminology.hl7.org/CodeSystem/observation-category",
                "code": "laboratory"
              }
            ]
          }
        ],
        "code": {
          "coding": [
            {
              "code": "2069-3",
              "system": "http://loinc.org",
              "display": "Chloride [Moles/volume] in Blood"
            }
          ],
          "text": "Chloride [Moles/volume] in Blood"
        },
        "valueQuantity": {
          "system": "http://unitsofmeasure.org",
          "value": 104,
          "unit": "mmol/L",
          "code": "mmol/L"
        },
        "referenceRange": [
          {
            "low": {
              "value": 98,
              "code": "mmol/L",
              "system": "http://unitsofmeasure.org"
            }
          },
          {
            "high": {
              "value": 110,
              "code": "mmol/L",
              "system": "http://unitsofmeasure.org"
            }
          }
        ],
        "text": {
          "status": "generated",
          "div": "<div xmlns=\"http://www.w3.org/1999/xhtml\"><table class=\"hl7__eu__lab__report\"><tr><th>Test</th><th>24-Apr-2023</th><th>Reference&#xA0;Range</th><th>Unit</th></tr><tr><td>Chloride [Moles/volume] in Blood</td><td>104.0</td><td>98 - 110</td><td></td><td>mmol/L</td></tr></table></div>"
        },
        "status": "final",
        "subject": {
          "reference": "urn:uuid:c0b726e0-591f-4d18-a163-54e2540cac6d",
          "display": "Alessio Fanucci"
        },
        "effectiveDateTime": "2023-04-24T07:49:06Z",
        "specimen": {
          "reference": "urn:uuid:37406b58-5f1e-42c1-bbbc-0a20fdc589c4"
        }
      }
    },
    {
      "fullUrl": "urn:uuid:40a3ea37-57de-49cd-8d84-93ae8a064672",
      "resource": {
        "resourceType": "Observation",
        "id": "40a3ea37-57de-49cd-8d84-93ae8a064672",
        "meta": {
          "profile": [
            "http://hl7.eu/fhir/laboratory/StructureDefinition/Observation-resultslab-eu-lab"
          ]
        },
        "performer": [
          {
            "display": "The Central European Lab"
          }
        ],
        "category": [
          {
            "coding": [
              {
                "system": "http://terminology.hl7.org/CodeSystem/observation-category",
                "code": "laboratory"
              }
            ]
          }
        ],
        "code": {
          "coding": [
            {
              "code": "20565-8",
              "system": "http://loinc.org",
              "display": "Carbon dioxide, total [Moles/volume] in Blood"
            }
          ],
          "text": "Carbon dioxide, total [Moles/volume] in Blood"
        },
        "valueQuantity": {
          "system": "http://unitsofmeasure.org",
          "value": 26.9,
          "unit": "mmol/L",
          "code": "mmol/L"
        },
        "referenceRange": [
          {
            "low": {
              "value": 22,
              "code": "mmol/L",
              "system": "http://unitsofmeasure.org"
            }
          },
          {
            "high": {
              "value": 32,
              "code": "mmol/L",
              "system": "http://unitsofmeasure.org"
            }
          }
        ],
        "text": {
          "status": "generated",
          "div": "<div xmlns=\"http://www.w3.org/1999/xhtml\"><table class=\"hl7__eu__lab__report\"><tr><th>Test</th><th>24-Apr-2023</th><th>Reference&#xA0;Range</th><th>Unit</th></tr><tr><td>Carbon dioxide, total [Moles/volume] in Blood</td><td>26.9</td><td>22 - 32</td><td></td><td>mmol/L</td></tr></table></div>"
        },
        "status": "final",
        "subject": {
          "reference": "urn:uuid:c0b726e0-591f-4d18-a163-54e2540cac6d",
          "display": "Alessio Fanucci"
        },
        "effectiveDateTime": "2023-04-24T07:49:06Z",
        "specimen": {
          "reference": "urn:uuid:37406b58-5f1e-42c1-bbbc-0a20fdc589c4"
        }
      }
    },
    {
      "fullUrl": "urn:uuid:139d576a-b442-42d1-a507-a0f782006736",
      "resource": {
        "resourceType": "Device",
        "id": "139d576a-b442-42d1-a507-a0f782006736",
        "deviceName": [
          {
            "name": "SYNDERAI Synthetic Generator",
            "type": "manufacturer-name"
          }
        ],
        "version": [
          {
            "value": "5.0"
          }
        ],
        "text": {
          "status": "generated",
          "div": "<div xmlns=\"http://www.w3.org/1999/xhtml\">SYNDERAI Synthetic Generator v5.0</div>"
        },
        "status": "active\"",
        "distinctIdentifier": "synderai-generator-50",
        "manufacturer": "SYNDERAI Project"
      }
    },
    {
      "fullUrl": "urn:uuid:b3c58396-9532-49fa-bda3-fc45238486e5",
      "resource": {
        "resourceType": "Provenance",
        "id": "b3c58396-9532-49fa-bda3-fc45238486e5",
        "target": [
          {
            "reference": "Patient/c0b726e0-591f-4d18-a163-54e2540cac6d"
          },
          {
            "reference": "Bundle/fb66df8e-bdf6-4e41-950e-a90780e03388"
          },
          {
            "reference": "Composition/c1b44ebe-c1e9-42e1-b44d-93c01d062496"
          },
          {
            "reference": "PractitionerRole/7ab0a869-c861-41c5-8dac-9ee9542e5a19"
          },
          {
            "reference": "Practitioner/9c9f1c0e-6b57-473e-b37a-4bb170b9f427"
          },
          {
            "reference": "PractitionerRole/9882e1eb-71a6-47b2-83cc-9ffb359ce5f7"
          },
          {
            "reference": "Organization/72da536e-66fd-4c3a-985f-8ff7a2b14a72"
          }
        ],
        "activity": {
          "text": "Synthetic Example Data Generation"
        },
        "policy": [
          "https://synderai.net/synderai-synthetic-data-policy"
        ],
        "agent": [
          {
            "type": {
              "text": "author"
            },
            "who": {
              "reference": "Device/139d576a-b442-42d1-a507-a0f782006736"
            }
          }
        ],
        "reason": [
          {
            "text": "Interoperability Testing and Training (non-clinical use)"
          }
        ],
        "text": {
          "status": "generated",
          "div": "<div xmlns=\"http://www.w3.org/1999/xhtml\">Provenance for SYNDERAI Synthetic Example Data Resource</div>"
        },
        "recorded": "2023-04-24T09:49:06Z"
      }
    },
    {
      "fullUrl": "urn:uuid:7ab0a869-c861-41c5-8dac-9ee9542e5a19",
      "resource": {
        "resourceType": "PractitionerRole",
        "id": "7ab0a869-c861-41c5-8dac-9ee9542e5a19",
        "meta": {
          "profile": [
            "http://hl7.eu/fhir/base/StructureDefinition/practitionerRole-eu"
          ]
        },
        "text": {
          "status": "generated",
          "div": "<div xmlns=\"http://www.w3.org/1999/xhtml\">Laboratory Role Id: 7ab0a869-c861-41c5-8dac-9ee9542e5a19</div>"
        },
        "practitioner": {
          "reference": "urn:uuid:9c9f1c0e-6b57-473e-b37a-4bb170b9f427"
        }
      }
    },
    {
      "fullUrl": "urn:uuid:9c9f1c0e-6b57-473e-b37a-4bb170b9f427",
      "resource": {
        "resourceType": "Practitioner",
        "id": "9c9f1c0e-6b57-473e-b37a-4bb170b9f427",
        "meta": {
          "profile": [
            "http://hl7.eu/fhir/base/StructureDefinition/practitioner-eu"
          ]
        },
        "identifier": [
          {
            "assigner": {
              "display": "HL7 Europe"
            },
            "system": "urn:oid:2.16.840.1.113883.2.51.999",
            "value": "bfc01af3-e292-4b2c-aba5-fe5e5eb6c5fb"
          }
        ],
        "name": [
          {
            "prefix": [
              "dr"
            ],
            "given": [
              "Ex"
            ],
            "family": "Ample"
          }
        ],
        "address": [
          {
            "line": [
              "Laboratoire Central Européenne",
              "Boulevard du Jardin Botanique 32"
            ],
            "postalCode": "1000",
            "city": "Brussels",
            "country": "Belgium"
          }
        ],
        "text": {
          "status": "generated",
          "div": "<div xmlns=\"http://www.w3.org/1999/xhtml\">Laboratory: Laboratoire Central Européenne, 1000 Brussels, Belgium</div>"
        }
      }
    }
  ],
  "type": "document",
  "timestamp": "2023-04-24T09:49:06Z"
}
