{
  "resourceType": "Bundle",
  "id": "c1d2f762-5492-40d7-9ff5-54f5d2516122",
  "meta": {
    "profile": [
      "http://hl7.eu/fhir/laboratory/StructureDefinition/Bundle-eu-lab"
    ]
  },
  "identifier": {
    "assigner": {
      "display": "HL7 Europe"
    },
    "system": "urn:oid:2.16.840.1.113883.2.51.999",
    "value": "f854c997-09b7-4b46-9db7-48add23a8188"
  },
  "entry": [
    {
      "fullUrl": "urn:uuid:b98fc2f4-9976-4e62-a5ea-945e87ceafd0",
      "resource": {
        "resourceType": "Composition",
        "id": "b98fc2f4-9976-4e62-a5ea-945e87ceafd0",
        "meta": {
          "profile": [
            "http://hl7.eu/fhir/laboratory/StructureDefinition/Composition-eu-lab"
          ]
        },
        "identifier": {
          "assigner": {
            "display": "HL7 Europe"
          },
          "system": "urn:oid:2.16.840.1.113883.2.51.999",
          "value": "469d2ea4-9b74-4cba-921f-bc69e45494e0"
        },
        "author": [
          {
            "reference": "urn:uuid:8c04571a-bd31-48c9-9790-c8ab889f588a"
          }
        ],
        "category": [
          {
            "coding": [
              {
                "code": "26436-6",
                "system": "http://loinc.org",
                "display": "Laboratory studies (set)"
              }
            ]
          }
        ],
        "type": {
          "coding": [
            {
              "code": "11502-2",
              "system": "http://loinc.org",
              "display": "Laboratory report"
            }
          ],
          "text": "Laboratory Report"
        },
        "section": [
          {
            "code": {
              "coding": [
                {
                  "code": "26436-6",
                  "system": "http://loinc.org",
                  "display": "Laboratory studies (set)"
                }
              ],
              "text": "Laboratory studies"
            },
            "section": [
              {
                "code": {
                  "coding": [
                    {
                      "code": "$18719-5",
                      "system": "http://loinc.org",
                      "display": "Chemistry studies (set)"
                    }
                  ],
                  "text": "Chemistry"
                },
                "entry": [
                  {
                    "reference": "urn:uuid:3affa252-b4ce-41a4-97f9-eed73751625d"
                  },
                  {
                    "reference": "urn:uuid:9f0c5764-c564-4e0c-9c52-5dff8bf223ea"
                  },
                  {
                    "reference": "urn:uuid:eeee744c-01ca-44c8-9744-8839c8a91919"
                  },
                  {
                    "reference": "urn:uuid:cb5f7945-18ed-4980-804c-6d565bd73c7a"
                  },
                  {
                    "reference": "urn:uuid:50d51569-dbf5-4a95-bcf8-8ba3655aa3bf"
                  },
                  {
                    "reference": "urn:uuid:df1387f7-1c9a-428f-8993-e807b6f6fca8"
                  },
                  {
                    "reference": "urn:uuid:a51a86c3-bf0b-4355-9ec5-d14371b98ba3"
                  },
                  {
                    "reference": "urn:uuid:13bcaa38-6a38-4e73-b4cd-aa2aa472e45b"
                  },
                  {
                    "reference": "urn:uuid:49df2f52-f2f9-464e-99f4-2037f097fef5"
                  },
                  {
                    "reference": "urn:uuid:cf774fdd-e44e-48ce-b644-924320d93738"
                  },
                  {
                    "reference": "urn:uuid:6f9664d8-9368-4b70-8349-2280aa007a35"
                  },
                  {
                    "reference": "urn:uuid:87d1c149-fd5c-4145-9cf1-0cae1f43a1ed"
                  },
                  {
                    "reference": "urn:uuid:1e44f844-dd41-410e-829a-86099ec88a7b"
                  },
                  {
                    "reference": "urn:uuid:33bf3e90-ad42-47e9-8ca6-f7b2114a6f19"
                  },
                  {
                    "reference": "urn:uuid:7c40f0d9-487e-42b4-a0d3-056ea0e8b960"
                  },
                  {
                    "reference": "urn:uuid:a5a21f69-6765-42f8-8cf1-271fc9b225a3"
                  },
                  {
                    "reference": "urn:uuid:de19678e-abe2-43ba-88b0-d58fb9c23b2a"
                  },
                  {
                    "reference": "urn:uuid:9625ac8e-51e5-4327-b6c6-00ad1e5f64bb"
                  },
                  {
                    "reference": "urn:uuid:0cefcfe2-96de-4173-8122-c468c209eb46"
                  },
                  {
                    "reference": "urn:uuid:fe28bc39-5bfb-44bd-9f6a-8abb28459755"
                  },
                  {
                    "reference": "urn:uuid:76e49b19-e90c-438a-902d-69ed5f2ef604"
                  },
                  {
                    "reference": "urn:uuid:d7b8f0e6-fc42-47ec-b69e-b92151c0ce29"
                  }
                ],
                "text": {
                  "status": "generated",
                  "div": "<div xmlns=\"http://www.w3.org/1999/xhtml\"><h3>Chemistry</h3><table class=\"hl7__eu__lab__report\"><thead><tr><th>Test</th><th>23-MAR-2025</th><th>Reference&#xA0;Range</th><th>Unit</th></tr></thead><tbody><tr><td>Glucose [Mass/volume] in Serum or Plasma</td><td>89.6</td><td>70 - 99</td><td>mg/dL</td></tr><tr><td>Urea nitrogen [Mass/volume] in Serum or Plasma</td><td>7.4</td><td>7 - 20</td><td>mg/dL</td></tr><tr><td>Creatinine [Mass/volume] in Serum or Plasma</td><td><strong>1.9 H</strong></td><td>0.6 - 1.3</td><td>mg/dL</td></tr><tr><td>Calcium [Mass/volume] in Serum or Plasma</td><td>10.1</td><td>8.6 - 10.4</td><td>mg/dL</td></tr><tr><td>Sodium [Moles/volume] in Serum or Plasma</td><td>138.8</td><td>135 - 145</td><td>mmol/L</td></tr><tr><td>Potassium [Moles/volume] in Serum or Plasma</td><td>3.8</td><td>3.5 - 5</td><td>mmol/L</td></tr><tr><td>Chloride [Moles/volume] in Serum or Plasma</td><td><strong>106.4 H</strong></td><td>98 - 106</td><td>mmol/L</td></tr><tr><td>Carbon dioxide, total [Moles/volume] in Serum or Plasma</td><td><strong>21.3 L</strong></td><td>22 - 29</td><td>mmol/L</td></tr><tr><td>Ketones [Presence] in Urine by Test strip</td><td>Urine ketone test = +</td><td></td><td></td></tr><tr><td>Hemoglobin A1c/Hemoglobin.total in Blood</td><td><strong>3.4 L</strong></td><td>4 - 6</td><td>%</td></tr><tr><td>Glucose [Mass/volume] in Blood</td><td>89.6</td><td>70 - 140</td><td>mg/dL</td></tr><tr><td>Urea nitrogen [Mass/volume] in Blood</td><td>7.4</td><td>7 - 25</td><td>mg/dL</td></tr><tr><td>Creatinine [Mass/volume] in Blood</td><td><strong>1.8 H</strong></td><td>0.6 - 1.1</td><td>mg/dL</td></tr><tr><td>Calcium [Mass/volume] in Blood</td><td>10.1</td><td>8.6 - 10.4</td><td>mg/dL</td></tr><tr><td>Sodium [Moles/volume] in Blood</td><td>138.8</td><td>135 - 145</td><td>mmol/L</td></tr><tr><td>Potassium [Moles/volume] in Blood</td><td>3.8</td><td>3.5 - 5.1</td><td>mmol/L</td></tr><tr><td>Chloride [Moles/volume] in Blood</td><td>106.4</td><td>98 - 110</td><td>mmol/L</td></tr><tr><td>Carbon dioxide, total [Moles/volume] in Blood</td><td><strong>21.3 L</strong></td><td>22 - 29</td><td>mmol/L</td></tr><tr><td>Cholesterol [Mass/volume] in Serum or Plasma</td><td>181.3</td><td>130 - 200</td><td>mg/dL</td></tr><tr><td>Triglyceride [Mass/volume] in Serum or Plasma</td><td>110.0</td><td>35 - 150</td><td>mg/dL</td></tr><tr><td>Cholesterol in LDL [Mass/volume] in Serum or Plasma by Direct assay</td><td>111.0</td><td>0 - 130</td><td>mg/dL</td></tr><tr><td>Cholesterol in HDL [Mass/volume] in Serum or Plasma</td><td><strong>48.4 L</strong></td><td>50 - 100</td><td>mg/dL</td></tr></tbody></table></div>"
                },
                "title": "Chemistry"
              },
              {
                "code": {
                  "coding": [
                    {
                      "code": "$18729-4",
                      "system": "http://loinc.org",
                      "display": "Urinalysis studies (set)"
                    }
                  ],
                  "text": "Urinalysis"
                },
                "entry": [
                  {
                    "reference": "urn:uuid:55c0f1d6-3d36-491e-b8b1-6b86681b5211"
                  },
                  {
                    "reference": "urn:uuid:9816eaea-92a6-4d82-a82c-474662882bd3"
                  },
                  {
                    "reference": "urn:uuid:2847c566-99f7-4a73-97b0-6bc9db4e7f78"
                  },
                  {
                    "reference": "urn:uuid:95e909d4-277a-4503-9d91-16801cbfdd0f"
                  },
                  {
                    "reference": "urn:uuid:6297713a-3bf5-424a-ae5b-bed0db000659"
                  },
                  {
                    "reference": "urn:uuid:08dc0c8d-1ce8-4341-956e-e12bde825576"
                  },
                  {
                    "reference": "urn:uuid:90255342-c92e-4697-8547-97325ddf887e"
                  },
                  {
                    "reference": "urn:uuid:4bf41eab-d582-4b49-a0e7-accd4d0ff317"
                  },
                  {
                    "reference": "urn:uuid:ce001e97-61f6-4721-ad25-a9a7d0c90df2"
                  },
                  {
                    "reference": "urn:uuid:a01b4b96-4810-44bd-aac1-58785f8c0eab"
                  },
                  {
                    "reference": "urn:uuid:62fba8c6-60a6-4e45-ae95-76c73d0b698b"
                  },
                  {
                    "reference": "urn:uuid:f45d0a2a-1915-4a44-8ae5-a3f8f648ca9a"
                  }
                ],
                "text": {
                  "status": "generated",
                  "div": "<div xmlns=\"http://www.w3.org/1999/xhtml\"><h3>Urinalysis</h3><table class=\"hl7__eu__lab__report\"><thead><tr><th>Test</th><th>23-MAR-2025</th><th>Reference&#xA0;Range</th><th>Unit</th></tr></thead><tbody><tr><td>Glucose [Mass/volume] in Urine by Test strip</td><td><strong>1.3 H</strong></td><td>0 - 0.8</td><td>mg/dL</td></tr><tr><td>Glucose [Presence] in Urine by Test strip</td><td>++</td><td></td><td></td></tr><tr><td>Bilirubin.total [Mass/volume] in Urine by Test strip</td><td>0.9</td><td>0 - 1</td><td>mg/dL</td></tr><tr><td>Bilirubin.total [Presence] in Urine by Test strip</td><td>Finding of bilirubin in urine</td><td></td><td></td></tr><tr><td>Ketones [Mass/volume] in Urine by Test strip</td><td>2.0</td><td>0 - 4</td><td>mg/dL</td></tr><tr><td>Specific gravity of Urine by Test strip</td><td><strong>1.0 L</strong></td><td>1.005 - 1.03</td><td>{nominal}</td></tr><tr><td>pH of Urine by Test strip</td><td>6.1</td><td>4.5 - 7</td><td>pH</td></tr><tr><td>Protein [Mass/volume] in Urine by Test strip</td><td><strong>318.1 H</strong></td><td>0 - 145</td><td>mg/dL</td></tr><tr><td>Protein [Presence] in Urine by Test strip</td><td>Urine protein test = ++</td><td></td><td></td></tr><tr><td>Nitrite [Presence] in Urine by Test strip</td><td>Urine nitrite negative</td><td></td><td></td></tr><tr><td>Hemoglobin [Presence] in Urine by Test strip</td><td>Urine blood test = negative</td><td></td><td></td></tr><tr><td>Leukocyte esterase [Presence] in Urine by Test strip</td><td>Urine leukocyte test negative</td><td></td><td></td></tr></tbody></table></div>"
                },
                "title": "Urinalysis"
              },
              {
                "code": {
                  "coding": [
                    {
                      "code": "$LP7846-1",
                      "system": "http://loinc.org",
                      "display": "Specimen information"
                    }
                  ],
                  "text": "Specimen information"
                },
                "entry": [
                  {
                    "reference": "urn:uuid:fd891239-fad1-4e7b-a9ae-1493f6e0544f"
                  },
                  {
                    "reference": "urn:uuid:1c1af0bb-44b3-4d6e-b10e-42f4406e284e"
                  },
                  {
                    "reference": "urn:uuid:de00d645-6d31-446a-8cae-430069140b9b"
                  },
                  {
                    "reference": "urn:uuid:cd1b600b-75c5-43bd-8249-5ed45dc4b631"
                  }
                ],
                "text": {
                  "status": "generated",
                  "div": "<div xmlns=\"http://www.w3.org/1999/xhtml\"><h3>Specimen information</h3><table class=\"hl7__eu__lab__report\"><thead><tr><th>Test</th><th>23-MAR-2025</th><th>Specimen</th><th></th></tr></thead><tbody><tr><td>Appearance of Urine</td><td>Cloudy urine</td><td>Urine</td><td></td></tr><tr><td>Odor of Urine</td><td>Urine smell ammoniacal</td><td>Urine</td><td></td></tr><tr><td>Clarity of Urine</td><td>Translucent</td><td>Urine</td><td></td></tr><tr><td>Color of Urine</td><td>Brown color</td><td>Urine</td><td></td></tr></tbody></table></div>"
                },
                "title": "Specimen information"
              }
            ],
            "title": "Laboratory Report"
          },
          {
            "text": {
              "status": "generated",
              "div": "<div xmlns=\"http://www.w3.org/1999/xhtml\"><h3>Annotation</h3><table class=\"hl7__eu__lab__report\"><tr><th>Conclusion and Recommendations based on this report and previous findings known to us</th></tr><tr><td>The patient shows elevated creatinine, low total CO₂, and proteinuria, suggesting possible renal impairment with mild metabolic acidosis. Urinalysis reveals protein, glucose, and ketones, with abnormal appearance and color, but no evidence of infection. Low HbA1c and normal glucose argue against chronic hyperglycemia. Recommend further renal evaluation and assessment for possible acute or chronic kidney disease and underlying causes of proteinuria and glucosuria.</td></tr></table></div>"
            },
            "code": {
              "coding": [
                {
                  "system": "http://loinc.org",
                  "code": "48767-8",
                  "display": "Annotation comment"
                }
              ]
            },
            "title": "Annotation comment"
          }
        ],
        "status": "final",
        "subject": {
          "reference": "urn:uuid:1bde684f-6909-40d6-b392-96f7363837c3",
          "display": "Iva Kratochvílová"
        },
        "date": "2025-03-23T17:10:29Z",
        "title": "Laboratory Report",
        "confidentiality": "N"
      }
    },
    {
      "fullUrl": "urn:uuid:652b55ad-648d-416b-b990-abff37e2bb43",
      "resource": {
        "resourceType": "DiagnosticReport",
        "id": "652b55ad-648d-416b-b990-abff37e2bb43",
        "meta": {
          "profile": [
            "http://hl7.eu/fhir/laboratory/StructureDefinition/DiagnosticReport-eu-lab"
          ]
        },
        "identifier": [
          {
            "assigner": {
              "display": "HL7 Europe"
            },
            "system": "urn:oid:2.16.840.1.113883.2.51.999",
            "value": "74f58c44-1d00-411f-8fe9-89276e8820f3"
          }
        ],
        "extension": [
          {
            "url": "http://hl7.org/fhir/5.0/StructureDefinition/extension-DiagnosticReport.composition",
            "valueReference": {
              "reference": "urn:uuid:469d2ea4-9b74-4cba-921f-bc69e45494e0"
            }
          }
        ],
        "category": [
          {
            "coding": [
              {
                "code": "26436-6",
                "system": "http://loinc.org",
                "display": "Laboratory studies (set)"
              }
            ]
          }
        ],
        "specimen": [
          {
            "reference": "urn:uuid:4bb13594-1fd8-4425-9e47-09f521bb075b"
          },
          {
            "reference": "urn:uuid:f2afa205-3974-4595-b5be-a3e4ea2da560"
          },
          {
            "reference": "urn:uuid:2f79e30e-8d13-43cc-b524-81dd85ddf05a"
          }
        ],
        "result": [
          {
            "reference": "urn:uuid:3affa252-b4ce-41a4-97f9-eed73751625d"
          },
          {
            "reference": "urn:uuid:9f0c5764-c564-4e0c-9c52-5dff8bf223ea"
          },
          {
            "reference": "urn:uuid:eeee744c-01ca-44c8-9744-8839c8a91919"
          },
          {
            "reference": "urn:uuid:cb5f7945-18ed-4980-804c-6d565bd73c7a"
          },
          {
            "reference": "urn:uuid:50d51569-dbf5-4a95-bcf8-8ba3655aa3bf"
          },
          {
            "reference": "urn:uuid:df1387f7-1c9a-428f-8993-e807b6f6fca8"
          },
          {
            "reference": "urn:uuid:a51a86c3-bf0b-4355-9ec5-d14371b98ba3"
          },
          {
            "reference": "urn:uuid:13bcaa38-6a38-4e73-b4cd-aa2aa472e45b"
          },
          {
            "reference": "urn:uuid:fd891239-fad1-4e7b-a9ae-1493f6e0544f"
          },
          {
            "reference": "urn:uuid:1c1af0bb-44b3-4d6e-b10e-42f4406e284e"
          },
          {
            "reference": "urn:uuid:de00d645-6d31-446a-8cae-430069140b9b"
          },
          {
            "reference": "urn:uuid:cd1b600b-75c5-43bd-8249-5ed45dc4b631"
          },
          {
            "reference": "urn:uuid:55c0f1d6-3d36-491e-b8b1-6b86681b5211"
          },
          {
            "reference": "urn:uuid:9816eaea-92a6-4d82-a82c-474662882bd3"
          },
          {
            "reference": "urn:uuid:2847c566-99f7-4a73-97b0-6bc9db4e7f78"
          },
          {
            "reference": "urn:uuid:95e909d4-277a-4503-9d91-16801cbfdd0f"
          },
          {
            "reference": "urn:uuid:6297713a-3bf5-424a-ae5b-bed0db000659"
          },
          {
            "reference": "urn:uuid:49df2f52-f2f9-464e-99f4-2037f097fef5"
          },
          {
            "reference": "urn:uuid:08dc0c8d-1ce8-4341-956e-e12bde825576"
          },
          {
            "reference": "urn:uuid:90255342-c92e-4697-8547-97325ddf887e"
          },
          {
            "reference": "urn:uuid:4bf41eab-d582-4b49-a0e7-accd4d0ff317"
          },
          {
            "reference": "urn:uuid:ce001e97-61f6-4721-ad25-a9a7d0c90df2"
          },
          {
            "reference": "urn:uuid:a01b4b96-4810-44bd-aac1-58785f8c0eab"
          },
          {
            "reference": "urn:uuid:62fba8c6-60a6-4e45-ae95-76c73d0b698b"
          },
          {
            "reference": "urn:uuid:f45d0a2a-1915-4a44-8ae5-a3f8f648ca9a"
          },
          {
            "reference": "urn:uuid:cf774fdd-e44e-48ce-b644-924320d93738"
          },
          {
            "reference": "urn:uuid:6f9664d8-9368-4b70-8349-2280aa007a35"
          },
          {
            "reference": "urn:uuid:87d1c149-fd5c-4145-9cf1-0cae1f43a1ed"
          },
          {
            "reference": "urn:uuid:1e44f844-dd41-410e-829a-86099ec88a7b"
          },
          {
            "reference": "urn:uuid:33bf3e90-ad42-47e9-8ca6-f7b2114a6f19"
          },
          {
            "reference": "urn:uuid:7c40f0d9-487e-42b4-a0d3-056ea0e8b960"
          },
          {
            "reference": "urn:uuid:a5a21f69-6765-42f8-8cf1-271fc9b225a3"
          },
          {
            "reference": "urn:uuid:de19678e-abe2-43ba-88b0-d58fb9c23b2a"
          },
          {
            "reference": "urn:uuid:9625ac8e-51e5-4327-b6c6-00ad1e5f64bb"
          },
          {
            "reference": "urn:uuid:0cefcfe2-96de-4173-8122-c468c209eb46"
          },
          {
            "reference": "urn:uuid:fe28bc39-5bfb-44bd-9f6a-8abb28459755"
          },
          {
            "reference": "urn:uuid:76e49b19-e90c-438a-902d-69ed5f2ef604"
          },
          {
            "reference": "urn:uuid:d7b8f0e6-fc42-47ec-b69e-b92151c0ce29"
          }
        ],
        "status": "registered",
        "code": {
          "coding": [
            {
              "code": "11502-2",
              "system": "http://loinc.org",
              "display": "Laboratory report"
            }
          ]
        },
        "subject": {
          "reference": "urn:uuid:1bde684f-6909-40d6-b392-96f7363837c3",
          "display": "Iva Kratochvílová"
        }
      }
    },
    {
      "fullUrl": "urn:uuid:1bde684f-6909-40d6-b392-96f7363837c3",
      "resource": {
        "resourceType": "Patient",
        "id": "1bde684f-6909-40d6-b392-96f7363837c3",
        "meta": {
          "security": [
            {
              "system": "http://terminology.hl7.org/CodeSystem/v3-ActReason",
              "code": "HTEST"
            },
            {
              "system": "http://terminology.hl7.org/CodeSystem/v3-ActReason",
              "code": "TRAIN"
            }
          ],
          "tag": [
            {
              "system": "https://synderai.net/fhir/CodeSystem/tags",
              "code": "synthetic",
              "display": "SYNDERAI Synthetic data"
            }
          ],
          "profile": [
            "http://hl7.eu/fhir/base/StructureDefinition/patient-eu-core"
          ]
        },
        "identifier": [
          {
            "type": {
              "coding": [
                {
                  "code": "PT",
                  "system": "http://terminology.hl7.org/CodeSystem/v2-0203"
                }
              ]
            },
            "system": "http://ec.europa.eu/identifier/eci",
            "value": "4380-389488-0"
          },
          {
            "type": {
              "coding": [
                {
                  "code": "MR",
                  "system": "http://terminology.hl7.org/CodeSystem/v2-0203"
                }
              ]
            },
            "system": "http://local.setting.eu/identifier",
            "value": "f8f9ebdc-03dd-2fc0-819c-affa4ffd7f67"
          }
        ],
        "name": [
          {
            "family": "Kratochvílová"
          },
          {
            "given": [
              "Iva"
            ]
          },
          {
            "text": "Iva Kratochvílová"
          }
        ],
        "address": [
          {
            "line": [
              "Žofie Podlipské 4"
            ],
            "use": "home",
            "type": "physical",
            "postalCode": "27324",
            "city": "Postoloprty",
            "country": "Czechia"
          }
        ],
        "telecom": [
          {
            "system": "phone",
            "value": "00420 607 985 072"
          }
        ],
        "extension": [
          {
            "url": "http://hl7.org/fhir/StructureDefinition/patient-nationality",
            "valueCodeableConcept": {
              "coding": [
                {
                  "code": "CZ",
                  "system": "http://hl7.org/fhir/ValueSet/country"
                }
              ]
            }
          }
        ],
        "text": {
          "status": "generated",
          "div": "<div xmlns=\"http://www.w3.org/1999/xhtml\"><table class=\"hl7__ips\"><tr><td>Iva Kratochvílová</td><td>female</td><td>17-Sep-1964</td></tr></table></div>"
        },
        "gender": "female",
        "birthDate": "1964-09-17"
      }
    },
    {
      "fullUrl": "urn:uuid:254362d8-fc43-4abc-8b18-4ad332518db5",
      "resource": {
        "resourceType": "ServiceRequest",
        "id": "254362d8-fc43-4abc-8b18-4ad332518db5",
        "meta": {
          "profile": [
            "http://hl7.eu/fhir/laboratory/StructureDefinition/ServiceRequest-eu-lab"
          ]
        },
        "identifier": [
          {
            "system": "http://example.org",
            "value": "1039f0c9-9370-4004-aff5-a28bdf16562c"
          }
        ],
        "specimen": [
          {
            "reference": "urn:uuid:4bb13594-1fd8-4425-9e47-09f521bb075b"
          },
          {
            "reference": "urn:uuid:f2afa205-3974-4595-b5be-a3e4ea2da560"
          },
          {
            "reference": "urn:uuid:2f79e30e-8d13-43cc-b524-81dd85ddf05a"
          }
        ],
        "reasonCode": [
          {
            "coding": [
              {
                "code": "431856006",
                "system": "http://snomed.info/sct",
                "display": "Chronic kidney disease stage 2"
              }
            ]
          },
          {
            "coding": [
              {
                "code": "431855005",
                "system": "http://snomed.info/sct",
                "display": "Chronic kidney disease stage 1"
              }
            ]
          },
          {
            "coding": [
              {
                "code": "237602007",
                "system": "http://snomed.info/sct",
                "display": "Metabolic syndrome X"
              }
            ]
          },
          {
            "coding": [
              {
                "code": "91302008",
                "system": "http://snomed.info/sct",
                "display": "Sepsis"
              }
            ]
          },
          {
            "coding": [
              {
                "code": "271737000",
                "system": "http://snomed.info/sct",
                "display": "Anemia"
              }
            ]
          },
          {
            "coding": [
              {
                "code": "15777000",
                "system": "http://snomed.info/sct",
                "display": "Prediabetes"
              }
            ]
          },
          {
            "coding": [
              {
                "code": "157141000119108",
                "system": "http://snomed.info/sct",
                "display": "Proteinuria due to type 2 diabetes mellitus"
              }
            ]
          },
          {
            "coding": [
              {
                "code": "90781000119102",
                "system": "http://snomed.info/sct",
                "display": "Microalbuminuria due to type 2 diabetes mellitus"
              }
            ]
          },
          {
            "coding": [
              {
                "code": "239872002",
                "system": "http://snomed.info/sct",
                "display": "Osteoarthritis of hip"
              }
            ]
          },
          {
            "coding": [
              {
                "code": "40055000",
                "system": "http://snomed.info/sct",
                "display": "Chronic sinusitis"
              }
            ]
          },
          {
            "coding": [
              {
                "code": "127013003",
                "system": "http://snomed.info/sct",
                "display": "Disorder of kidney due to diabetes mellitus"
              }
            ]
          },
          {
            "coding": [
              {
                "code": "59621000",
                "system": "http://snomed.info/sct",
                "display": "Essential hypertension"
              }
            ]
          }
        ],
        "status": "active",
        "intent": "order",
        "code": {
          "coding": [
            {
              "code": "108252007",
              "system": "http://snomed.info/sct",
              "display": "Laboratory procedure"
            }
          ]
        },
        "subject": {
          "reference": "urn:uuid:1bde684f-6909-40d6-b392-96f7363837c3",
          "display": "Iva Kratochvílová"
        },
        "requester": {
          "reference": "urn:uuid:1d0f235b-6bb1-4555-a894-66dbb24f5786"
        }
      }
    },
    {
      "fullUrl": "urn:uuid:1d0f235b-6bb1-4555-a894-66dbb24f5786",
      "resource": {
        "resourceType": "PractitionerRole",
        "id": "1d0f235b-6bb1-4555-a894-66dbb24f5786",
        "meta": {
          "profile": [
            "http://hl7.eu/fhir/base/StructureDefinition/practitionerRole-eu"
          ]
        },
        "text": {
          "status": "generated",
          "div": "<div xmlns=\"http://www.w3.org/1999/xhtml\">Provider Role Id: 1d0f235b-6bb1-4555-a894-66dbb24f5786</div>"
        },
        "organization": {
          "reference": "urn:uuid:ca020a27-1d0b-4b80-a6bd-078adf6ac7b7"
        }
      }
    },
    {
      "fullUrl": "urn:uuid:ca020a27-1d0b-4b80-a6bd-078adf6ac7b7",
      "resource": {
        "resourceType": "Organization",
        "id": "ca020a27-1d0b-4b80-a6bd-078adf6ac7b7",
        "meta": {
          "profile": [
            "http://hl7.eu/fhir/base/StructureDefinition/organization-eu"
          ]
        },
        "identifier": [
          {
            "assigner": {
              "display": "HL7 Europe"
            },
            "system": "urn:oid:2.16.840.1.113883.2.51.999",
            "value": "5198f9f2-d8ca-4b45-ac0d-94cc6d2176fa"
          }
        ],
        "address": [
          {
            "city": "Kadaň",
            "postalCode": "432 01",
            "country": "Czechia"
          }
        ],
        "text": {
          "status": "generated",
          "div": "<div xmlns=\"http://www.w3.org/1999/xhtml\">Provider Organization: Nemocnice s poliklinikou Kadaň</div>"
        },
        "name": "Nemocnice s poliklinikou Kadaň"
      }
    },
    {
      "fullUrl": "urn:uuid:4bb13594-1fd8-4425-9e47-09f521bb075b",
      "resource": {
        "resourceType": "Specimen",
        "id": "4bb13594-1fd8-4425-9e47-09f521bb075b",
        "meta": {
          "profile": [
            "http://hl7.eu/fhir/laboratory/StructureDefinition/Specimen-eu-lab"
          ]
        },
        "collection": {
          "collectedDateTime": "2025-03-23"
        },
        "text": {
          "status": "generated",
          "div": "<div xmlns=\"http://www.w3.org/1999/xhtml\"><table class=\"hl7__eu__lab__report\"><tr><th>Specimen</th><th>Collection Date</th></tr><tr><td>Acellular blood (serum or plasma) specimen</td><td><span class=\"nb\">23-Mar-2025</span></td></tr></table></div>"
        },
        "type": {
          "coding": [
            {
              "code": "122592007",
              "system": "http://snomed.info/sct",
              "display": "Acellular blood (serum or plasma) specimen"
            }
          ]
        }
      }
    },
    {
      "fullUrl": "urn:uuid:f2afa205-3974-4595-b5be-a3e4ea2da560",
      "resource": {
        "resourceType": "Specimen",
        "id": "f2afa205-3974-4595-b5be-a3e4ea2da560",
        "meta": {
          "profile": [
            "http://hl7.eu/fhir/laboratory/StructureDefinition/Specimen-eu-lab"
          ]
        },
        "collection": {
          "collectedDateTime": "2025-03-23"
        },
        "text": {
          "status": "generated",
          "div": "<div xmlns=\"http://www.w3.org/1999/xhtml\"><table class=\"hl7__eu__lab__report\"><tr><th>Specimen</th><th>Collection Date</th></tr><tr><td>Urine specimen</td><td><span class=\"nb\">23-Mar-2025</span></td></tr></table></div>"
        },
        "type": {
          "coding": [
            {
              "code": "122575003",
              "system": "http://snomed.info/sct",
              "display": "Urine specimen"
            }
          ]
        }
      }
    },
    {
      "fullUrl": "urn:uuid:2f79e30e-8d13-43cc-b524-81dd85ddf05a",
      "resource": {
        "resourceType": "Specimen",
        "id": "2f79e30e-8d13-43cc-b524-81dd85ddf05a",
        "meta": {
          "profile": [
            "http://hl7.eu/fhir/laboratory/StructureDefinition/Specimen-eu-lab"
          ]
        },
        "collection": {
          "collectedDateTime": "2025-03-23"
        },
        "text": {
          "status": "generated",
          "div": "<div xmlns=\"http://www.w3.org/1999/xhtml\"><table class=\"hl7__eu__lab__report\"><tr><th>Specimen</th><th>Collection Date</th></tr><tr><td>Whole blood specimen (specimen)</td><td><span class=\"nb\">23-Mar-2025</span></td></tr></table></div>"
        },
        "type": {
          "coding": [
            {
              "code": "258580003",
              "system": "http://snomed.info/sct",
              "display": "Whole blood specimen (specimen)"
            }
          ]
        }
      }
    },
    {
      "fullUrl": "urn:uuid:3affa252-b4ce-41a4-97f9-eed73751625d",
      "resource": {
        "resourceType": "Observation",
        "id": "3affa252-b4ce-41a4-97f9-eed73751625d",
        "meta": {
          "profile": [
            "http://hl7.eu/fhir/laboratory/StructureDefinition/Observation-resultslab-eu-lab"
          ]
        },
        "performer": [
          {
            "display": "The Central European Lab"
          }
        ],
        "category": [
          {
            "coding": [
              {
                "system": "http://terminology.hl7.org/CodeSystem/observation-category",
                "code": "laboratory"
              }
            ]
          }
        ],
        "code": {
          "coding": [
            {
              "code": "2345-7",
              "system": "http://loinc.org",
              "display": "Glucose [Mass/volume] in Serum or Plasma"
            }
          ],
          "text": "Glucose [Mass/volume] in Serum or Plasma"
        },
        "valueQuantity": {
          "system": "http://unitsofmeasure.org",
          "value": 89.6,
          "unit": "mg/dL",
          "code": "mg/dL"
        },
        "referenceRange": [
          {
            "low": {
              "value": 70,
              "code": "mg/dL",
              "system": "http://unitsofmeasure.org"
            }
          },
          {
            "high": {
              "value": 99,
              "code": "mg/dL",
              "system": "http://unitsofmeasure.org"
            }
          }
        ],
        "text": {
          "status": "generated",
          "div": "<div xmlns=\"http://www.w3.org/1999/xhtml\"><table class=\"hl7__eu__lab__report\"><tr><th>Test</th><th>23-Mar-2025</th><th>Reference&#xA0;Range</th><th>Unit</th></tr><tr><td>Glucose [Mass/volume] in Serum or Plasma</td><td>89.6</td><td>70 - 99</td><td></td><td>mg/dL</td></tr></table></div>"
        },
        "status": "final",
        "subject": {
          "reference": "urn:uuid:1bde684f-6909-40d6-b392-96f7363837c3",
          "display": "Iva Kratochvílová"
        },
        "effectiveDateTime": "2025-03-23T16:10:29Z",
        "specimen": {
          "reference": "urn:uuid:4bb13594-1fd8-4425-9e47-09f521bb075b"
        }
      }
    },
    {
      "fullUrl": "urn:uuid:9f0c5764-c564-4e0c-9c52-5dff8bf223ea",
      "resource": {
        "resourceType": "Observation",
        "id": "9f0c5764-c564-4e0c-9c52-5dff8bf223ea",
        "meta": {
          "profile": [
            "http://hl7.eu/fhir/laboratory/StructureDefinition/Observation-resultslab-eu-lab"
          ]
        },
        "performer": [
          {
            "display": "The Central European Lab"
          }
        ],
        "category": [
          {
            "coding": [
              {
                "system": "http://terminology.hl7.org/CodeSystem/observation-category",
                "code": "laboratory"
              }
            ]
          }
        ],
        "code": {
          "coding": [
            {
              "code": "3094-0",
              "system": "http://loinc.org",
              "display": "Urea nitrogen [Mass/volume] in Serum or Plasma"
            }
          ],
          "text": "Urea nitrogen [Mass/volume] in Serum or Plasma"
        },
        "valueQuantity": {
          "system": "http://unitsofmeasure.org",
          "value": 7.4,
          "unit": "mg/dL",
          "code": "mg/dL"
        },
        "referenceRange": [
          {
            "low": {
              "value": 7,
              "code": "mg/dL",
              "system": "http://unitsofmeasure.org"
            }
          },
          {
            "high": {
              "value": 20,
              "code": "mg/dL",
              "system": "http://unitsofmeasure.org"
            }
          }
        ],
        "text": {
          "status": "generated",
          "div": "<div xmlns=\"http://www.w3.org/1999/xhtml\"><table class=\"hl7__eu__lab__report\"><tr><th>Test</th><th>23-Mar-2025</th><th>Reference&#xA0;Range</th><th>Unit</th></tr><tr><td>Urea nitrogen [Mass/volume] in Serum or Plasma</td><td>7.4</td><td>7 - 20</td><td></td><td>mg/dL</td></tr></table></div>"
        },
        "status": "final",
        "subject": {
          "reference": "urn:uuid:1bde684f-6909-40d6-b392-96f7363837c3",
          "display": "Iva Kratochvílová"
        },
        "effectiveDateTime": "2025-03-23T16:10:29Z",
        "specimen": {
          "reference": "urn:uuid:4bb13594-1fd8-4425-9e47-09f521bb075b"
        }
      }
    },
    {
      "fullUrl": "urn:uuid:eeee744c-01ca-44c8-9744-8839c8a91919",
      "resource": {
        "resourceType": "Observation",
        "id": "eeee744c-01ca-44c8-9744-8839c8a91919",
        "meta": {
          "profile": [
            "http://hl7.eu/fhir/laboratory/StructureDefinition/Observation-resultslab-eu-lab"
          ]
        },
        "performer": [
          {
            "display": "The Central European Lab"
          }
        ],
        "category": [
          {
            "coding": [
              {
                "system": "http://terminology.hl7.org/CodeSystem/observation-category",
                "code": "laboratory"
              }
            ]
          }
        ],
        "code": {
          "coding": [
            {
              "code": "2160-0",
              "system": "http://loinc.org",
              "display": "Creatinine [Mass/volume] in Serum or Plasma"
            }
          ],
          "text": "Creatinine [Mass/volume] in Serum or Plasma"
        },
        "valueQuantity": {
          "system": "http://unitsofmeasure.org",
          "value": 1.9,
          "unit": "mg/dL",
          "code": "mg/dL"
        },
        "referenceRange": [
          {
            "low": {
              "value": 0.6,
              "code": "mg/dL",
              "system": "http://unitsofmeasure.org"
            }
          },
          {
            "high": {
              "value": 1.3,
              "code": "mg/dL",
              "system": "http://unitsofmeasure.org"
            }
          }
        ],
        "interpretation": [
          {
            "coding": [
              {
                "code": "H",
                "system": "http://terminology.hl7.org/CodeSystem/v3-ObservationInterpretation",
                "display": "High"
              }
            ]
          }
        ],
        "text": {
          "status": "generated",
          "div": "<div xmlns=\"http://www.w3.org/1999/xhtml\"><table class=\"hl7__eu__lab__report\"><tr><th>Test</th><th>23-Mar-2025</th><th>Reference&#xA0;Range</th><th>Unit</th></tr><tr><td>Creatinine [Mass/volume] in Serum or Plasma</td><td>1.9</td><td>0.6 - 1.3</td><td>H</td><td>mg/dL</td></tr></table></div>"
        },
        "status": "final",
        "subject": {
          "reference": "urn:uuid:1bde684f-6909-40d6-b392-96f7363837c3",
          "display": "Iva Kratochvílová"
        },
        "effectiveDateTime": "2025-03-23T16:10:29Z",
        "specimen": {
          "reference": "urn:uuid:4bb13594-1fd8-4425-9e47-09f521bb075b"
        }
      }
    },
    {
      "fullUrl": "urn:uuid:cb5f7945-18ed-4980-804c-6d565bd73c7a",
      "resource": {
        "resourceType": "Observation",
        "id": "cb5f7945-18ed-4980-804c-6d565bd73c7a",
        "meta": {
          "profile": [
            "http://hl7.eu/fhir/laboratory/StructureDefinition/Observation-resultslab-eu-lab"
          ]
        },
        "performer": [
          {
            "display": "The Central European Lab"
          }
        ],
        "category": [
          {
            "coding": [
              {
                "system": "http://terminology.hl7.org/CodeSystem/observation-category",
                "code": "laboratory"
              }
            ]
          }
        ],
        "code": {
          "coding": [
            {
              "code": "17861-6",
              "system": "http://loinc.org",
              "display": "Calcium [Mass/volume] in Serum or Plasma"
            }
          ],
          "text": "Calcium [Mass/volume] in Serum or Plasma"
        },
        "valueQuantity": {
          "system": "http://unitsofmeasure.org",
          "value": 10.1,
          "unit": "mg/dL",
          "code": "mg/dL"
        },
        "referenceRange": [
          {
            "low": {
              "value": 8.6,
              "code": "mg/dL",
              "system": "http://unitsofmeasure.org"
            }
          },
          {
            "high": {
              "value": 10.4,
              "code": "mg/dL",
              "system": "http://unitsofmeasure.org"
            }
          }
        ],
        "text": {
          "status": "generated",
          "div": "<div xmlns=\"http://www.w3.org/1999/xhtml\"><table class=\"hl7__eu__lab__report\"><tr><th>Test</th><th>23-Mar-2025</th><th>Reference&#xA0;Range</th><th>Unit</th></tr><tr><td>Calcium [Mass/volume] in Serum or Plasma</td><td>10.1</td><td>8.6 - 10.4</td><td></td><td>mg/dL</td></tr></table></div>"
        },
        "status": "final",
        "subject": {
          "reference": "urn:uuid:1bde684f-6909-40d6-b392-96f7363837c3",
          "display": "Iva Kratochvílová"
        },
        "effectiveDateTime": "2025-03-23T16:10:29Z",
        "specimen": {
          "reference": "urn:uuid:4bb13594-1fd8-4425-9e47-09f521bb075b"
        }
      }
    },
    {
      "fullUrl": "urn:uuid:50d51569-dbf5-4a95-bcf8-8ba3655aa3bf",
      "resource": {
        "resourceType": "Observation",
        "id": "50d51569-dbf5-4a95-bcf8-8ba3655aa3bf",
        "meta": {
          "profile": [
            "http://hl7.eu/fhir/laboratory/StructureDefinition/Observation-resultslab-eu-lab"
          ]
        },
        "performer": [
          {
            "display": "The Central European Lab"
          }
        ],
        "category": [
          {
            "coding": [
              {
                "system": "http://terminology.hl7.org/CodeSystem/observation-category",
                "code": "laboratory"
              }
            ]
          }
        ],
        "code": {
          "coding": [
            {
              "code": "2951-2",
              "system": "http://loinc.org",
              "display": "Sodium [Moles/volume] in Serum or Plasma"
            }
          ],
          "text": "Sodium [Moles/volume] in Serum or Plasma"
        },
        "valueQuantity": {
          "system": "http://unitsofmeasure.org",
          "value": 138.8,
          "unit": "mmol/L",
          "code": "mmol/L"
        },
        "referenceRange": [
          {
            "low": {
              "value": 135,
              "code": "mmol/L",
              "system": "http://unitsofmeasure.org"
            }
          },
          {
            "high": {
              "value": 145,
              "code": "mmol/L",
              "system": "http://unitsofmeasure.org"
            }
          }
        ],
        "text": {
          "status": "generated",
          "div": "<div xmlns=\"http://www.w3.org/1999/xhtml\"><table class=\"hl7__eu__lab__report\"><tr><th>Test</th><th>23-Mar-2025</th><th>Reference&#xA0;Range</th><th>Unit</th></tr><tr><td>Sodium [Moles/volume] in Serum or Plasma</td><td>138.8</td><td>135 - 145</td><td></td><td>mmol/L</td></tr></table></div>"
        },
        "status": "final",
        "subject": {
          "reference": "urn:uuid:1bde684f-6909-40d6-b392-96f7363837c3",
          "display": "Iva Kratochvílová"
        },
        "effectiveDateTime": "2025-03-23T16:10:29Z",
        "specimen": {
          "reference": "urn:uuid:4bb13594-1fd8-4425-9e47-09f521bb075b"
        }
      }
    },
    {
      "fullUrl": "urn:uuid:df1387f7-1c9a-428f-8993-e807b6f6fca8",
      "resource": {
        "resourceType": "Observation",
        "id": "df1387f7-1c9a-428f-8993-e807b6f6fca8",
        "meta": {
          "profile": [
            "http://hl7.eu/fhir/laboratory/StructureDefinition/Observation-resultslab-eu-lab"
          ]
        },
        "performer": [
          {
            "display": "The Central European Lab"
          }
        ],
        "category": [
          {
            "coding": [
              {
                "system": "http://terminology.hl7.org/CodeSystem/observation-category",
                "code": "laboratory"
              }
            ]
          }
        ],
        "code": {
          "coding": [
            {
              "code": "2823-3",
              "system": "http://loinc.org",
              "display": "Potassium [Moles/volume] in Serum or Plasma"
            }
          ],
          "text": "Potassium [Moles/volume] in Serum or Plasma"
        },
        "valueQuantity": {
          "system": "http://unitsofmeasure.org",
          "value": 3.8,
          "unit": "mmol/L",
          "code": "mmol/L"
        },
        "referenceRange": [
          {
            "low": {
              "value": 3.5,
              "code": "mmol/L",
              "system": "http://unitsofmeasure.org"
            }
          },
          {
            "high": {
              "value": 5,
              "code": "mmol/L",
              "system": "http://unitsofmeasure.org"
            }
          }
        ],
        "text": {
          "status": "generated",
          "div": "<div xmlns=\"http://www.w3.org/1999/xhtml\"><table class=\"hl7__eu__lab__report\"><tr><th>Test</th><th>23-Mar-2025</th><th>Reference&#xA0;Range</th><th>Unit</th></tr><tr><td>Potassium [Moles/volume] in Serum or Plasma</td><td>3.8</td><td>3.5 - 5</td><td></td><td>mmol/L</td></tr></table></div>"
        },
        "status": "final",
        "subject": {
          "reference": "urn:uuid:1bde684f-6909-40d6-b392-96f7363837c3",
          "display": "Iva Kratochvílová"
        },
        "effectiveDateTime": "2025-03-23T16:10:29Z",
        "specimen": {
          "reference": "urn:uuid:4bb13594-1fd8-4425-9e47-09f521bb075b"
        }
      }
    },
    {
      "fullUrl": "urn:uuid:a51a86c3-bf0b-4355-9ec5-d14371b98ba3",
      "resource": {
        "resourceType": "Observation",
        "id": "a51a86c3-bf0b-4355-9ec5-d14371b98ba3",
        "meta": {
          "profile": [
            "http://hl7.eu/fhir/laboratory/StructureDefinition/Observation-resultslab-eu-lab"
          ]
        },
        "performer": [
          {
            "display": "The Central European Lab"
          }
        ],
        "category": [
          {
            "coding": [
              {
                "system": "http://terminology.hl7.org/CodeSystem/observation-category",
                "code": "laboratory"
              }
            ]
          }
        ],
        "code": {
          "coding": [
            {
              "code": "2075-0",
              "system": "http://loinc.org",
              "display": "Chloride [Moles/volume] in Serum or Plasma"
            }
          ],
          "text": "Chloride [Moles/volume] in Serum or Plasma"
        },
        "valueQuantity": {
          "system": "http://unitsofmeasure.org",
          "value": 106.4,
          "unit": "mmol/L",
          "code": "mmol/L"
        },
        "referenceRange": [
          {
            "low": {
              "value": 98,
              "code": "mmol/L",
              "system": "http://unitsofmeasure.org"
            }
          },
          {
            "high": {
              "value": 106,
              "code": "mmol/L",
              "system": "http://unitsofmeasure.org"
            }
          }
        ],
        "interpretation": [
          {
            "coding": [
              {
                "code": "H",
                "system": "http://terminology.hl7.org/CodeSystem/v3-ObservationInterpretation",
                "display": "High"
              }
            ]
          }
        ],
        "text": {
          "status": "generated",
          "div": "<div xmlns=\"http://www.w3.org/1999/xhtml\"><table class=\"hl7__eu__lab__report\"><tr><th>Test</th><th>23-Mar-2025</th><th>Reference&#xA0;Range</th><th>Unit</th></tr><tr><td>Chloride [Moles/volume] in Serum or Plasma</td><td>106.4</td><td>98 - 106</td><td>H</td><td>mmol/L</td></tr></table></div>"
        },
        "status": "final",
        "subject": {
          "reference": "urn:uuid:1bde684f-6909-40d6-b392-96f7363837c3",
          "display": "Iva Kratochvílová"
        },
        "effectiveDateTime": "2025-03-23T16:10:29Z",
        "specimen": {
          "reference": "urn:uuid:4bb13594-1fd8-4425-9e47-09f521bb075b"
        }
      }
    },
    {
      "fullUrl": "urn:uuid:13bcaa38-6a38-4e73-b4cd-aa2aa472e45b",
      "resource": {
        "resourceType": "Observation",
        "id": "13bcaa38-6a38-4e73-b4cd-aa2aa472e45b",
        "meta": {
          "profile": [
            "http://hl7.eu/fhir/laboratory/StructureDefinition/Observation-resultslab-eu-lab"
          ]
        },
        "performer": [
          {
            "display": "The Central European Lab"
          }
        ],
        "category": [
          {
            "coding": [
              {
                "system": "http://terminology.hl7.org/CodeSystem/observation-category",
                "code": "laboratory"
              }
            ]
          }
        ],
        "code": {
          "coding": [
            {
              "code": "2028-9",
              "system": "http://loinc.org",
              "display": "Carbon dioxide, total [Moles/volume] in Serum or Plasma"
            }
          ],
          "text": "Carbon dioxide, total [Moles/volume] in Serum or Plasma"
        },
        "valueQuantity": {
          "system": "http://unitsofmeasure.org",
          "value": 21.3,
          "unit": "mmol/L",
          "code": "mmol/L"
        },
        "referenceRange": [
          {
            "low": {
              "value": 22,
              "code": "mmol/L",
              "system": "http://unitsofmeasure.org"
            }
          },
          {
            "high": {
              "value": 29,
              "code": "mmol/L",
              "system": "http://unitsofmeasure.org"
            }
          }
        ],
        "interpretation": [
          {
            "coding": [
              {
                "code": "L",
                "system": "http://terminology.hl7.org/CodeSystem/v3-ObservationInterpretation",
                "display": "Low"
              }
            ]
          }
        ],
        "text": {
          "status": "generated",
          "div": "<div xmlns=\"http://www.w3.org/1999/xhtml\"><table class=\"hl7__eu__lab__report\"><tr><th>Test</th><th>23-Mar-2025</th><th>Reference&#xA0;Range</th><th>Unit</th></tr><tr><td>Carbon dioxide, total [Moles/volume] in Serum or Plasma</td><td>21.3</td><td>22 - 29</td><td>L</td><td>mmol/L</td></tr></table></div>"
        },
        "status": "final",
        "subject": {
          "reference": "urn:uuid:1bde684f-6909-40d6-b392-96f7363837c3",
          "display": "Iva Kratochvílová"
        },
        "effectiveDateTime": "2025-03-23T16:10:29Z",
        "specimen": {
          "reference": "urn:uuid:4bb13594-1fd8-4425-9e47-09f521bb075b"
        }
      }
    },
    {
      "fullUrl": "urn:uuid:fd891239-fad1-4e7b-a9ae-1493f6e0544f",
      "resource": {
        "resourceType": "Observation",
        "id": "fd891239-fad1-4e7b-a9ae-1493f6e0544f",
        "meta": {
          "profile": [
            "http://hl7.eu/fhir/laboratory/StructureDefinition/Observation-resultslab-eu-lab"
          ]
        },
        "performer": [
          {
            "display": "The Central European Lab"
          }
        ],
        "category": [
          {
            "coding": [
              {
                "system": "http://terminology.hl7.org/CodeSystem/observation-category",
                "code": "laboratory"
              }
            ]
          }
        ],
        "code": {
          "coding": [
            {
              "code": "5767-9",
              "system": "http://loinc.org",
              "display": "Appearance of Urine"
            }
          ],
          "text": "Appearance of Urine"
        },
        "text": {
          "status": "generated",
          "div": "<div xmlns=\"http://www.w3.org/1999/xhtml\"><table class=\"hl7__eu__lab__report\"><tr><th>Test</th><th>23-Mar-2025</th><th>Reference&#xA0;Range</th><th>Unit</th></tr><tr><td>Appearance of Urine</td></tr></table></div>"
        },
        "status": "final",
        "subject": {
          "reference": "urn:uuid:1bde684f-6909-40d6-b392-96f7363837c3",
          "display": "Iva Kratochvílová"
        },
        "effectiveDateTime": "2025-03-23T16:10:29Z",
        "specimen": {
          "reference": "urn:uuid:f2afa205-3974-4595-b5be-a3e4ea2da560"
        }
      }
    },
    {
      "fullUrl": "urn:uuid:1c1af0bb-44b3-4d6e-b10e-42f4406e284e",
      "resource": {
        "resourceType": "Observation",
        "id": "1c1af0bb-44b3-4d6e-b10e-42f4406e284e",
        "meta": {
          "profile": [
            "http://hl7.eu/fhir/laboratory/StructureDefinition/Observation-resultslab-eu-lab"
          ]
        },
        "performer": [
          {
            "display": "The Central European Lab"
          }
        ],
        "category": [
          {
            "coding": [
              {
                "system": "http://terminology.hl7.org/CodeSystem/observation-category",
                "code": "laboratory"
              }
            ]
          }
        ],
        "code": {
          "coding": [
            {
              "code": "34533-0",
              "system": "http://loinc.org",
              "display": "Odor of Urine"
            }
          ],
          "text": "Odor of Urine"
        },
        "text": {
          "status": "generated",
          "div": "<div xmlns=\"http://www.w3.org/1999/xhtml\"><table class=\"hl7__eu__lab__report\"><tr><th>Test</th><th>23-Mar-2025</th><th>Reference&#xA0;Range</th><th>Unit</th></tr><tr><td>Odor of Urine</td></tr></table></div>"
        },
        "status": "final",
        "subject": {
          "reference": "urn:uuid:1bde684f-6909-40d6-b392-96f7363837c3",
          "display": "Iva Kratochvílová"
        },
        "effectiveDateTime": "2025-03-23T16:10:29Z",
        "specimen": {
          "reference": "urn:uuid:f2afa205-3974-4595-b5be-a3e4ea2da560"
        }
      }
    },
    {
      "fullUrl": "urn:uuid:de00d645-6d31-446a-8cae-430069140b9b",
      "resource": {
        "resourceType": "Observation",
        "id": "de00d645-6d31-446a-8cae-430069140b9b",
        "meta": {
          "profile": [
            "http://hl7.eu/fhir/laboratory/StructureDefinition/Observation-resultslab-eu-lab"
          ]
        },
        "performer": [
          {
            "display": "The Central European Lab"
          }
        ],
        "category": [
          {
            "coding": [
              {
                "system": "http://terminology.hl7.org/CodeSystem/observation-category",
                "code": "laboratory"
              }
            ]
          }
        ],
        "code": {
          "coding": [
            {
              "code": "32167-9",
              "system": "http://loinc.org",
              "display": "Clarity of Urine"
            }
          ],
          "text": "Clarity of Urine"
        },
        "text": {
          "status": "generated",
          "div": "<div xmlns=\"http://www.w3.org/1999/xhtml\"><table class=\"hl7__eu__lab__report\"><tr><th>Test</th><th>23-Mar-2025</th><th>Reference&#xA0;Range</th><th>Unit</th></tr><tr><td>Clarity of Urine</td></tr></table></div>"
        },
        "status": "final",
        "subject": {
          "reference": "urn:uuid:1bde684f-6909-40d6-b392-96f7363837c3",
          "display": "Iva Kratochvílová"
        },
        "effectiveDateTime": "2025-03-23T16:10:29Z",
        "specimen": {
          "reference": "urn:uuid:f2afa205-3974-4595-b5be-a3e4ea2da560"
        }
      }
    },
    {
      "fullUrl": "urn:uuid:cd1b600b-75c5-43bd-8249-5ed45dc4b631",
      "resource": {
        "resourceType": "Observation",
        "id": "cd1b600b-75c5-43bd-8249-5ed45dc4b631",
        "meta": {
          "profile": [
            "http://hl7.eu/fhir/laboratory/StructureDefinition/Observation-resultslab-eu-lab"
          ]
        },
        "performer": [
          {
            "display": "The Central European Lab"
          }
        ],
        "category": [
          {
            "coding": [
              {
                "system": "http://terminology.hl7.org/CodeSystem/observation-category",
                "code": "laboratory"
              }
            ]
          }
        ],
        "code": {
          "coding": [
            {
              "code": "5778-6",
              "system": "http://loinc.org",
              "display": "Color of Urine"
            }
          ],
          "text": "Color of Urine"
        },
        "text": {
          "status": "generated",
          "div": "<div xmlns=\"http://www.w3.org/1999/xhtml\"><table class=\"hl7__eu__lab__report\"><tr><th>Test</th><th>23-Mar-2025</th><th>Reference&#xA0;Range</th><th>Unit</th></tr><tr><td>Color of Urine</td></tr></table></div>"
        },
        "status": "final",
        "subject": {
          "reference": "urn:uuid:1bde684f-6909-40d6-b392-96f7363837c3",
          "display": "Iva Kratochvílová"
        },
        "effectiveDateTime": "2025-03-23T16:10:29Z",
        "specimen": {
          "reference": "urn:uuid:f2afa205-3974-4595-b5be-a3e4ea2da560"
        }
      }
    },
    {
      "fullUrl": "urn:uuid:55c0f1d6-3d36-491e-b8b1-6b86681b5211",
      "resource": {
        "resourceType": "Observation",
        "id": "55c0f1d6-3d36-491e-b8b1-6b86681b5211",
        "meta": {
          "profile": [
            "http://hl7.eu/fhir/laboratory/StructureDefinition/Observation-resultslab-eu-lab"
          ]
        },
        "performer": [
          {
            "display": "The Central European Lab"
          }
        ],
        "category": [
          {
            "coding": [
              {
                "system": "http://terminology.hl7.org/CodeSystem/observation-category",
                "code": "laboratory"
              }
            ]
          }
        ],
        "code": {
          "coding": [
            {
              "code": "5792-7",
              "system": "http://loinc.org",
              "display": "Glucose [Mass/volume] in Urine by Test strip"
            }
          ],
          "text": "Glucose [Mass/volume] in Urine by Test strip"
        },
        "valueQuantity": {
          "system": "http://unitsofmeasure.org",
          "value": 1.3,
          "unit": "mg/dL",
          "code": "mg/dL"
        },
        "referenceRange": [
          {
            "low": {
              "value": 0,
              "code": "mg/dL",
              "system": "http://unitsofmeasure.org"
            }
          },
          {
            "high": {
              "value": 0.8,
              "code": "mg/dL",
              "system": "http://unitsofmeasure.org"
            }
          }
        ],
        "interpretation": [
          {
            "coding": [
              {
                "code": "H",
                "system": "http://terminology.hl7.org/CodeSystem/v3-ObservationInterpretation",
                "display": "High"
              }
            ]
          }
        ],
        "text": {
          "status": "generated",
          "div": "<div xmlns=\"http://www.w3.org/1999/xhtml\"><table class=\"hl7__eu__lab__report\"><tr><th>Test</th><th>23-Mar-2025</th><th>Reference&#xA0;Range</th><th>Unit</th></tr><tr><td>Glucose [Mass/volume] in Urine by Test strip</td><td>1.3</td><td>0 - 0.8</td><td>H</td><td>mg/dL</td></tr></table></div>"
        },
        "status": "final",
        "subject": {
          "reference": "urn:uuid:1bde684f-6909-40d6-b392-96f7363837c3",
          "display": "Iva Kratochvílová"
        },
        "effectiveDateTime": "2025-03-23T16:10:29Z",
        "specimen": {
          "reference": "urn:uuid:f2afa205-3974-4595-b5be-a3e4ea2da560"
        }
      }
    },
    {
      "fullUrl": "urn:uuid:9816eaea-92a6-4d82-a82c-474662882bd3",
      "resource": {
        "resourceType": "Observation",
        "id": "9816eaea-92a6-4d82-a82c-474662882bd3",
        "meta": {
          "profile": [
            "http://hl7.eu/fhir/laboratory/StructureDefinition/Observation-resultslab-eu-lab"
          ]
        },
        "performer": [
          {
            "display": "The Central European Lab"
          }
        ],
        "category": [
          {
            "coding": [
              {
                "system": "http://terminology.hl7.org/CodeSystem/observation-category",
                "code": "laboratory"
              }
            ]
          }
        ],
        "code": {
          "coding": [
            {
              "code": "25428-4",
              "system": "http://loinc.org",
              "display": "Glucose [Presence] in Urine by Test strip"
            }
          ],
          "text": "Glucose [Presence] in Urine by Test strip"
        },
        "text": {
          "status": "generated",
          "div": "<div xmlns=\"http://www.w3.org/1999/xhtml\"><table class=\"hl7__eu__lab__report\"><tr><th>Test</th><th>23-Mar-2025</th><th>Reference&#xA0;Range</th><th>Unit</th></tr><tr><td>Glucose [Presence] in Urine by Test strip</td></tr></table></div>"
        },
        "status": "final",
        "subject": {
          "reference": "urn:uuid:1bde684f-6909-40d6-b392-96f7363837c3",
          "display": "Iva Kratochvílová"
        },
        "effectiveDateTime": "2025-03-23T16:10:29Z",
        "specimen": {
          "reference": "urn:uuid:f2afa205-3974-4595-b5be-a3e4ea2da560"
        }
      }
    },
    {
      "fullUrl": "urn:uuid:2847c566-99f7-4a73-97b0-6bc9db4e7f78",
      "resource": {
        "resourceType": "Observation",
        "id": "2847c566-99f7-4a73-97b0-6bc9db4e7f78",
        "meta": {
          "profile": [
            "http://hl7.eu/fhir/laboratory/StructureDefinition/Observation-resultslab-eu-lab"
          ]
        },
        "performer": [
          {
            "display": "The Central European Lab"
          }
        ],
        "category": [
          {
            "coding": [
              {
                "system": "http://terminology.hl7.org/CodeSystem/observation-category",
                "code": "laboratory"
              }
            ]
          }
        ],
        "code": {
          "coding": [
            {
              "code": "20505-4",
              "system": "http://loinc.org",
              "display": "Bilirubin.total [Mass/volume] in Urine by Test strip"
            }
          ],
          "text": "Bilirubin.total [Mass/volume] in Urine by Test strip"
        },
        "valueQuantity": {
          "system": "http://unitsofmeasure.org",
          "value": 0.9,
          "unit": "mg/dL",
          "code": "mg/dL"
        },
        "referenceRange": [
          {
            "low": {
              "value": 0,
              "code": "mg/dL",
              "system": "http://unitsofmeasure.org"
            }
          },
          {
            "high": {
              "value": 1,
              "code": "mg/dL",
              "system": "http://unitsofmeasure.org"
            }
          }
        ],
        "text": {
          "status": "generated",
          "div": "<div xmlns=\"http://www.w3.org/1999/xhtml\"><table class=\"hl7__eu__lab__report\"><tr><th>Test</th><th>23-Mar-2025</th><th>Reference&#xA0;Range</th><th>Unit</th></tr><tr><td>Bilirubin.total [Mass/volume] in Urine by Test strip</td><td>0.9</td><td>0 - 1</td><td></td><td>mg/dL</td></tr></table></div>"
        },
        "status": "final",
        "subject": {
          "reference": "urn:uuid:1bde684f-6909-40d6-b392-96f7363837c3",
          "display": "Iva Kratochvílová"
        },
        "effectiveDateTime": "2025-03-23T16:10:29Z",
        "specimen": {
          "reference": "urn:uuid:f2afa205-3974-4595-b5be-a3e4ea2da560"
        }
      }
    },
    {
      "fullUrl": "urn:uuid:95e909d4-277a-4503-9d91-16801cbfdd0f",
      "resource": {
        "resourceType": "Observation",
        "id": "95e909d4-277a-4503-9d91-16801cbfdd0f",
        "meta": {
          "profile": [
            "http://hl7.eu/fhir/laboratory/StructureDefinition/Observation-resultslab-eu-lab"
          ]
        },
        "performer": [
          {
            "display": "The Central European Lab"
          }
        ],
        "category": [
          {
            "coding": [
              {
                "system": "http://terminology.hl7.org/CodeSystem/observation-category",
                "code": "laboratory"
              }
            ]
          }
        ],
        "code": {
          "coding": [
            {
              "code": "5770-3",
              "system": "http://loinc.org",
              "display": "Bilirubin.total [Presence] in Urine by Test strip"
            }
          ],
          "text": "Bilirubin.total [Presence] in Urine by Test strip"
        },
        "text": {
          "status": "generated",
          "div": "<div xmlns=\"http://www.w3.org/1999/xhtml\"><table class=\"hl7__eu__lab__report\"><tr><th>Test</th><th>23-Mar-2025</th><th>Reference&#xA0;Range</th><th>Unit</th></tr><tr><td>Bilirubin.total [Presence] in Urine by Test strip</td></tr></table></div>"
        },
        "status": "final",
        "subject": {
          "reference": "urn:uuid:1bde684f-6909-40d6-b392-96f7363837c3",
          "display": "Iva Kratochvílová"
        },
        "effectiveDateTime": "2025-03-23T16:10:29Z",
        "specimen": {
          "reference": "urn:uuid:f2afa205-3974-4595-b5be-a3e4ea2da560"
        }
      }
    },
    {
      "fullUrl": "urn:uuid:6297713a-3bf5-424a-ae5b-bed0db000659",
      "resource": {
        "resourceType": "Observation",
        "id": "6297713a-3bf5-424a-ae5b-bed0db000659",
        "meta": {
          "profile": [
            "http://hl7.eu/fhir/laboratory/StructureDefinition/Observation-resultslab-eu-lab"
          ]
        },
        "performer": [
          {
            "display": "The Central European Lab"
          }
        ],
        "category": [
          {
            "coding": [
              {
                "system": "http://terminology.hl7.org/CodeSystem/observation-category",
                "code": "laboratory"
              }
            ]
          }
        ],
        "code": {
          "coding": [
            {
              "code": "5797-6",
              "system": "http://loinc.org",
              "display": "Ketones [Mass/volume] in Urine by Test strip"
            }
          ],
          "text": "Ketones [Mass/volume] in Urine by Test strip"
        },
        "valueQuantity": {
          "system": "http://unitsofmeasure.org",
          "value": 2,
          "unit": "mg/dL",
          "code": "mg/dL"
        },
        "referenceRange": [
          {
            "low": {
              "value": 0,
              "code": "mg/dL",
              "system": "http://unitsofmeasure.org"
            }
          },
          {
            "high": {
              "value": 4,
              "code": "mg/dL",
              "system": "http://unitsofmeasure.org"
            }
          }
        ],
        "text": {
          "status": "generated",
          "div": "<div xmlns=\"http://www.w3.org/1999/xhtml\"><table class=\"hl7__eu__lab__report\"><tr><th>Test</th><th>23-Mar-2025</th><th>Reference&#xA0;Range</th><th>Unit</th></tr><tr><td>Ketones [Mass/volume] in Urine by Test strip</td><td>2.0</td><td>0 - 4</td><td></td><td>mg/dL</td></tr></table></div>"
        },
        "status": "final",
        "subject": {
          "reference": "urn:uuid:1bde684f-6909-40d6-b392-96f7363837c3",
          "display": "Iva Kratochvílová"
        },
        "effectiveDateTime": "2025-03-23T16:10:29Z",
        "specimen": {
          "reference": "urn:uuid:f2afa205-3974-4595-b5be-a3e4ea2da560"
        }
      }
    },
    {
      "fullUrl": "urn:uuid:49df2f52-f2f9-464e-99f4-2037f097fef5",
      "resource": {
        "resourceType": "Observation",
        "id": "49df2f52-f2f9-464e-99f4-2037f097fef5",
        "meta": {
          "profile": [
            "http://hl7.eu/fhir/laboratory/StructureDefinition/Observation-resultslab-eu-lab"
          ]
        },
        "performer": [
          {
            "display": "The Central European Lab"
          }
        ],
        "category": [
          {
            "coding": [
              {
                "system": "http://terminology.hl7.org/CodeSystem/observation-category",
                "code": "laboratory"
              }
            ]
          }
        ],
        "code": {
          "coding": [
            {
              "code": "2514-8",
              "system": "http://loinc.org",
              "display": "Ketones [Presence] in Urine by Test strip"
            }
          ],
          "text": "Ketones [Presence] in Urine by Test strip"
        },
        "text": {
          "status": "generated",
          "div": "<div xmlns=\"http://www.w3.org/1999/xhtml\"><table class=\"hl7__eu__lab__report\"><tr><th>Test</th><th>23-Mar-2025</th><th>Reference&#xA0;Range</th><th>Unit</th></tr><tr><td>Ketones [Presence] in Urine by Test strip</td></tr></table></div>"
        },
        "status": "final",
        "subject": {
          "reference": "urn:uuid:1bde684f-6909-40d6-b392-96f7363837c3",
          "display": "Iva Kratochvílová"
        },
        "effectiveDateTime": "2025-03-23T16:10:29Z",
        "specimen": {
          "reference": "urn:uuid:f2afa205-3974-4595-b5be-a3e4ea2da560"
        }
      }
    },
    {
      "fullUrl": "urn:uuid:08dc0c8d-1ce8-4341-956e-e12bde825576",
      "resource": {
        "resourceType": "Observation",
        "id": "08dc0c8d-1ce8-4341-956e-e12bde825576",
        "meta": {
          "profile": [
            "http://hl7.eu/fhir/laboratory/StructureDefinition/Observation-resultslab-eu-lab"
          ]
        },
        "performer": [
          {
            "display": "The Central European Lab"
          }
        ],
        "category": [
          {
            "coding": [
              {
                "system": "http://terminology.hl7.org/CodeSystem/observation-category",
                "code": "laboratory"
              }
            ]
          }
        ],
        "code": {
          "coding": [
            {
              "code": "5811-5",
              "system": "http://loinc.org",
              "display": "Specific gravity of Urine by Test strip"
            }
          ],
          "text": "Specific gravity of Urine by Test strip"
        },
        "valueQuantity": {
          "system": "http://unitsofmeasure.org",
          "value": 1,
          "unit": "{nominal}",
          "code": "{nominal}"
        },
        "referenceRange": [
          {
            "low": {
              "value": 1.005,
              "code": "g/mL",
              "system": "http://unitsofmeasure.org"
            }
          },
          {
            "high": {
              "value": 1.03,
              "code": "g/mL",
              "system": "http://unitsofmeasure.org"
            }
          }
        ],
        "interpretation": [
          {
            "coding": [
              {
                "code": "L",
                "system": "http://terminology.hl7.org/CodeSystem/v3-ObservationInterpretation",
                "display": "Low"
              }
            ]
          }
        ],
        "text": {
          "status": "generated",
          "div": "<div xmlns=\"http://www.w3.org/1999/xhtml\"><table class=\"hl7__eu__lab__report\"><tr><th>Test</th><th>23-Mar-2025</th><th>Reference&#xA0;Range</th><th>Unit</th></tr><tr><td>Specific gravity of Urine by Test strip</td><td>1.0</td><td>1.005 - 1.03</td><td>L</td><td>{nominal}</td></tr></table></div>"
        },
        "status": "final",
        "subject": {
          "reference": "urn:uuid:1bde684f-6909-40d6-b392-96f7363837c3",
          "display": "Iva Kratochvílová"
        },
        "effectiveDateTime": "2025-03-23T16:10:29Z",
        "specimen": {
          "reference": "urn:uuid:f2afa205-3974-4595-b5be-a3e4ea2da560"
        }
      }
    },
    {
      "fullUrl": "urn:uuid:90255342-c92e-4697-8547-97325ddf887e",
      "resource": {
        "resourceType": "Observation",
        "id": "90255342-c92e-4697-8547-97325ddf887e",
        "meta": {
          "profile": [
            "http://hl7.eu/fhir/laboratory/StructureDefinition/Observation-resultslab-eu-lab"
          ]
        },
        "performer": [
          {
            "display": "The Central European Lab"
          }
        ],
        "category": [
          {
            "coding": [
              {
                "system": "http://terminology.hl7.org/CodeSystem/observation-category",
                "code": "laboratory"
              }
            ]
          }
        ],
        "code": {
          "coding": [
            {
              "code": "5803-2",
              "system": "http://loinc.org",
              "display": "pH of Urine by Test strip"
            }
          ],
          "text": "pH of Urine by Test strip"
        },
        "valueQuantity": {
          "system": "http://unitsofmeasure.org",
          "value": 6.1,
          "unit": "pH",
          "code": "pH"
        },
        "referenceRange": [
          {
            "low": {
              "value": 4.5,
              "code": "pH",
              "system": "http://unitsofmeasure.org"
            }
          },
          {
            "high": {
              "value": 7,
              "code": "pH",
              "system": "http://unitsofmeasure.org"
            }
          }
        ],
        "text": {
          "status": "generated",
          "div": "<div xmlns=\"http://www.w3.org/1999/xhtml\"><table class=\"hl7__eu__lab__report\"><tr><th>Test</th><th>23-Mar-2025</th><th>Reference&#xA0;Range</th><th>Unit</th></tr><tr><td>pH of Urine by Test strip</td><td>6.1</td><td>4.5 - 7</td><td></td><td>pH</td></tr></table></div>"
        },
        "status": "final",
        "subject": {
          "reference": "urn:uuid:1bde684f-6909-40d6-b392-96f7363837c3",
          "display": "Iva Kratochvílová"
        },
        "effectiveDateTime": "2025-03-23T16:10:29Z",
        "specimen": {
          "reference": "urn:uuid:f2afa205-3974-4595-b5be-a3e4ea2da560"
        }
      }
    },
    {
      "fullUrl": "urn:uuid:4bf41eab-d582-4b49-a0e7-accd4d0ff317",
      "resource": {
        "resourceType": "Observation",
        "id": "4bf41eab-d582-4b49-a0e7-accd4d0ff317",
        "meta": {
          "profile": [
            "http://hl7.eu/fhir/laboratory/StructureDefinition/Observation-resultslab-eu-lab"
          ]
        },
        "performer": [
          {
            "display": "The Central European Lab"
          }
        ],
        "category": [
          {
            "coding": [
              {
                "system": "http://terminology.hl7.org/CodeSystem/observation-category",
                "code": "laboratory"
              }
            ]
          }
        ],
        "code": {
          "coding": [
            {
              "code": "5804-0",
              "system": "http://loinc.org",
              "display": "Protein [Mass/volume] in Urine by Test strip"
            }
          ],
          "text": "Protein [Mass/volume] in Urine by Test strip"
        },
        "valueQuantity": {
          "system": "http://unitsofmeasure.org",
          "value": 318.1,
          "unit": "mg/dL",
          "code": "mg/dL"
        },
        "referenceRange": [
          {
            "low": {
              "value": 0,
              "code": "mg/dL",
              "system": "http://unitsofmeasure.org"
            }
          },
          {
            "high": {
              "value": 145,
              "code": "mg/dL",
              "system": "http://unitsofmeasure.org"
            }
          }
        ],
        "interpretation": [
          {
            "coding": [
              {
                "code": "H",
                "system": "http://terminology.hl7.org/CodeSystem/v3-ObservationInterpretation",
                "display": "High"
              }
            ]
          }
        ],
        "text": {
          "status": "generated",
          "div": "<div xmlns=\"http://www.w3.org/1999/xhtml\"><table class=\"hl7__eu__lab__report\"><tr><th>Test</th><th>23-Mar-2025</th><th>Reference&#xA0;Range</th><th>Unit</th></tr><tr><td>Protein [Mass/volume] in Urine by Test strip</td><td>318.1</td><td>0 - 145</td><td>H</td><td>mg/dL</td></tr></table></div>"
        },
        "status": "final",
        "subject": {
          "reference": "urn:uuid:1bde684f-6909-40d6-b392-96f7363837c3",
          "display": "Iva Kratochvílová"
        },
        "effectiveDateTime": "2025-03-23T16:10:29Z",
        "specimen": {
          "reference": "urn:uuid:f2afa205-3974-4595-b5be-a3e4ea2da560"
        }
      }
    },
    {
      "fullUrl": "urn:uuid:ce001e97-61f6-4721-ad25-a9a7d0c90df2",
      "resource": {
        "resourceType": "Observation",
        "id": "ce001e97-61f6-4721-ad25-a9a7d0c90df2",
        "meta": {
          "profile": [
            "http://hl7.eu/fhir/laboratory/StructureDefinition/Observation-resultslab-eu-lab"
          ]
        },
        "performer": [
          {
            "display": "The Central European Lab"
          }
        ],
        "category": [
          {
            "coding": [
              {
                "system": "http://terminology.hl7.org/CodeSystem/observation-category",
                "code": "laboratory"
              }
            ]
          }
        ],
        "code": {
          "coding": [
            {
              "code": "20454-5",
              "system": "http://loinc.org",
              "display": "Protein [Presence] in Urine by Test strip"
            }
          ],
          "text": "Protein [Presence] in Urine by Test strip"
        },
        "text": {
          "status": "generated",
          "div": "<div xmlns=\"http://www.w3.org/1999/xhtml\"><table class=\"hl7__eu__lab__report\"><tr><th>Test</th><th>23-Mar-2025</th><th>Reference&#xA0;Range</th><th>Unit</th></tr><tr><td>Protein [Presence] in Urine by Test strip</td></tr></table></div>"
        },
        "status": "final",
        "subject": {
          "reference": "urn:uuid:1bde684f-6909-40d6-b392-96f7363837c3",
          "display": "Iva Kratochvílová"
        },
        "effectiveDateTime": "2025-03-23T16:10:29Z",
        "specimen": {
          "reference": "urn:uuid:f2afa205-3974-4595-b5be-a3e4ea2da560"
        }
      }
    },
    {
      "fullUrl": "urn:uuid:a01b4b96-4810-44bd-aac1-58785f8c0eab",
      "resource": {
        "resourceType": "Observation",
        "id": "a01b4b96-4810-44bd-aac1-58785f8c0eab",
        "meta": {
          "profile": [
            "http://hl7.eu/fhir/laboratory/StructureDefinition/Observation-resultslab-eu-lab"
          ]
        },
        "performer": [
          {
            "display": "The Central European Lab"
          }
        ],
        "category": [
          {
            "coding": [
              {
                "system": "http://terminology.hl7.org/CodeSystem/observation-category",
                "code": "laboratory"
              }
            ]
          }
        ],
        "code": {
          "coding": [
            {
              "code": "5802-4",
              "system": "http://loinc.org",
              "display": "Nitrite [Presence] in Urine by Test strip"
            }
          ],
          "text": "Nitrite [Presence] in Urine by Test strip"
        },
        "text": {
          "status": "generated",
          "div": "<div xmlns=\"http://www.w3.org/1999/xhtml\"><table class=\"hl7__eu__lab__report\"><tr><th>Test</th><th>23-Mar-2025</th><th>Reference&#xA0;Range</th><th>Unit</th></tr><tr><td>Nitrite [Presence] in Urine by Test strip</td></tr></table></div>"
        },
        "status": "final",
        "subject": {
          "reference": "urn:uuid:1bde684f-6909-40d6-b392-96f7363837c3",
          "display": "Iva Kratochvílová"
        },
        "effectiveDateTime": "2025-03-23T16:10:29Z",
        "specimen": {
          "reference": "urn:uuid:f2afa205-3974-4595-b5be-a3e4ea2da560"
        }
      }
    },
    {
      "fullUrl": "urn:uuid:62fba8c6-60a6-4e45-ae95-76c73d0b698b",
      "resource": {
        "resourceType": "Observation",
        "id": "62fba8c6-60a6-4e45-ae95-76c73d0b698b",
        "meta": {
          "profile": [
            "http://hl7.eu/fhir/laboratory/StructureDefinition/Observation-resultslab-eu-lab"
          ]
        },
        "performer": [
          {
            "display": "The Central European Lab"
          }
        ],
        "category": [
          {
            "coding": [
              {
                "system": "http://terminology.hl7.org/CodeSystem/observation-category",
                "code": "laboratory"
              }
            ]
          }
        ],
        "code": {
          "coding": [
            {
              "code": "5794-3",
              "system": "http://loinc.org",
              "display": "Hemoglobin [Presence] in Urine by Test strip"
            }
          ],
          "text": "Hemoglobin [Presence] in Urine by Test strip"
        },
        "text": {
          "status": "generated",
          "div": "<div xmlns=\"http://www.w3.org/1999/xhtml\"><table class=\"hl7__eu__lab__report\"><tr><th>Test</th><th>23-Mar-2025</th><th>Reference&#xA0;Range</th><th>Unit</th></tr><tr><td>Hemoglobin [Presence] in Urine by Test strip</td></tr></table></div>"
        },
        "status": "final",
        "subject": {
          "reference": "urn:uuid:1bde684f-6909-40d6-b392-96f7363837c3",
          "display": "Iva Kratochvílová"
        },
        "effectiveDateTime": "2025-03-23T16:10:29Z",
        "specimen": {
          "reference": "urn:uuid:f2afa205-3974-4595-b5be-a3e4ea2da560"
        }
      }
    },
    {
      "fullUrl": "urn:uuid:f45d0a2a-1915-4a44-8ae5-a3f8f648ca9a",
      "resource": {
        "resourceType": "Observation",
        "id": "f45d0a2a-1915-4a44-8ae5-a3f8f648ca9a",
        "meta": {
          "profile": [
            "http://hl7.eu/fhir/laboratory/StructureDefinition/Observation-resultslab-eu-lab"
          ]
        },
        "performer": [
          {
            "display": "The Central European Lab"
          }
        ],
        "category": [
          {
            "coding": [
              {
                "system": "http://terminology.hl7.org/CodeSystem/observation-category",
                "code": "laboratory"
              }
            ]
          }
        ],
        "code": {
          "coding": [
            {
              "code": "5799-2",
              "system": "http://loinc.org",
              "display": "Leukocyte esterase [Presence] in Urine by Test strip"
            }
          ],
          "text": "Leukocyte esterase [Presence] in Urine by Test strip"
        },
        "text": {
          "status": "generated",
          "div": "<div xmlns=\"http://www.w3.org/1999/xhtml\"><table class=\"hl7__eu__lab__report\"><tr><th>Test</th><th>23-Mar-2025</th><th>Reference&#xA0;Range</th><th>Unit</th></tr><tr><td>Leukocyte esterase [Presence] in Urine by Test strip</td></tr></table></div>"
        },
        "status": "final",
        "subject": {
          "reference": "urn:uuid:1bde684f-6909-40d6-b392-96f7363837c3",
          "display": "Iva Kratochvílová"
        },
        "effectiveDateTime": "2025-03-23T16:10:29Z",
        "specimen": {
          "reference": "urn:uuid:f2afa205-3974-4595-b5be-a3e4ea2da560"
        }
      }
    },
    {
      "fullUrl": "urn:uuid:cf774fdd-e44e-48ce-b644-924320d93738",
      "resource": {
        "resourceType": "Observation",
        "id": "cf774fdd-e44e-48ce-b644-924320d93738",
        "meta": {
          "profile": [
            "http://hl7.eu/fhir/laboratory/StructureDefinition/Observation-resultslab-eu-lab"
          ]
        },
        "performer": [
          {
            "display": "The Central European Lab"
          }
        ],
        "category": [
          {
            "coding": [
              {
                "system": "http://terminology.hl7.org/CodeSystem/observation-category",
                "code": "laboratory"
              }
            ]
          }
        ],
        "code": {
          "coding": [
            {
              "code": "4548-4",
              "system": "http://loinc.org",
              "display": "Hemoglobin A1c/Hemoglobin.total in Blood"
            }
          ],
          "text": "Hemoglobin A1c/Hemoglobin.total in Blood"
        },
        "valueQuantity": {
          "system": "http://unitsofmeasure.org",
          "value": 3.4,
          "unit": "%",
          "code": "%"
        },
        "referenceRange": [
          {
            "low": {
              "value": 4,
              "code": "%",
              "system": "http://unitsofmeasure.org"
            }
          },
          {
            "high": {
              "value": 6,
              "code": "%",
              "system": "http://unitsofmeasure.org"
            }
          }
        ],
        "interpretation": [
          {
            "coding": [
              {
                "code": "L",
                "system": "http://terminology.hl7.org/CodeSystem/v3-ObservationInterpretation",
                "display": "Low"
              }
            ]
          }
        ],
        "text": {
          "status": "generated",
          "div": "<div xmlns=\"http://www.w3.org/1999/xhtml\"><table class=\"hl7__eu__lab__report\"><tr><th>Test</th><th>23-Mar-2025</th><th>Reference&#xA0;Range</th><th>Unit</th></tr><tr><td>Hemoglobin A1c/Hemoglobin.total in Blood</td><td>3.4</td><td>4 - 6</td><td>L</td><td>%</td></tr></table></div>"
        },
        "status": "final",
        "subject": {
          "reference": "urn:uuid:1bde684f-6909-40d6-b392-96f7363837c3",
          "display": "Iva Kratochvílová"
        },
        "effectiveDateTime": "2025-03-23T16:10:29Z",
        "specimen": {
          "reference": "urn:uuid:2f79e30e-8d13-43cc-b524-81dd85ddf05a"
        }
      }
    },
    {
      "fullUrl": "urn:uuid:6f9664d8-9368-4b70-8349-2280aa007a35",
      "resource": {
        "resourceType": "Observation",
        "id": "6f9664d8-9368-4b70-8349-2280aa007a35",
        "meta": {
          "profile": [
            "http://hl7.eu/fhir/laboratory/StructureDefinition/Observation-resultslab-eu-lab"
          ]
        },
        "performer": [
          {
            "display": "The Central European Lab"
          }
        ],
        "category": [
          {
            "coding": [
              {
                "system": "http://terminology.hl7.org/CodeSystem/observation-category",
                "code": "laboratory"
              }
            ]
          }
        ],
        "code": {
          "coding": [
            {
              "code": "2339-0",
              "system": "http://loinc.org",
              "display": "Glucose [Mass/volume] in Blood"
            }
          ],
          "text": "Glucose [Mass/volume] in Blood"
        },
        "valueQuantity": {
          "system": "http://unitsofmeasure.org",
          "value": 89.6,
          "unit": "mg/dL",
          "code": "mg/dL"
        },
        "referenceRange": [
          {
            "low": {
              "value": 70,
              "code": "mg/dL",
              "system": "http://unitsofmeasure.org"
            }
          },
          {
            "high": {
              "value": 140,
              "code": "mg/dL",
              "system": "http://unitsofmeasure.org"
            }
          }
        ],
        "text": {
          "status": "generated",
          "div": "<div xmlns=\"http://www.w3.org/1999/xhtml\"><table class=\"hl7__eu__lab__report\"><tr><th>Test</th><th>23-Mar-2025</th><th>Reference&#xA0;Range</th><th>Unit</th></tr><tr><td>Glucose [Mass/volume] in Blood</td><td>89.6</td><td>70 - 140</td><td></td><td>mg/dL</td></tr></table></div>"
        },
        "status": "final",
        "subject": {
          "reference": "urn:uuid:1bde684f-6909-40d6-b392-96f7363837c3",
          "display": "Iva Kratochvílová"
        },
        "effectiveDateTime": "2025-03-23T16:10:29Z",
        "specimen": {
          "reference": "urn:uuid:2f79e30e-8d13-43cc-b524-81dd85ddf05a"
        }
      }
    },
    {
      "fullUrl": "urn:uuid:87d1c149-fd5c-4145-9cf1-0cae1f43a1ed",
      "resource": {
        "resourceType": "Observation",
        "id": "87d1c149-fd5c-4145-9cf1-0cae1f43a1ed",
        "meta": {
          "profile": [
            "http://hl7.eu/fhir/laboratory/StructureDefinition/Observation-resultslab-eu-lab"
          ]
        },
        "performer": [
          {
            "display": "The Central European Lab"
          }
        ],
        "category": [
          {
            "coding": [
              {
                "system": "http://terminology.hl7.org/CodeSystem/observation-category",
                "code": "laboratory"
              }
            ]
          }
        ],
        "code": {
          "coding": [
            {
              "code": "6299-2",
              "system": "http://loinc.org",
              "display": "Urea nitrogen [Mass/volume] in Blood"
            }
          ],
          "text": "Urea nitrogen [Mass/volume] in Blood"
        },
        "valueQuantity": {
          "system": "http://unitsofmeasure.org",
          "value": 7.4,
          "unit": "mg/dL",
          "code": "mg/dL"
        },
        "referenceRange": [
          {
            "low": {
              "value": 7,
              "code": "mg/dL",
              "system": "http://unitsofmeasure.org"
            }
          },
          {
            "high": {
              "value": 25,
              "code": "mg/dL",
              "system": "http://unitsofmeasure.org"
            }
          }
        ],
        "text": {
          "status": "generated",
          "div": "<div xmlns=\"http://www.w3.org/1999/xhtml\"><table class=\"hl7__eu__lab__report\"><tr><th>Test</th><th>23-Mar-2025</th><th>Reference&#xA0;Range</th><th>Unit</th></tr><tr><td>Urea nitrogen [Mass/volume] in Blood</td><td>7.4</td><td>7 - 25</td><td></td><td>mg/dL</td></tr></table></div>"
        },
        "status": "final",
        "subject": {
          "reference": "urn:uuid:1bde684f-6909-40d6-b392-96f7363837c3",
          "display": "Iva Kratochvílová"
        },
        "effectiveDateTime": "2025-03-23T16:10:29Z",
        "specimen": {
          "reference": "urn:uuid:2f79e30e-8d13-43cc-b524-81dd85ddf05a"
        }
      }
    },
    {
      "fullUrl": "urn:uuid:1e44f844-dd41-410e-829a-86099ec88a7b",
      "resource": {
        "resourceType": "Observation",
        "id": "1e44f844-dd41-410e-829a-86099ec88a7b",
        "meta": {
          "profile": [
            "http://hl7.eu/fhir/laboratory/StructureDefinition/Observation-resultslab-eu-lab"
          ]
        },
        "performer": [
          {
            "display": "The Central European Lab"
          }
        ],
        "category": [
          {
            "coding": [
              {
                "system": "http://terminology.hl7.org/CodeSystem/observation-category",
                "code": "laboratory"
              }
            ]
          }
        ],
        "code": {
          "coding": [
            {
              "code": "38483-4",
              "system": "http://loinc.org",
              "display": "Creatinine [Mass/volume] in Blood"
            }
          ],
          "text": "Creatinine [Mass/volume] in Blood"
        },
        "valueQuantity": {
          "system": "http://unitsofmeasure.org",
          "value": 1.8,
          "unit": "mg/dL",
          "code": "mg/dL"
        },
        "referenceRange": [
          {
            "low": {
              "value": 0.6,
              "code": "mg/dL",
              "system": "http://unitsofmeasure.org"
            }
          },
          {
            "high": {
              "value": 1.1,
              "code": "mg/dL",
              "system": "http://unitsofmeasure.org"
            }
          }
        ],
        "interpretation": [
          {
            "coding": [
              {
                "code": "H",
                "system": "http://terminology.hl7.org/CodeSystem/v3-ObservationInterpretation",
                "display": "High"
              }
            ]
          }
        ],
        "text": {
          "status": "generated",
          "div": "<div xmlns=\"http://www.w3.org/1999/xhtml\"><table class=\"hl7__eu__lab__report\"><tr><th>Test</th><th>23-Mar-2025</th><th>Reference&#xA0;Range</th><th>Unit</th></tr><tr><td>Creatinine [Mass/volume] in Blood</td><td>1.8</td><td>0.6 - 1.1</td><td>H</td><td>mg/dL</td></tr></table></div>"
        },
        "status": "final",
        "subject": {
          "reference": "urn:uuid:1bde684f-6909-40d6-b392-96f7363837c3",
          "display": "Iva Kratochvílová"
        },
        "effectiveDateTime": "2025-03-23T16:10:29Z",
        "specimen": {
          "reference": "urn:uuid:2f79e30e-8d13-43cc-b524-81dd85ddf05a"
        }
      }
    },
    {
      "fullUrl": "urn:uuid:33bf3e90-ad42-47e9-8ca6-f7b2114a6f19",
      "resource": {
        "resourceType": "Observation",
        "id": "33bf3e90-ad42-47e9-8ca6-f7b2114a6f19",
        "meta": {
          "profile": [
            "http://hl7.eu/fhir/laboratory/StructureDefinition/Observation-resultslab-eu-lab"
          ]
        },
        "performer": [
          {
            "display": "The Central European Lab"
          }
        ],
        "category": [
          {
            "coding": [
              {
                "system": "http://terminology.hl7.org/CodeSystem/observation-category",
                "code": "laboratory"
              }
            ]
          }
        ],
        "code": {
          "coding": [
            {
              "code": "49765-1",
              "system": "http://loinc.org",
              "display": "Calcium [Mass/volume] in Blood"
            }
          ],
          "text": "Calcium [Mass/volume] in Blood"
        },
        "valueQuantity": {
          "system": "http://unitsofmeasure.org",
          "value": 10.1,
          "unit": "mg/dL",
          "code": "mg/dL"
        },
        "referenceRange": [
          {
            "low": {
              "value": 8.6,
              "code": "mg/dL",
              "system": "http://unitsofmeasure.org"
            }
          },
          {
            "high": {
              "value": 10.4,
              "code": "mg/dL",
              "system": "http://unitsofmeasure.org"
            }
          }
        ],
        "text": {
          "status": "generated",
          "div": "<div xmlns=\"http://www.w3.org/1999/xhtml\"><table class=\"hl7__eu__lab__report\"><tr><th>Test</th><th>23-Mar-2025</th><th>Reference&#xA0;Range</th><th>Unit</th></tr><tr><td>Calcium [Mass/volume] in Blood</td><td>10.1</td><td>8.6 - 10.4</td><td></td><td>mg/dL</td></tr></table></div>"
        },
        "status": "final",
        "subject": {
          "reference": "urn:uuid:1bde684f-6909-40d6-b392-96f7363837c3",
          "display": "Iva Kratochvílová"
        },
        "effectiveDateTime": "2025-03-23T16:10:29Z",
        "specimen": {
          "reference": "urn:uuid:2f79e30e-8d13-43cc-b524-81dd85ddf05a"
        }
      }
    },
    {
      "fullUrl": "urn:uuid:7c40f0d9-487e-42b4-a0d3-056ea0e8b960",
      "resource": {
        "resourceType": "Observation",
        "id": "7c40f0d9-487e-42b4-a0d3-056ea0e8b960",
        "meta": {
          "profile": [
            "http://hl7.eu/fhir/laboratory/StructureDefinition/Observation-resultslab-eu-lab"
          ]
        },
        "performer": [
          {
            "display": "The Central European Lab"
          }
        ],
        "category": [
          {
            "coding": [
              {
                "system": "http://terminology.hl7.org/CodeSystem/observation-category",
                "code": "laboratory"
              }
            ]
          }
        ],
        "code": {
          "coding": [
            {
              "code": "2947-0",
              "system": "http://loinc.org",
              "display": "Sodium [Moles/volume] in Blood"
            }
          ],
          "text": "Sodium [Moles/volume] in Blood"
        },
        "valueQuantity": {
          "system": "http://unitsofmeasure.org",
          "value": 138.8,
          "unit": "mmol/L",
          "code": "mmol/L"
        },
        "referenceRange": [
          {
            "low": {
              "value": 135,
              "code": "mmol/L",
              "system": "http://unitsofmeasure.org"
            }
          },
          {
            "high": {
              "value": 145,
              "code": "mmol/L",
              "system": "http://unitsofmeasure.org"
            }
          }
        ],
        "text": {
          "status": "generated",
          "div": "<div xmlns=\"http://www.w3.org/1999/xhtml\"><table class=\"hl7__eu__lab__report\"><tr><th>Test</th><th>23-Mar-2025</th><th>Reference&#xA0;Range</th><th>Unit</th></tr><tr><td>Sodium [Moles/volume] in Blood</td><td>138.8</td><td>135 - 145</td><td></td><td>mmol/L</td></tr></table></div>"
        },
        "status": "final",
        "subject": {
          "reference": "urn:uuid:1bde684f-6909-40d6-b392-96f7363837c3",
          "display": "Iva Kratochvílová"
        },
        "effectiveDateTime": "2025-03-23T16:10:29Z",
        "specimen": {
          "reference": "urn:uuid:2f79e30e-8d13-43cc-b524-81dd85ddf05a"
        }
      }
    },
    {
      "fullUrl": "urn:uuid:a5a21f69-6765-42f8-8cf1-271fc9b225a3",
      "resource": {
        "resourceType": "Observation",
        "id": "a5a21f69-6765-42f8-8cf1-271fc9b225a3",
        "meta": {
          "profile": [
            "http://hl7.eu/fhir/laboratory/StructureDefinition/Observation-resultslab-eu-lab"
          ]
        },
        "performer": [
          {
            "display": "The Central European Lab"
          }
        ],
        "category": [
          {
            "coding": [
              {
                "system": "http://terminology.hl7.org/CodeSystem/observation-category",
                "code": "laboratory"
              }
            ]
          }
        ],
        "code": {
          "coding": [
            {
              "code": "6298-4",
              "system": "http://loinc.org",
              "display": "Potassium [Moles/volume] in Blood"
            }
          ],
          "text": "Potassium [Moles/volume] in Blood"
        },
        "valueQuantity": {
          "system": "http://unitsofmeasure.org",
          "value": 3.8,
          "unit": "mmol/L",
          "code": "mmol/L"
        },
        "referenceRange": [
          {
            "low": {
              "value": 3.5,
              "code": "mmol/L",
              "system": "http://unitsofmeasure.org"
            }
          },
          {
            "high": {
              "value": 5.1,
              "code": "mmol/L",
              "system": "http://unitsofmeasure.org"
            }
          }
        ],
        "text": {
          "status": "generated",
          "div": "<div xmlns=\"http://www.w3.org/1999/xhtml\"><table class=\"hl7__eu__lab__report\"><tr><th>Test</th><th>23-Mar-2025</th><th>Reference&#xA0;Range</th><th>Unit</th></tr><tr><td>Potassium [Moles/volume] in Blood</td><td>3.8</td><td>3.5 - 5.1</td><td></td><td>mmol/L</td></tr></table></div>"
        },
        "status": "final",
        "subject": {
          "reference": "urn:uuid:1bde684f-6909-40d6-b392-96f7363837c3",
          "display": "Iva Kratochvílová"
        },
        "effectiveDateTime": "2025-03-23T16:10:29Z",
        "specimen": {
          "reference": "urn:uuid:2f79e30e-8d13-43cc-b524-81dd85ddf05a"
        }
      }
    },
    {
      "fullUrl": "urn:uuid:de19678e-abe2-43ba-88b0-d58fb9c23b2a",
      "resource": {
        "resourceType": "Observation",
        "id": "de19678e-abe2-43ba-88b0-d58fb9c23b2a",
        "meta": {
          "profile": [
            "http://hl7.eu/fhir/laboratory/StructureDefinition/Observation-resultslab-eu-lab"
          ]
        },
        "performer": [
          {
            "display": "The Central European Lab"
          }
        ],
        "category": [
          {
            "coding": [
              {
                "system": "http://terminology.hl7.org/CodeSystem/observation-category",
                "code": "laboratory"
              }
            ]
          }
        ],
        "code": {
          "coding": [
            {
              "code": "2069-3",
              "system": "http://loinc.org",
              "display": "Chloride [Moles/volume] in Blood"
            }
          ],
          "text": "Chloride [Moles/volume] in Blood"
        },
        "valueQuantity": {
          "system": "http://unitsofmeasure.org",
          "value": 106.4,
          "unit": "mmol/L",
          "code": "mmol/L"
        },
        "referenceRange": [
          {
            "low": {
              "value": 98,
              "code": "mmol/L",
              "system": "http://unitsofmeasure.org"
            }
          },
          {
            "high": {
              "value": 110,
              "code": "mmol/L",
              "system": "http://unitsofmeasure.org"
            }
          }
        ],
        "text": {
          "status": "generated",
          "div": "<div xmlns=\"http://www.w3.org/1999/xhtml\"><table class=\"hl7__eu__lab__report\"><tr><th>Test</th><th>23-Mar-2025</th><th>Reference&#xA0;Range</th><th>Unit</th></tr><tr><td>Chloride [Moles/volume] in Blood</td><td>106.4</td><td>98 - 110</td><td></td><td>mmol/L</td></tr></table></div>"
        },
        "status": "final",
        "subject": {
          "reference": "urn:uuid:1bde684f-6909-40d6-b392-96f7363837c3",
          "display": "Iva Kratochvílová"
        },
        "effectiveDateTime": "2025-03-23T16:10:29Z",
        "specimen": {
          "reference": "urn:uuid:2f79e30e-8d13-43cc-b524-81dd85ddf05a"
        }
      }
    },
    {
      "fullUrl": "urn:uuid:9625ac8e-51e5-4327-b6c6-00ad1e5f64bb",
      "resource": {
        "resourceType": "Observation",
        "id": "9625ac8e-51e5-4327-b6c6-00ad1e5f64bb",
        "meta": {
          "profile": [
            "http://hl7.eu/fhir/laboratory/StructureDefinition/Observation-resultslab-eu-lab"
          ]
        },
        "performer": [
          {
            "display": "The Central European Lab"
          }
        ],
        "category": [
          {
            "coding": [
              {
                "system": "http://terminology.hl7.org/CodeSystem/observation-category",
                "code": "laboratory"
              }
            ]
          }
        ],
        "code": {
          "coding": [
            {
              "code": "20565-8",
              "system": "http://loinc.org",
              "display": "Carbon dioxide, total [Moles/volume] in Blood"
            }
          ],
          "text": "Carbon dioxide, total [Moles/volume] in Blood"
        },
        "valueQuantity": {
          "system": "http://unitsofmeasure.org",
          "value": 21.3,
          "unit": "mmol/L",
          "code": "mmol/L"
        },
        "referenceRange": [
          {
            "low": {
              "value": 22,
              "code": "mmol/L",
              "system": "http://unitsofmeasure.org"
            }
          },
          {
            "high": {
              "value": 29,
              "code": "mmol/L",
              "system": "http://unitsofmeasure.org"
            }
          }
        ],
        "interpretation": [
          {
            "coding": [
              {
                "code": "L",
                "system": "http://terminology.hl7.org/CodeSystem/v3-ObservationInterpretation",
                "display": "Low"
              }
            ]
          }
        ],
        "text": {
          "status": "generated",
          "div": "<div xmlns=\"http://www.w3.org/1999/xhtml\"><table class=\"hl7__eu__lab__report\"><tr><th>Test</th><th>23-Mar-2025</th><th>Reference&#xA0;Range</th><th>Unit</th></tr><tr><td>Carbon dioxide, total [Moles/volume] in Blood</td><td>21.3</td><td>22 - 29</td><td>L</td><td>mmol/L</td></tr></table></div>"
        },
        "status": "final",
        "subject": {
          "reference": "urn:uuid:1bde684f-6909-40d6-b392-96f7363837c3",
          "display": "Iva Kratochvílová"
        },
        "effectiveDateTime": "2025-03-23T16:10:29Z",
        "specimen": {
          "reference": "urn:uuid:2f79e30e-8d13-43cc-b524-81dd85ddf05a"
        }
      }
    },
    {
      "fullUrl": "urn:uuid:0cefcfe2-96de-4173-8122-c468c209eb46",
      "resource": {
        "resourceType": "Observation",
        "id": "0cefcfe2-96de-4173-8122-c468c209eb46",
        "meta": {
          "profile": [
            "http://hl7.eu/fhir/laboratory/StructureDefinition/Observation-resultslab-eu-lab"
          ]
        },
        "performer": [
          {
            "display": "The Central European Lab"
          }
        ],
        "category": [
          {
            "coding": [
              {
                "system": "http://terminology.hl7.org/CodeSystem/observation-category",
                "code": "laboratory"
              }
            ]
          }
        ],
        "code": {
          "coding": [
            {
              "code": "2093-3",
              "system": "http://loinc.org",
              "display": "Cholesterol [Mass/volume] in Serum or Plasma"
            }
          ],
          "text": "Cholesterol [Mass/volume] in Serum or Plasma"
        },
        "valueQuantity": {
          "system": "http://unitsofmeasure.org",
          "value": 181.3,
          "unit": "mg/dL",
          "code": "mg/dL"
        },
        "referenceRange": [
          {
            "low": {
              "value": 130,
              "code": "mg/dL",
              "system": "http://unitsofmeasure.org"
            }
          },
          {
            "high": {
              "value": 200,
              "code": "mg/dL",
              "system": "http://unitsofmeasure.org"
            }
          }
        ],
        "text": {
          "status": "generated",
          "div": "<div xmlns=\"http://www.w3.org/1999/xhtml\"><table class=\"hl7__eu__lab__report\"><tr><th>Test</th><th>23-Mar-2025</th><th>Reference&#xA0;Range</th><th>Unit</th></tr><tr><td>Cholesterol [Mass/volume] in Serum or Plasma</td><td>181.3</td><td>130 - 200</td><td></td><td>mg/dL</td></tr></table></div>"
        },
        "status": "final",
        "subject": {
          "reference": "urn:uuid:1bde684f-6909-40d6-b392-96f7363837c3",
          "display": "Iva Kratochvílová"
        },
        "effectiveDateTime": "2025-03-23T16:10:29Z",
        "specimen": {
          "reference": "urn:uuid:4bb13594-1fd8-4425-9e47-09f521bb075b"
        }
      }
    },
    {
      "fullUrl": "urn:uuid:fe28bc39-5bfb-44bd-9f6a-8abb28459755",
      "resource": {
        "resourceType": "Observation",
        "id": "fe28bc39-5bfb-44bd-9f6a-8abb28459755",
        "meta": {
          "profile": [
            "http://hl7.eu/fhir/laboratory/StructureDefinition/Observation-resultslab-eu-lab"
          ]
        },
        "performer": [
          {
            "display": "The Central European Lab"
          }
        ],
        "category": [
          {
            "coding": [
              {
                "system": "http://terminology.hl7.org/CodeSystem/observation-category",
                "code": "laboratory"
              }
            ]
          }
        ],
        "code": {
          "coding": [
            {
              "code": "2571-8",
              "system": "http://loinc.org",
              "display": "Triglyceride [Mass/volume] in Serum or Plasma"
            }
          ],
          "text": "Triglyceride [Mass/volume] in Serum or Plasma"
        },
        "valueQuantity": {
          "system": "http://unitsofmeasure.org",
          "value": 110,
          "unit": "mg/dL",
          "code": "mg/dL"
        },
        "referenceRange": [
          {
            "low": {
              "value": 35,
              "code": "mg/dL",
              "system": "http://unitsofmeasure.org"
            }
          },
          {
            "high": {
              "value": 150,
              "code": "mg/dL",
              "system": "http://unitsofmeasure.org"
            }
          }
        ],
        "text": {
          "status": "generated",
          "div": "<div xmlns=\"http://www.w3.org/1999/xhtml\"><table class=\"hl7__eu__lab__report\"><tr><th>Test</th><th>23-Mar-2025</th><th>Reference&#xA0;Range</th><th>Unit</th></tr><tr><td>Triglyceride [Mass/volume] in Serum or Plasma</td><td>110.0</td><td>35 - 150</td><td></td><td>mg/dL</td></tr></table></div>"
        },
        "status": "final",
        "subject": {
          "reference": "urn:uuid:1bde684f-6909-40d6-b392-96f7363837c3",
          "display": "Iva Kratochvílová"
        },
        "effectiveDateTime": "2025-03-23T16:10:29Z",
        "specimen": {
          "reference": "urn:uuid:4bb13594-1fd8-4425-9e47-09f521bb075b"
        }
      }
    },
    {
      "fullUrl": "urn:uuid:76e49b19-e90c-438a-902d-69ed5f2ef604",
      "resource": {
        "resourceType": "Observation",
        "id": "76e49b19-e90c-438a-902d-69ed5f2ef604",
        "meta": {
          "profile": [
            "http://hl7.eu/fhir/laboratory/StructureDefinition/Observation-resultslab-eu-lab"
          ]
        },
        "performer": [
          {
            "display": "The Central European Lab"
          }
        ],
        "category": [
          {
            "coding": [
              {
                "system": "http://terminology.hl7.org/CodeSystem/observation-category",
                "code": "laboratory"
              }
            ]
          }
        ],
        "code": {
          "coding": [
            {
              "code": "18262-6",
              "system": "http://loinc.org",
              "display": "Cholesterol in LDL [Mass/volume] in Serum or Plasma by Direct assay"
            }
          ],
          "text": "Cholesterol in LDL [Mass/volume] in Serum or Plasma by Direct assay"
        },
        "valueQuantity": {
          "system": "http://unitsofmeasure.org",
          "value": 111,
          "unit": "mg/dL",
          "code": "mg/dL"
        },
        "referenceRange": [
          {
            "low": {
              "value": 0,
              "code": "mg/dL",
              "system": "http://unitsofmeasure.org"
            }
          },
          {
            "high": {
              "value": 130,
              "code": "mg/dL",
              "system": "http://unitsofmeasure.org"
            }
          }
        ],
        "text": {
          "status": "generated",
          "div": "<div xmlns=\"http://www.w3.org/1999/xhtml\"><table class=\"hl7__eu__lab__report\"><tr><th>Test</th><th>23-Mar-2025</th><th>Reference&#xA0;Range</th><th>Unit</th></tr><tr><td>Cholesterol in LDL [Mass/volume] in Serum or Plasma by Direct assay</td><td>111.0</td><td>0 - 130</td><td></td><td>mg/dL</td></tr></table></div>"
        },
        "status": "final",
        "subject": {
          "reference": "urn:uuid:1bde684f-6909-40d6-b392-96f7363837c3",
          "display": "Iva Kratochvílová"
        },
        "effectiveDateTime": "2025-03-23T16:10:29Z",
        "specimen": {
          "reference": "urn:uuid:4bb13594-1fd8-4425-9e47-09f521bb075b"
        }
      }
    },
    {
      "fullUrl": "urn:uuid:d7b8f0e6-fc42-47ec-b69e-b92151c0ce29",
      "resource": {
        "resourceType": "Observation",
        "id": "d7b8f0e6-fc42-47ec-b69e-b92151c0ce29",
        "meta": {
          "profile": [
            "http://hl7.eu/fhir/laboratory/StructureDefinition/Observation-resultslab-eu-lab"
          ]
        },
        "performer": [
          {
            "display": "The Central European Lab"
          }
        ],
        "category": [
          {
            "coding": [
              {
                "system": "http://terminology.hl7.org/CodeSystem/observation-category",
                "code": "laboratory"
              }
            ]
          }
        ],
        "code": {
          "coding": [
            {
              "code": "2085-9",
              "system": "http://loinc.org",
              "display": "Cholesterol in HDL [Mass/volume] in Serum or Plasma"
            }
          ],
          "text": "Cholesterol in HDL [Mass/volume] in Serum or Plasma"
        },
        "valueQuantity": {
          "system": "http://unitsofmeasure.org",
          "value": 48.4,
          "unit": "mg/dL",
          "code": "mg/dL"
        },
        "referenceRange": [
          {
            "low": {
              "value": 50,
              "code": "mg/dL",
              "system": "http://unitsofmeasure.org"
            }
          },
          {
            "high": {
              "value": 100,
              "code": "mg/dL",
              "system": "http://unitsofmeasure.org"
            }
          }
        ],
        "interpretation": [
          {
            "coding": [
              {
                "code": "L",
                "system": "http://terminology.hl7.org/CodeSystem/v3-ObservationInterpretation",
                "display": "Low"
              }
            ]
          }
        ],
        "text": {
          "status": "generated",
          "div": "<div xmlns=\"http://www.w3.org/1999/xhtml\"><table class=\"hl7__eu__lab__report\"><tr><th>Test</th><th>23-Mar-2025</th><th>Reference&#xA0;Range</th><th>Unit</th></tr><tr><td>Cholesterol in HDL [Mass/volume] in Serum or Plasma</td><td>48.4</td><td>50 - 100</td><td>L</td><td>mg/dL</td></tr></table></div>"
        },
        "status": "final",
        "subject": {
          "reference": "urn:uuid:1bde684f-6909-40d6-b392-96f7363837c3",
          "display": "Iva Kratochvílová"
        },
        "effectiveDateTime": "2025-03-23T16:10:29Z",
        "specimen": {
          "reference": "urn:uuid:4bb13594-1fd8-4425-9e47-09f521bb075b"
        }
      }
    },
    {
      "fullUrl": "urn:uuid:9508127d-fa00-42a5-ab19-54e7366130ae",
      "resource": {
        "resourceType": "Device",
        "id": "9508127d-fa00-42a5-ab19-54e7366130ae",
        "deviceName": [
          {
            "name": "SYNDERAI Synthetic Generator",
            "type": "manufacturer-name"
          }
        ],
        "version": [
          {
            "value": "5.0"
          }
        ],
        "text": {
          "status": "generated",
          "div": "<div xmlns=\"http://www.w3.org/1999/xhtml\">SYNDERAI Synthetic Generator v5.0</div>"
        },
        "status": "active\"",
        "distinctIdentifier": "synderai-generator-50",
        "manufacturer": "SYNDERAI Project"
      }
    },
    {
      "fullUrl": "urn:uuid:076b1dda-b2a0-4cc7-9023-9297f682dac7",
      "resource": {
        "resourceType": "Provenance",
        "id": "076b1dda-b2a0-4cc7-9023-9297f682dac7",
        "target": [
          {
            "reference": "Patient/1bde684f-6909-40d6-b392-96f7363837c3"
          },
          {
            "reference": "Bundle/c1d2f762-5492-40d7-9ff5-54f5d2516122"
          },
          {
            "reference": "Composition/b98fc2f4-9976-4e62-a5ea-945e87ceafd0"
          },
          {
            "reference": "PractitionerRole/8c04571a-bd31-48c9-9790-c8ab889f588a"
          },
          {
            "reference": "Practitioner/254102cf-a97d-4f67-9a6c-91ba21cb5527"
          },
          {
            "reference": "PractitionerRole/1d0f235b-6bb1-4555-a894-66dbb24f5786"
          },
          {
            "reference": "Organization/ca020a27-1d0b-4b80-a6bd-078adf6ac7b7"
          }
        ],
        "activity": {
          "text": "Synthetic Example Data Generation"
        },
        "policy": [
          "https://synderai.net/synderai-synthetic-data-policy"
        ],
        "agent": [
          {
            "type": {
              "text": "author"
            },
            "who": {
              "reference": "Device/9508127d-fa00-42a5-ab19-54e7366130ae"
            }
          }
        ],
        "reason": [
          {
            "text": "Interoperability Testing and Training (non-clinical use)"
          }
        ],
        "text": {
          "status": "generated",
          "div": "<div xmlns=\"http://www.w3.org/1999/xhtml\">Provenance for SYNDERAI Synthetic Example Data Resource</div>"
        },
        "recorded": "2025-03-23T17:10:29Z"
      }
    },
    {
      "fullUrl": "urn:uuid:8c04571a-bd31-48c9-9790-c8ab889f588a",
      "resource": {
        "resourceType": "PractitionerRole",
        "id": "8c04571a-bd31-48c9-9790-c8ab889f588a",
        "meta": {
          "profile": [
            "http://hl7.eu/fhir/base/StructureDefinition/practitionerRole-eu"
          ]
        },
        "text": {
          "status": "generated",
          "div": "<div xmlns=\"http://www.w3.org/1999/xhtml\">Laboratory Role Id: 8c04571a-bd31-48c9-9790-c8ab889f588a</div>"
        },
        "practitioner": {
          "reference": "urn:uuid:254102cf-a97d-4f67-9a6c-91ba21cb5527"
        }
      }
    },
    {
      "fullUrl": "urn:uuid:254102cf-a97d-4f67-9a6c-91ba21cb5527",
      "resource": {
        "resourceType": "Practitioner",
        "id": "254102cf-a97d-4f67-9a6c-91ba21cb5527",
        "meta": {
          "profile": [
            "http://hl7.eu/fhir/base/StructureDefinition/practitioner-eu"
          ]
        },
        "identifier": [
          {
            "assigner": {
              "display": "HL7 Europe"
            },
            "system": "urn:oid:2.16.840.1.113883.2.51.999",
            "value": "e2f8ae73-091b-44a2-8951-7d288eac8e47"
          }
        ],
        "name": [
          {
            "prefix": [
              "dr"
            ],
            "given": [
              "Ex"
            ],
            "family": "Ample"
          }
        ],
        "address": [
          {
            "line": [
              "Laboratoire Central Européenne",
              "Boulevard du Jardin Botanique 32"
            ],
            "postalCode": "1000",
            "city": "Brussels",
            "country": "Belgium"
          }
        ],
        "text": {
          "status": "generated",
          "div": "<div xmlns=\"http://www.w3.org/1999/xhtml\">Laboratory: Laboratoire Central Européenne, 1000 Brussels, Belgium</div>"
        }
      }
    }
  ],
  "type": "document",
  "timestamp": "2025-03-23T17:10:29Z"
}
