{
  "resourceType": "Bundle",
  "id": "3eb6e68e-897f-4605-a32e-3cfe51843a0d",
  "meta": {
    "profile": [
      "http://hl7.eu/fhir/laboratory/StructureDefinition/Bundle-eu-lab"
    ]
  },
  "identifier": {
    "assigner": {
      "display": "HL7 Europe"
    },
    "system": "urn:oid:2.16.840.1.113883.2.51.999",
    "value": "7c16160b-47de-4d3e-b432-7750848e2c81"
  },
  "entry": [
    {
      "fullUrl": "urn:uuid:8279b8a5-afd8-4815-90d8-c906cabae5ba",
      "resource": {
        "resourceType": "Composition",
        "id": "8279b8a5-afd8-4815-90d8-c906cabae5ba",
        "meta": {
          "profile": [
            "http://hl7.eu/fhir/laboratory/StructureDefinition/Composition-eu-lab"
          ]
        },
        "identifier": {
          "assigner": {
            "display": "HL7 Europe"
          },
          "system": "urn:oid:2.16.840.1.113883.2.51.999",
          "value": "424cf781-d926-4af7-962f-4bb40a1995cd"
        },
        "author": [
          {
            "reference": "urn:uuid:392d7b94-9ad7-4586-9fa9-11c151e3e9e5"
          }
        ],
        "category": [
          {
            "coding": [
              {
                "code": "26436-6",
                "system": "http://loinc.org",
                "display": "Laboratory studies (set)"
              }
            ]
          }
        ],
        "type": {
          "coding": [
            {
              "code": "11502-2",
              "system": "http://loinc.org",
              "display": "Laboratory report"
            }
          ],
          "text": "Laboratory Report"
        },
        "section": [
          {
            "code": {
              "coding": [
                {
                  "code": "26436-6",
                  "system": "http://loinc.org",
                  "display": "Laboratory studies (set)"
                }
              ],
              "text": "Laboratory studies"
            },
            "section": [
              {
                "code": {
                  "coding": [
                    {
                      "code": "$18719-5",
                      "system": "http://loinc.org",
                      "display": "Chemistry studies (set)"
                    }
                  ],
                  "text": "Chemistry"
                },
                "entry": [
                  {
                    "reference": "urn:uuid:fa466446-45c9-47f6-89b7-8b55d0486735"
                  },
                  {
                    "reference": "urn:uuid:33896cde-1743-4eab-94e8-dde26ed131e4"
                  },
                  {
                    "reference": "urn:uuid:e44571a7-9a4f-44bd-99a4-92073ab3b91d"
                  },
                  {
                    "reference": "urn:uuid:c599210b-b830-4414-8c3d-500629891810"
                  }
                ],
                "text": {
                  "status": "generated",
                  "div": "<div xmlns=\"http://www.w3.org/1999/xhtml\"><h3>Chemistry</h3><table class=\"hl7__eu__lab__report\"><thead><tr><th>Test</th><th>29-OCT-2021</th><th>Reference&#xA0;Range</th><th>Unit</th></tr></thead><tbody><tr><td>Cholesterol [Mass/volume] in Serum or Plasma</td><td>163.4</td><td>125 - 200</td><td>mg/dL</td></tr><tr><td>Triglyceride [Mass/volume] in Serum or Plasma</td><td>144.7</td><td>0 - 150</td><td>mg/dL</td></tr><tr><td>Cholesterol in LDL [Mass/volume] in Serum or Plasma by Direct assay</td><td>89.6</td><td>0 - 130</td><td>mg/dL</td></tr><tr><td>Cholesterol in HDL [Mass/volume] in Serum or Plasma</td><td>44.9</td><td>40 - 60</td><td>mg/dL</td></tr></tbody></table></div>"
                },
                "title": "Chemistry"
              }
            ],
            "title": "Laboratory Report"
          },
          {
            "text": {
              "status": "generated",
              "div": "<div xmlns=\"http://www.w3.org/1999/xhtml\"><h3>Annotation</h3><table class=\"hl7__eu__lab__report\"><tr><th>Conclusion and Recommendations based on this report and previous findings known to us</th></tr><tr><td>All lipid parameters are within normal limits. Cholesterol, LDL, and HDL levels are appropriate for age and gender, and triglycerides are also within the reference range. No laboratory evidence of dyslipidemia at this time. Recommend continued monitoring and maintaining a healthy lifestyle.</td></tr></table></div>"
            },
            "code": {
              "coding": [
                {
                  "system": "http://loinc.org",
                  "code": "48767-8",
                  "display": "Annotation comment"
                }
              ]
            },
            "title": "Annotation comment"
          }
        ],
        "status": "final",
        "subject": {
          "reference": "urn:uuid:70cf4fdd-8de6-4122-9b05-3a82a3351de7",
          "display": "Elias Höfig"
        },
        "date": "2021-10-29T11:47:46Z",
        "title": "Laboratory Report",
        "confidentiality": "N"
      }
    },
    {
      "fullUrl": "urn:uuid:d764454a-62c5-4c62-85f6-9241ccb558d9",
      "resource": {
        "resourceType": "DiagnosticReport",
        "id": "d764454a-62c5-4c62-85f6-9241ccb558d9",
        "meta": {
          "profile": [
            "http://hl7.eu/fhir/laboratory/StructureDefinition/DiagnosticReport-eu-lab"
          ]
        },
        "identifier": [
          {
            "assigner": {
              "display": "HL7 Europe"
            },
            "system": "urn:oid:2.16.840.1.113883.2.51.999",
            "value": "13821b31-0ae2-47b7-a18f-8fae3d73a6f6"
          }
        ],
        "extension": [
          {
            "url": "http://hl7.org/fhir/5.0/StructureDefinition/extension-DiagnosticReport.composition",
            "valueReference": {
              "reference": "urn:uuid:424cf781-d926-4af7-962f-4bb40a1995cd"
            }
          }
        ],
        "category": [
          {
            "coding": [
              {
                "code": "26436-6",
                "system": "http://loinc.org",
                "display": "Laboratory studies (set)"
              }
            ]
          }
        ],
        "specimen": [
          {
            "reference": "urn:uuid:e8f88b92-3bbf-49e4-b32f-f81e3de4a156"
          }
        ],
        "result": [
          {
            "reference": "urn:uuid:fa466446-45c9-47f6-89b7-8b55d0486735"
          },
          {
            "reference": "urn:uuid:33896cde-1743-4eab-94e8-dde26ed131e4"
          },
          {
            "reference": "urn:uuid:e44571a7-9a4f-44bd-99a4-92073ab3b91d"
          },
          {
            "reference": "urn:uuid:c599210b-b830-4414-8c3d-500629891810"
          }
        ],
        "status": "registered",
        "code": {
          "coding": [
            {
              "code": "11502-2",
              "system": "http://loinc.org",
              "display": "Laboratory report"
            }
          ]
        },
        "subject": {
          "reference": "urn:uuid:70cf4fdd-8de6-4122-9b05-3a82a3351de7",
          "display": "Elias Höfig"
        }
      }
    },
    {
      "fullUrl": "urn:uuid:70cf4fdd-8de6-4122-9b05-3a82a3351de7",
      "resource": {
        "resourceType": "Patient",
        "id": "70cf4fdd-8de6-4122-9b05-3a82a3351de7",
        "meta": {
          "security": [
            {
              "system": "http://terminology.hl7.org/CodeSystem/v3-ActReason",
              "code": "HTEST"
            },
            {
              "system": "http://terminology.hl7.org/CodeSystem/v3-ActReason",
              "code": "TRAIN"
            }
          ],
          "tag": [
            {
              "system": "https://synderai.net/fhir/CodeSystem/tags",
              "code": "synthetic",
              "display": "SYNDERAI Synthetic data"
            }
          ],
          "profile": [
            "http://hl7.eu/fhir/base/StructureDefinition/patient-eu-core"
          ]
        },
        "identifier": [
          {
            "type": {
              "coding": [
                {
                  "code": "PT",
                  "system": "http://terminology.hl7.org/CodeSystem/v2-0203"
                }
              ]
            },
            "system": "http://ec.europa.eu/identifier/eci",
            "value": "7833-401919-3"
          },
          {
            "type": {
              "coding": [
                {
                  "code": "MR",
                  "system": "http://terminology.hl7.org/CodeSystem/v2-0203"
                }
              ]
            },
            "system": "http://local.setting.eu/identifier",
            "value": "55b3d71c-a283-2178-4db6-d251ed0e1404"
          }
        ],
        "name": [
          {
            "family": "Höfig"
          },
          {
            "given": [
              "Elias"
            ]
          },
          {
            "text": "Elias Höfig"
          }
        ],
        "address": [
          {
            "line": [
              "Pauline-Schwital-Allee 6-2"
            ],
            "use": "home",
            "type": "physical",
            "postalCode": "39326",
            "city": "Wolmirstedt",
            "country": "Germany"
          }
        ],
        "telecom": [
          {
            "system": "phone",
            "value": "+49 (0) 4602 154908"
          }
        ],
        "extension": [
          {
            "url": "http://hl7.org/fhir/StructureDefinition/patient-nationality",
            "valueCodeableConcept": {
              "coding": [
                {
                  "code": "DE",
                  "system": "http://hl7.org/fhir/ValueSet/country"
                }
              ]
            }
          }
        ],
        "text": {
          "status": "generated",
          "div": "<div xmlns=\"http://www.w3.org/1999/xhtml\"><table class=\"hl7__ips\"><tr><td>Elias Höfig</td><td>male</td><td>19-May-1974</td></tr></table></div>"
        },
        "gender": "male",
        "birthDate": "1974-05-19"
      }
    },
    {
      "fullUrl": "urn:uuid:6dae5f48-70a4-4ca1-b983-e95e344b65c8",
      "resource": {
        "resourceType": "ServiceRequest",
        "id": "6dae5f48-70a4-4ca1-b983-e95e344b65c8",
        "meta": {
          "profile": [
            "http://hl7.eu/fhir/laboratory/StructureDefinition/ServiceRequest-eu-lab"
          ]
        },
        "identifier": [
          {
            "system": "http://example.org",
            "value": "a30e90b9-577f-4b19-85ae-1891f65cf15d"
          }
        ],
        "specimen": [
          {
            "reference": "urn:uuid:e8f88b92-3bbf-49e4-b32f-f81e3de4a156"
          }
        ],
        "status": "active",
        "intent": "order",
        "code": {
          "coding": [
            {
              "code": "108252007",
              "system": "http://snomed.info/sct",
              "display": "Laboratory procedure"
            }
          ]
        },
        "subject": {
          "reference": "urn:uuid:70cf4fdd-8de6-4122-9b05-3a82a3351de7",
          "display": "Elias Höfig"
        },
        "requester": {
          "reference": "urn:uuid:41fb3761-af81-463e-ab92-a8962fc9ccce"
        }
      }
    },
    {
      "fullUrl": "urn:uuid:41fb3761-af81-463e-ab92-a8962fc9ccce",
      "resource": {
        "resourceType": "PractitionerRole",
        "id": "41fb3761-af81-463e-ab92-a8962fc9ccce",
        "meta": {
          "profile": [
            "http://hl7.eu/fhir/base/StructureDefinition/practitionerRole-eu"
          ]
        },
        "text": {
          "status": "generated",
          "div": "<div xmlns=\"http://www.w3.org/1999/xhtml\">Provider Role Id: 41fb3761-af81-463e-ab92-a8962fc9ccce</div>"
        },
        "organization": {
          "reference": "urn:uuid:f5867f07-94e5-4cd4-8fb5-4a446b4b501c"
        }
      }
    },
    {
      "fullUrl": "urn:uuid:f5867f07-94e5-4cd4-8fb5-4a446b4b501c",
      "resource": {
        "resourceType": "Organization",
        "id": "f5867f07-94e5-4cd4-8fb5-4a446b4b501c",
        "meta": {
          "profile": [
            "http://hl7.eu/fhir/base/StructureDefinition/organization-eu"
          ]
        },
        "identifier": [
          {
            "assigner": {
              "display": "HL7 Europe"
            },
            "system": "urn:oid:2.16.840.1.113883.2.51.999",
            "value": "153e7b8c-0ce4-4cb9-a941-e63abc369f64"
          }
        ],
        "address": [
          {
            "line": [
              "Birkenallee 34"
            ],
            "city": "Magdeburg",
            "postalCode": "39130",
            "country": "Germany"
          }
        ],
        "text": {
          "status": "generated",
          "div": "<div xmlns=\"http://www.w3.org/1999/xhtml\">Provider Organization: Klinikum Magdeburg</div>"
        },
        "name": "Klinikum Magdeburg"
      }
    },
    {
      "fullUrl": "urn:uuid:e8f88b92-3bbf-49e4-b32f-f81e3de4a156",
      "resource": {
        "resourceType": "Specimen",
        "id": "e8f88b92-3bbf-49e4-b32f-f81e3de4a156",
        "meta": {
          "profile": [
            "http://hl7.eu/fhir/laboratory/StructureDefinition/Specimen-eu-lab"
          ]
        },
        "collection": {
          "collectedDateTime": "2021-10-29"
        },
        "text": {
          "status": "generated",
          "div": "<div xmlns=\"http://www.w3.org/1999/xhtml\"><table class=\"hl7__eu__lab__report\"><tr><th>Specimen</th><th>Collection Date</th></tr><tr><td>Acellular blood (serum or plasma) specimen</td><td><span class=\"nb\">29-Oct-2021</span></td></tr></table></div>"
        },
        "type": {
          "coding": [
            {
              "code": "122592007",
              "system": "http://snomed.info/sct",
              "display": "Acellular blood (serum or plasma) specimen"
            }
          ]
        }
      }
    },
    {
      "fullUrl": "urn:uuid:fa466446-45c9-47f6-89b7-8b55d0486735",
      "resource": {
        "resourceType": "Observation",
        "id": "fa466446-45c9-47f6-89b7-8b55d0486735",
        "meta": {
          "profile": [
            "http://hl7.eu/fhir/laboratory/StructureDefinition/Observation-resultslab-eu-lab"
          ]
        },
        "performer": [
          {
            "display": "The Central European Lab"
          }
        ],
        "category": [
          {
            "coding": [
              {
                "system": "http://terminology.hl7.org/CodeSystem/observation-category",
                "code": "laboratory"
              }
            ]
          }
        ],
        "code": {
          "coding": [
            {
              "code": "2093-3",
              "system": "http://loinc.org",
              "display": "Cholesterol [Mass/volume] in Serum or Plasma"
            }
          ],
          "text": "Cholesterol [Mass/volume] in Serum or Plasma"
        },
        "valueQuantity": {
          "system": "http://unitsofmeasure.org",
          "value": 163.4,
          "unit": "mg/dL",
          "code": "mg/dL"
        },
        "referenceRange": [
          {
            "low": {
              "value": 125,
              "code": "mg/dL",
              "system": "http://unitsofmeasure.org"
            }
          },
          {
            "high": {
              "value": 200,
              "code": "mg/dL",
              "system": "http://unitsofmeasure.org"
            }
          }
        ],
        "text": {
          "status": "generated",
          "div": "<div xmlns=\"http://www.w3.org/1999/xhtml\"><table class=\"hl7__eu__lab__report\"><tr><th>Test</th><th>29-Oct-2021</th><th>Reference&#xA0;Range</th><th>Unit</th></tr><tr><td>Cholesterol [Mass/volume] in Serum or Plasma</td><td>163.4</td><td>125 - 200</td><td></td><td>mg/dL</td></tr></table></div>"
        },
        "status": "final",
        "subject": {
          "reference": "urn:uuid:70cf4fdd-8de6-4122-9b05-3a82a3351de7",
          "display": "Elias Höfig"
        },
        "effectiveDateTime": "2021-10-29T09:47:46Z",
        "specimen": {
          "reference": "urn:uuid:e8f88b92-3bbf-49e4-b32f-f81e3de4a156"
        }
      }
    },
    {
      "fullUrl": "urn:uuid:33896cde-1743-4eab-94e8-dde26ed131e4",
      "resource": {
        "resourceType": "Observation",
        "id": "33896cde-1743-4eab-94e8-dde26ed131e4",
        "meta": {
          "profile": [
            "http://hl7.eu/fhir/laboratory/StructureDefinition/Observation-resultslab-eu-lab"
          ]
        },
        "performer": [
          {
            "display": "The Central European Lab"
          }
        ],
        "category": [
          {
            "coding": [
              {
                "system": "http://terminology.hl7.org/CodeSystem/observation-category",
                "code": "laboratory"
              }
            ]
          }
        ],
        "code": {
          "coding": [
            {
              "code": "2571-8",
              "system": "http://loinc.org",
              "display": "Triglyceride [Mass/volume] in Serum or Plasma"
            }
          ],
          "text": "Triglyceride [Mass/volume] in Serum or Plasma"
        },
        "valueQuantity": {
          "system": "http://unitsofmeasure.org",
          "value": 144.7,
          "unit": "mg/dL",
          "code": "mg/dL"
        },
        "referenceRange": [
          {
            "low": {
              "value": 0,
              "code": "mg/dL",
              "system": "http://unitsofmeasure.org"
            }
          },
          {
            "high": {
              "value": 150,
              "code": "mg/dL",
              "system": "http://unitsofmeasure.org"
            }
          }
        ],
        "text": {
          "status": "generated",
          "div": "<div xmlns=\"http://www.w3.org/1999/xhtml\"><table class=\"hl7__eu__lab__report\"><tr><th>Test</th><th>29-Oct-2021</th><th>Reference&#xA0;Range</th><th>Unit</th></tr><tr><td>Triglyceride [Mass/volume] in Serum or Plasma</td><td>144.7</td><td>0 - 150</td><td></td><td>mg/dL</td></tr></table></div>"
        },
        "status": "final",
        "subject": {
          "reference": "urn:uuid:70cf4fdd-8de6-4122-9b05-3a82a3351de7",
          "display": "Elias Höfig"
        },
        "effectiveDateTime": "2021-10-29T09:47:46Z",
        "specimen": {
          "reference": "urn:uuid:e8f88b92-3bbf-49e4-b32f-f81e3de4a156"
        }
      }
    },
    {
      "fullUrl": "urn:uuid:e44571a7-9a4f-44bd-99a4-92073ab3b91d",
      "resource": {
        "resourceType": "Observation",
        "id": "e44571a7-9a4f-44bd-99a4-92073ab3b91d",
        "meta": {
          "profile": [
            "http://hl7.eu/fhir/laboratory/StructureDefinition/Observation-resultslab-eu-lab"
          ]
        },
        "performer": [
          {
            "display": "The Central European Lab"
          }
        ],
        "category": [
          {
            "coding": [
              {
                "system": "http://terminology.hl7.org/CodeSystem/observation-category",
                "code": "laboratory"
              }
            ]
          }
        ],
        "code": {
          "coding": [
            {
              "code": "18262-6",
              "system": "http://loinc.org",
              "display": "Cholesterol in LDL [Mass/volume] in Serum or Plasma by Direct assay"
            }
          ],
          "text": "Cholesterol in LDL [Mass/volume] in Serum or Plasma by Direct assay"
        },
        "valueQuantity": {
          "system": "http://unitsofmeasure.org",
          "value": 89.6,
          "unit": "mg/dL",
          "code": "mg/dL"
        },
        "referenceRange": [
          {
            "low": {
              "value": 0,
              "code": "mg/dL",
              "system": "http://unitsofmeasure.org"
            }
          },
          {
            "high": {
              "value": 130,
              "code": "mg/dL",
              "system": "http://unitsofmeasure.org"
            }
          }
        ],
        "text": {
          "status": "generated",
          "div": "<div xmlns=\"http://www.w3.org/1999/xhtml\"><table class=\"hl7__eu__lab__report\"><tr><th>Test</th><th>29-Oct-2021</th><th>Reference&#xA0;Range</th><th>Unit</th></tr><tr><td>Cholesterol in LDL [Mass/volume] in Serum or Plasma by Direct assay</td><td>89.6</td><td>0 - 130</td><td></td><td>mg/dL</td></tr></table></div>"
        },
        "status": "final",
        "subject": {
          "reference": "urn:uuid:70cf4fdd-8de6-4122-9b05-3a82a3351de7",
          "display": "Elias Höfig"
        },
        "effectiveDateTime": "2021-10-29T09:47:46Z",
        "specimen": {
          "reference": "urn:uuid:e8f88b92-3bbf-49e4-b32f-f81e3de4a156"
        }
      }
    },
    {
      "fullUrl": "urn:uuid:c599210b-b830-4414-8c3d-500629891810",
      "resource": {
        "resourceType": "Observation",
        "id": "c599210b-b830-4414-8c3d-500629891810",
        "meta": {
          "profile": [
            "http://hl7.eu/fhir/laboratory/StructureDefinition/Observation-resultslab-eu-lab"
          ]
        },
        "performer": [
          {
            "display": "The Central European Lab"
          }
        ],
        "category": [
          {
            "coding": [
              {
                "system": "http://terminology.hl7.org/CodeSystem/observation-category",
                "code": "laboratory"
              }
            ]
          }
        ],
        "code": {
          "coding": [
            {
              "code": "2085-9",
              "system": "http://loinc.org",
              "display": "Cholesterol in HDL [Mass/volume] in Serum or Plasma"
            }
          ],
          "text": "Cholesterol in HDL [Mass/volume] in Serum or Plasma"
        },
        "valueQuantity": {
          "system": "http://unitsofmeasure.org",
          "value": 44.9,
          "unit": "mg/dL",
          "code": "mg/dL"
        },
        "referenceRange": [
          {
            "low": {
              "value": 40,
              "code": "mg/dL",
              "system": "http://unitsofmeasure.org"
            }
          },
          {
            "high": {
              "value": 60,
              "code": "mg/dL",
              "system": "http://unitsofmeasure.org"
            }
          }
        ],
        "text": {
          "status": "generated",
          "div": "<div xmlns=\"http://www.w3.org/1999/xhtml\"><table class=\"hl7__eu__lab__report\"><tr><th>Test</th><th>29-Oct-2021</th><th>Reference&#xA0;Range</th><th>Unit</th></tr><tr><td>Cholesterol in HDL [Mass/volume] in Serum or Plasma</td><td>44.9</td><td>40 - 60</td><td></td><td>mg/dL</td></tr></table></div>"
        },
        "status": "final",
        "subject": {
          "reference": "urn:uuid:70cf4fdd-8de6-4122-9b05-3a82a3351de7",
          "display": "Elias Höfig"
        },
        "effectiveDateTime": "2021-10-29T09:47:46Z",
        "specimen": {
          "reference": "urn:uuid:e8f88b92-3bbf-49e4-b32f-f81e3de4a156"
        }
      }
    },
    {
      "fullUrl": "urn:uuid:48bb840a-faef-4802-bb0b-025520a3fcbc",
      "resource": {
        "resourceType": "Device",
        "id": "48bb840a-faef-4802-bb0b-025520a3fcbc",
        "deviceName": [
          {
            "name": "SYNDERAI Synthetic Generator",
            "type": "manufacturer-name"
          }
        ],
        "version": [
          {
            "value": "5.0"
          }
        ],
        "text": {
          "status": "generated",
          "div": "<div xmlns=\"http://www.w3.org/1999/xhtml\">SYNDERAI Synthetic Generator v5.0</div>"
        },
        "status": "active\"",
        "distinctIdentifier": "synderai-generator-50",
        "manufacturer": "SYNDERAI Project"
      }
    },
    {
      "fullUrl": "urn:uuid:89401805-bf32-4073-8748-d9cc8a500b89",
      "resource": {
        "resourceType": "Provenance",
        "id": "89401805-bf32-4073-8748-d9cc8a500b89",
        "target": [
          {
            "reference": "Patient/70cf4fdd-8de6-4122-9b05-3a82a3351de7"
          },
          {
            "reference": "Bundle/3eb6e68e-897f-4605-a32e-3cfe51843a0d"
          },
          {
            "reference": "Composition/8279b8a5-afd8-4815-90d8-c906cabae5ba"
          },
          {
            "reference": "PractitionerRole/392d7b94-9ad7-4586-9fa9-11c151e3e9e5"
          },
          {
            "reference": "Practitioner/eee6b212-7041-44fb-a67f-c388d0402401"
          },
          {
            "reference": "PractitionerRole/41fb3761-af81-463e-ab92-a8962fc9ccce"
          },
          {
            "reference": "Organization/f5867f07-94e5-4cd4-8fb5-4a446b4b501c"
          }
        ],
        "activity": {
          "text": "Synthetic Example Data Generation"
        },
        "policy": [
          "https://synderai.net/synderai-synthetic-data-policy"
        ],
        "agent": [
          {
            "type": {
              "text": "author"
            },
            "who": {
              "reference": "Device/48bb840a-faef-4802-bb0b-025520a3fcbc"
            }
          }
        ],
        "reason": [
          {
            "text": "Interoperability Testing and Training (non-clinical use)"
          }
        ],
        "text": {
          "status": "generated",
          "div": "<div xmlns=\"http://www.w3.org/1999/xhtml\">Provenance for SYNDERAI Synthetic Example Data Resource</div>"
        },
        "recorded": "2021-10-29T11:47:46Z"
      }
    },
    {
      "fullUrl": "urn:uuid:392d7b94-9ad7-4586-9fa9-11c151e3e9e5",
      "resource": {
        "resourceType": "PractitionerRole",
        "id": "392d7b94-9ad7-4586-9fa9-11c151e3e9e5",
        "meta": {
          "profile": [
            "http://hl7.eu/fhir/base/StructureDefinition/practitionerRole-eu"
          ]
        },
        "text": {
          "status": "generated",
          "div": "<div xmlns=\"http://www.w3.org/1999/xhtml\">Laboratory Role Id: 392d7b94-9ad7-4586-9fa9-11c151e3e9e5</div>"
        },
        "practitioner": {
          "reference": "urn:uuid:eee6b212-7041-44fb-a67f-c388d0402401"
        }
      }
    },
    {
      "fullUrl": "urn:uuid:eee6b212-7041-44fb-a67f-c388d0402401",
      "resource": {
        "resourceType": "Practitioner",
        "id": "eee6b212-7041-44fb-a67f-c388d0402401",
        "meta": {
          "profile": [
            "http://hl7.eu/fhir/base/StructureDefinition/practitioner-eu"
          ]
        },
        "identifier": [
          {
            "assigner": {
              "display": "HL7 Europe"
            },
            "system": "urn:oid:2.16.840.1.113883.2.51.999",
            "value": "69ca0444-fd8c-4501-8e8c-67a3ee495e91"
          }
        ],
        "name": [
          {
            "prefix": [
              "dr"
            ],
            "given": [
              "Ex"
            ],
            "family": "Ample"
          }
        ],
        "address": [
          {
            "line": [
              "Laboratoire Central Européenne",
              "Boulevard du Jardin Botanique 32"
            ],
            "postalCode": "1000",
            "city": "Brussels",
            "country": "Belgium"
          }
        ],
        "text": {
          "status": "generated",
          "div": "<div xmlns=\"http://www.w3.org/1999/xhtml\">Laboratory: Laboratoire Central Européenne, 1000 Brussels, Belgium</div>"
        }
      }
    }
  ],
  "type": "document",
  "timestamp": "2021-10-29T11:47:46Z"
}
