{
  "resourceType": "Bundle",
  "id": "794904e4-ae90-4821-b236-e25455fb8acb",
  "meta": {
    "profile": [
      "http://hl7.eu/fhir/laboratory/StructureDefinition/Bundle-eu-lab"
    ]
  },
  "identifier": {
    "assigner": {
      "display": "HL7 Europe"
    },
    "system": "urn:oid:2.16.840.1.113883.2.51.999",
    "value": "27e77d69-89e9-405b-ae25-66df44e44c86"
  },
  "entry": [
    {
      "fullUrl": "urn:uuid:1f75ce0d-0640-47b4-be06-d54870161d90",
      "resource": {
        "resourceType": "Composition",
        "id": "1f75ce0d-0640-47b4-be06-d54870161d90",
        "meta": {
          "profile": [
            "http://hl7.eu/fhir/laboratory/StructureDefinition/Composition-eu-lab"
          ]
        },
        "identifier": {
          "assigner": {
            "display": "HL7 Europe"
          },
          "system": "urn:oid:2.16.840.1.113883.2.51.999",
          "value": "789bbce0-f858-4b44-a195-822bf959efe9"
        },
        "author": [
          {
            "reference": "urn:uuid:a4fed594-85aa-48a1-ba98-9dc8413c6d74"
          }
        ],
        "category": [
          {
            "coding": [
              {
                "code": "26436-6",
                "system": "http://loinc.org",
                "display": "Laboratory studies (set)"
              }
            ]
          }
        ],
        "type": {
          "coding": [
            {
              "code": "11502-2",
              "system": "http://loinc.org",
              "display": "Laboratory report"
            }
          ],
          "text": "Laboratory Report"
        },
        "section": [
          {
            "code": {
              "coding": [
                {
                  "code": "26436-6",
                  "system": "http://loinc.org",
                  "display": "Laboratory studies (set)"
                }
              ],
              "text": "Laboratory studies"
            },
            "section": [
              {
                "code": {
                  "coding": [
                    {
                      "code": "$18719-5",
                      "system": "http://loinc.org",
                      "display": "Chemistry studies (set)"
                    }
                  ],
                  "text": "Chemistry"
                },
                "entry": [
                  {
                    "reference": "urn:uuid:05728f1c-2f35-452c-952d-961ecd791367"
                  },
                  {
                    "reference": "urn:uuid:fe37a251-02d0-4ac4-9ad0-98e936b60e8b"
                  },
                  {
                    "reference": "urn:uuid:a0fb3d28-9648-4b82-9372-689fd0a5fc96"
                  },
                  {
                    "reference": "urn:uuid:0bc5c1aa-1b02-4af1-9e53-b772d9d41189"
                  },
                  {
                    "reference": "urn:uuid:505f52ae-90d4-484f-a375-27d54d70fd3e"
                  },
                  {
                    "reference": "urn:uuid:adac3707-51f8-470d-a02f-e88c014f5d98"
                  },
                  {
                    "reference": "urn:uuid:accc38c9-cc89-4c65-896b-f1f6720da410"
                  },
                  {
                    "reference": "urn:uuid:617b5703-7ded-4d96-b4f5-60194cafc680"
                  },
                  {
                    "reference": "urn:uuid:6dcb60f6-39d9-4f1a-a090-d7977d4bbffd"
                  },
                  {
                    "reference": "urn:uuid:1b99d2ec-cafb-44df-8859-cc816958cf17"
                  },
                  {
                    "reference": "urn:uuid:b6c60780-9153-4f6e-bd65-56d86821b17f"
                  },
                  {
                    "reference": "urn:uuid:31c6b071-c230-4817-ae9e-a557fd6f36c2"
                  },
                  {
                    "reference": "urn:uuid:1c8ea88b-53dc-4b5d-9b91-94f81bc6434a"
                  },
                  {
                    "reference": "urn:uuid:42e54bcf-6f09-4720-af6b-891c0e2e0cdf"
                  },
                  {
                    "reference": "urn:uuid:690518f9-3352-4148-9f08-aff4747abea2"
                  },
                  {
                    "reference": "urn:uuid:f7d2892c-8104-4b0a-9f63-90353eb29786"
                  }
                ],
                "text": {
                  "status": "generated",
                  "div": "<div xmlns=\"http://www.w3.org/1999/xhtml\"><h3>Chemistry</h3><table class=\"hl7__eu__lab__report\"><thead><tr><th>Test</th><th>22-JUN-2016</th><th>Reference&#xA0;Range</th><th>Unit</th></tr></thead><tbody><tr><td>Glucose [Mass/volume] in Blood</td><td>92.9</td><td>70 - 140</td><td>mg/dL</td></tr><tr><td>Urea nitrogen [Mass/volume] in Blood</td><td>7.7</td><td>7 - 30</td><td>mg/dL</td></tr><tr><td>Creatinine [Mass/volume] in Blood</td><td><strong>2.6 H</strong></td><td>0.5 - 1.3</td><td>mg/dL</td></tr><tr><td>Calcium [Mass/volume] in Blood</td><td>9.5</td><td>8.6 - 10.2</td><td>mg/dL</td></tr><tr><td>Sodium [Moles/volume] in Blood</td><td>142.1</td><td>135 - 145</td><td>mmol/L</td></tr><tr><td>Potassium [Moles/volume] in Blood</td><td>4.2</td><td>3.5 - 5.1</td><td>mmol/L</td></tr><tr><td>Chloride [Moles/volume] in Blood</td><td>104.9</td><td>98 - 114</td><td>mmol/L</td></tr><tr><td>Carbon dioxide, total [Moles/volume] in Blood</td><td><strong>21.3 L</strong></td><td>22 - 32</td><td>mmol/L</td></tr><tr><td>Protein [Mass/volume] in Serum or Plasma</td><td>6.0</td><td>6 - 8.3</td><td>g/dL</td></tr><tr><td>Albumin [Mass/volume] in Serum or Plasma</td><td>4.6</td><td>3.5 - 5.5</td><td>g/dL</td></tr><tr><td>Globulin [Mass/volume] in Serum by calculation</td><td>2.9</td><td>2 - 3.5</td><td>g/L</td></tr><tr><td>Bilirubin.total [Mass/volume] in Serum or Plasma</td><td>1.0</td><td>0.3 - 1.2</td><td>mg/dL</td></tr><tr><td>Alkaline phosphatase [Enzymatic activity/volume] in Serum or Plasma</td><td>132.1</td><td>44 - 142</td><td>U/L</td></tr><tr><td>Alanine aminotransferase [Enzymatic activity/volume] in Serum or Plasma</td><td>23.0</td><td>7 - 40</td><td>U/L</td></tr><tr><td>Aspartate aminotransferase [Enzymatic activity/volume] in Serum or Plasma</td><td>38.1</td><td>10 - 40</td><td>U/L</td></tr><tr><td>Ketones [Presence] in Urine by Test strip</td><td>Urine ketone test = +++</td><td></td><td></td></tr></tbody></table></div>"
                },
                "title": "Chemistry"
              },
              {
                "code": {
                  "coding": [
                    {
                      "code": "$18729-4",
                      "system": "http://loinc.org",
                      "display": "Urinalysis studies (set)"
                    }
                  ],
                  "text": "Urinalysis"
                },
                "entry": [
                  {
                    "reference": "urn:uuid:76ef151b-0480-483b-8234-afef5110dc64"
                  },
                  {
                    "reference": "urn:uuid:3ed6ff18-2a60-4e20-8480-8a38228d6b95"
                  },
                  {
                    "reference": "urn:uuid:b6e74923-19c5-49e3-952a-eb440b9711af"
                  },
                  {
                    "reference": "urn:uuid:7719ec36-97fd-44a1-b14b-738128abd0a6"
                  },
                  {
                    "reference": "urn:uuid:8ee44211-9968-4e4b-9f84-de3607d6f328"
                  },
                  {
                    "reference": "urn:uuid:c84431ac-5c15-431c-af0a-bde833912296"
                  },
                  {
                    "reference": "urn:uuid:a7d6912f-d796-4ea5-a259-4aa640addb5e"
                  },
                  {
                    "reference": "urn:uuid:acfd3e03-f80d-4a04-9ab3-f5649548515c"
                  },
                  {
                    "reference": "urn:uuid:15987f72-8233-45d4-a074-1bb801ac6a0b"
                  },
                  {
                    "reference": "urn:uuid:d2eab27b-1483-41c0-a611-922b7de68f2c"
                  },
                  {
                    "reference": "urn:uuid:77f1de16-95bf-4054-92e7-cabf70033617"
                  },
                  {
                    "reference": "urn:uuid:d9dee402-acde-4e29-8649-675181a581b1"
                  }
                ],
                "text": {
                  "status": "generated",
                  "div": "<div xmlns=\"http://www.w3.org/1999/xhtml\"><h3>Urinalysis</h3><table class=\"hl7__eu__lab__report\"><thead><tr><th>Test</th><th>22-JUN-2016</th><th>Reference&#xA0;Range</th><th>Unit</th></tr></thead><tbody><tr><td>Glucose [Mass/volume] in Urine by Test strip</td><td><strong>2.4 H</strong></td><td>0.8 - 0</td><td>mg/dL</td></tr><tr><td>Glucose [Presence] in Urine by Test strip</td><td>++</td><td></td><td></td></tr><tr><td>Bilirubin.total [Mass/volume] in Urine by Test strip</td><td>1.0</td><td>0 - 1.5</td><td>mg/dL</td></tr><tr><td>Bilirubin.total [Presence] in Urine by Test strip</td><td>Finding of bilirubin in urine</td><td></td><td></td></tr><tr><td>Ketones [Mass/volume] in Urine by Test strip</td><td>1.7</td><td>0 - 8</td><td>mg/dL</td></tr><tr><td>Specific gravity of Urine by Test strip</td><td><strong>1.0 L</strong></td><td>1.01 - 1.03</td><td>{nominal}</td></tr><tr><td>pH of Urine by Test strip</td><td>6.2</td><td>4.6 - 7.5</td><td>pH</td></tr><tr><td>Protein [Mass/volume] in Urine by Test strip</td><td><strong>353.6 H</strong></td><td>0 - 14</td><td>mg/dL</td></tr><tr><td>Protein [Presence] in Urine by Test strip</td><td>Urine protein test = +++</td><td></td><td></td></tr><tr><td>Nitrite [Presence] in Urine by Test strip</td><td>Urine nitrite negative</td><td></td><td></td></tr><tr><td>Hemoglobin [Presence] in Urine by Test strip</td><td>Urine blood test = negative</td><td></td><td></td></tr><tr><td>Leukocyte esterase [Presence] in Urine by Test strip</td><td>Urine leukocyte test negative</td><td></td><td></td></tr></tbody></table></div>"
                },
                "title": "Urinalysis"
              },
              {
                "code": {
                  "coding": [
                    {
                      "code": "$LP7846-1",
                      "system": "http://loinc.org",
                      "display": "Specimen information"
                    }
                  ],
                  "text": "Specimen information"
                },
                "entry": [
                  {
                    "reference": "urn:uuid:03a06b08-0b2b-43bf-aa88-877d3e31c534"
                  },
                  {
                    "reference": "urn:uuid:6faecb18-fb5d-4170-8719-87b0614db6a8"
                  },
                  {
                    "reference": "urn:uuid:7b32af66-f1a5-4b6b-835b-a1561ce1490b"
                  },
                  {
                    "reference": "urn:uuid:7d6754bd-7e29-465c-a079-8e8c7dc58563"
                  }
                ],
                "text": {
                  "status": "generated",
                  "div": "<div xmlns=\"http://www.w3.org/1999/xhtml\"><h3>Specimen information</h3><table class=\"hl7__eu__lab__report\"><thead><tr><th>Test</th><th>22-JUN-2016</th><th>Specimen</th><th></th></tr></thead><tbody><tr><td>Appearance of Urine</td><td>Cloudy urine</td><td>Urine</td><td></td></tr><tr><td>Odor of Urine</td><td>Urine smell ammoniacal</td><td>Urine</td><td></td></tr><tr><td>Clarity of Urine</td><td>Translucent</td><td>Urine</td><td></td></tr><tr><td>Color of Urine</td><td>Brown color</td><td>Urine</td><td></td></tr></tbody></table></div>"
                },
                "title": "Specimen information"
              }
            ],
            "title": "Laboratory Report"
          },
          {
            "text": {
              "status": "generated",
              "div": "<div xmlns=\"http://www.w3.org/1999/xhtml\"><h3>Annotation</h3><table class=\"hl7__eu__lab__report\"><tr><th>Conclusion and Recommendations based on this report and previous findings known to us</th></tr><tr><td>The patient shows elevated serum creatinine, low total CO₂, and significant proteinuria, suggesting impaired renal function with possible metabolic acidosis. Urinalysis reveals glucosuria, ketonuria, and proteinuria, with low specific gravity and abnormal urine appearance, raising concern for diabetic nephropathy or acute kidney injury. Liver and electrolyte parameters are within normal limits. Recommend further nephrological evaluation and assessment for underlying diabetes or other causes of renal impairment.</td></tr></table></div>"
            },
            "code": {
              "coding": [
                {
                  "system": "http://loinc.org",
                  "code": "48767-8",
                  "display": "Annotation comment"
                }
              ]
            },
            "title": "Annotation comment"
          }
        ],
        "status": "final",
        "subject": {
          "reference": "urn:uuid:7fe58d0c-ae72-4301-8b0d-7b44d872e05f",
          "display": "Maria Nohlmans"
        },
        "date": "2016-06-22T02:03:39Z",
        "title": "Laboratory Report",
        "confidentiality": "N"
      }
    },
    {
      "fullUrl": "urn:uuid:90730723-c68a-459e-b618-79970e152c55",
      "resource": {
        "resourceType": "DiagnosticReport",
        "id": "90730723-c68a-459e-b618-79970e152c55",
        "meta": {
          "profile": [
            "http://hl7.eu/fhir/laboratory/StructureDefinition/DiagnosticReport-eu-lab"
          ]
        },
        "identifier": [
          {
            "assigner": {
              "display": "HL7 Europe"
            },
            "system": "urn:oid:2.16.840.1.113883.2.51.999",
            "value": "d4231c99-0e22-406e-9e75-010b9756c0ec"
          }
        ],
        "extension": [
          {
            "url": "http://hl7.org/fhir/5.0/StructureDefinition/extension-DiagnosticReport.composition",
            "valueReference": {
              "reference": "urn:uuid:789bbce0-f858-4b44-a195-822bf959efe9"
            }
          }
        ],
        "category": [
          {
            "coding": [
              {
                "code": "26436-6",
                "system": "http://loinc.org",
                "display": "Laboratory studies (set)"
              }
            ]
          }
        ],
        "specimen": [
          {
            "reference": "urn:uuid:52e461a3-d1d9-4f5a-85cf-760fac55d71f"
          },
          {
            "reference": "urn:uuid:497b5579-e608-4456-b2e4-e0dd919f4005"
          },
          {
            "reference": "urn:uuid:511a073c-a70c-474a-bf60-78d79d141eb0"
          },
          {
            "reference": "urn:uuid:60997faa-b9ee-4e8e-87cf-172ac15b3b3f"
          }
        ],
        "result": [
          {
            "reference": "urn:uuid:05728f1c-2f35-452c-952d-961ecd791367"
          },
          {
            "reference": "urn:uuid:fe37a251-02d0-4ac4-9ad0-98e936b60e8b"
          },
          {
            "reference": "urn:uuid:a0fb3d28-9648-4b82-9372-689fd0a5fc96"
          },
          {
            "reference": "urn:uuid:0bc5c1aa-1b02-4af1-9e53-b772d9d41189"
          },
          {
            "reference": "urn:uuid:505f52ae-90d4-484f-a375-27d54d70fd3e"
          },
          {
            "reference": "urn:uuid:adac3707-51f8-470d-a02f-e88c014f5d98"
          },
          {
            "reference": "urn:uuid:accc38c9-cc89-4c65-896b-f1f6720da410"
          },
          {
            "reference": "urn:uuid:617b5703-7ded-4d96-b4f5-60194cafc680"
          },
          {
            "reference": "urn:uuid:6dcb60f6-39d9-4f1a-a090-d7977d4bbffd"
          },
          {
            "reference": "urn:uuid:1b99d2ec-cafb-44df-8859-cc816958cf17"
          },
          {
            "reference": "urn:uuid:b6c60780-9153-4f6e-bd65-56d86821b17f"
          },
          {
            "reference": "urn:uuid:31c6b071-c230-4817-ae9e-a557fd6f36c2"
          },
          {
            "reference": "urn:uuid:1c8ea88b-53dc-4b5d-9b91-94f81bc6434a"
          },
          {
            "reference": "urn:uuid:42e54bcf-6f09-4720-af6b-891c0e2e0cdf"
          },
          {
            "reference": "urn:uuid:690518f9-3352-4148-9f08-aff4747abea2"
          },
          {
            "reference": "urn:uuid:03a06b08-0b2b-43bf-aa88-877d3e31c534"
          },
          {
            "reference": "urn:uuid:6faecb18-fb5d-4170-8719-87b0614db6a8"
          },
          {
            "reference": "urn:uuid:7b32af66-f1a5-4b6b-835b-a1561ce1490b"
          },
          {
            "reference": "urn:uuid:7d6754bd-7e29-465c-a079-8e8c7dc58563"
          },
          {
            "reference": "urn:uuid:76ef151b-0480-483b-8234-afef5110dc64"
          },
          {
            "reference": "urn:uuid:3ed6ff18-2a60-4e20-8480-8a38228d6b95"
          },
          {
            "reference": "urn:uuid:b6e74923-19c5-49e3-952a-eb440b9711af"
          },
          {
            "reference": "urn:uuid:7719ec36-97fd-44a1-b14b-738128abd0a6"
          },
          {
            "reference": "urn:uuid:8ee44211-9968-4e4b-9f84-de3607d6f328"
          },
          {
            "reference": "urn:uuid:f7d2892c-8104-4b0a-9f63-90353eb29786"
          },
          {
            "reference": "urn:uuid:c84431ac-5c15-431c-af0a-bde833912296"
          },
          {
            "reference": "urn:uuid:a7d6912f-d796-4ea5-a259-4aa640addb5e"
          },
          {
            "reference": "urn:uuid:acfd3e03-f80d-4a04-9ab3-f5649548515c"
          },
          {
            "reference": "urn:uuid:15987f72-8233-45d4-a074-1bb801ac6a0b"
          },
          {
            "reference": "urn:uuid:d2eab27b-1483-41c0-a611-922b7de68f2c"
          },
          {
            "reference": "urn:uuid:77f1de16-95bf-4054-92e7-cabf70033617"
          },
          {
            "reference": "urn:uuid:d9dee402-acde-4e29-8649-675181a581b1"
          }
        ],
        "status": "registered",
        "code": {
          "coding": [
            {
              "code": "11502-2",
              "system": "http://loinc.org",
              "display": "Laboratory report"
            }
          ]
        },
        "subject": {
          "reference": "urn:uuid:7fe58d0c-ae72-4301-8b0d-7b44d872e05f",
          "display": "Maria Nohlmans"
        }
      }
    },
    {
      "fullUrl": "urn:uuid:7fe58d0c-ae72-4301-8b0d-7b44d872e05f",
      "resource": {
        "resourceType": "Patient",
        "id": "7fe58d0c-ae72-4301-8b0d-7b44d872e05f",
        "meta": {
          "security": [
            {
              "system": "http://terminology.hl7.org/CodeSystem/v3-ActReason",
              "code": "HTEST"
            },
            {
              "system": "http://terminology.hl7.org/CodeSystem/v3-ActReason",
              "code": "TRAIN"
            }
          ],
          "tag": [
            {
              "system": "https://synderai.net/fhir/CodeSystem/tags",
              "code": "synthetic",
              "display": "SYNDERAI Synthetic data"
            }
          ],
          "profile": [
            "http://hl7.eu/fhir/base/StructureDefinition/patient-eu-core"
          ]
        },
        "identifier": [
          {
            "type": {
              "coding": [
                {
                  "code": "PT",
                  "system": "http://terminology.hl7.org/CodeSystem/v2-0203"
                }
              ]
            },
            "system": "http://ec.europa.eu/identifier/eci",
            "value": "6886-506417-1"
          },
          {
            "type": {
              "coding": [
                {
                  "code": "MR",
                  "system": "http://terminology.hl7.org/CodeSystem/v2-0203"
                }
              ]
            },
            "system": "http://local.setting.eu/identifier",
            "value": "2cb21ed6-b617-b1f3-2290-589a710de5ee"
          }
        ],
        "name": [
          {
            "family": "Nohlmans"
          },
          {
            "given": [
              "Maria"
            ]
          },
          {
            "text": "Maria Nohlmans"
          }
        ],
        "address": [
          {
            "line": [
              "Alfons-Wulff-Weg 1"
            ],
            "use": "home",
            "type": "physical",
            "postalCode": "25813",
            "city": "Husum",
            "country": "Germany"
          }
        ],
        "telecom": [
          {
            "system": "phone",
            "value": "+49(0)1911 105501"
          }
        ],
        "extension": [
          {
            "url": "http://hl7.org/fhir/StructureDefinition/patient-nationality",
            "valueCodeableConcept": {
              "coding": [
                {
                  "code": "DE",
                  "system": "http://hl7.org/fhir/ValueSet/country"
                }
              ]
            }
          }
        ],
        "text": {
          "status": "generated",
          "div": "<div xmlns=\"http://www.w3.org/1999/xhtml\"><table class=\"hl7__ips\"><tr><td>Maria Nohlmans</td><td>female</td><td>11-Jun-1947</td></tr></table></div>"
        },
        "gender": "female",
        "birthDate": "1947-06-11"
      }
    },
    {
      "fullUrl": "urn:uuid:5dc06a43-34f5-440a-b13f-646392a27f22",
      "resource": {
        "resourceType": "ServiceRequest",
        "id": "5dc06a43-34f5-440a-b13f-646392a27f22",
        "meta": {
          "profile": [
            "http://hl7.eu/fhir/laboratory/StructureDefinition/ServiceRequest-eu-lab"
          ]
        },
        "identifier": [
          {
            "system": "http://example.org",
            "value": "fa707c29-41a5-41d1-b16c-e80f6549ec3b"
          }
        ],
        "specimen": [
          {
            "reference": "urn:uuid:52e461a3-d1d9-4f5a-85cf-760fac55d71f"
          },
          {
            "reference": "urn:uuid:497b5579-e608-4456-b2e4-e0dd919f4005"
          },
          {
            "reference": "urn:uuid:511a073c-a70c-474a-bf60-78d79d141eb0"
          },
          {
            "reference": "urn:uuid:60997faa-b9ee-4e8e-87cf-172ac15b3b3f"
          }
        ],
        "reasonCode": [
          {
            "coding": [
              {
                "code": "401314000",
                "system": "http://snomed.info/sct",
                "display": "Acute non-ST segment elevation myocardial infarction"
              }
            ]
          },
          {
            "coding": [
              {
                "code": "157141000119108",
                "system": "http://snomed.info/sct",
                "display": "Proteinuria due to type 2 diabetes mellitus"
              }
            ]
          },
          {
            "coding": [
              {
                "code": "237602007",
                "system": "http://snomed.info/sct",
                "display": "Metabolic syndrome X"
              }
            ]
          },
          {
            "coding": [
              {
                "code": "90781000119102",
                "system": "http://snomed.info/sct",
                "display": "Microalbuminuria due to type 2 diabetes mellitus"
              }
            ]
          },
          {
            "coding": [
              {
                "code": "127013003",
                "system": "http://snomed.info/sct",
                "display": "Disorder of kidney due to diabetes mellitus"
              }
            ]
          },
          {
            "coding": [
              {
                "code": "59621000",
                "system": "http://snomed.info/sct",
                "display": "Essential hypertension"
              }
            ]
          },
          {
            "coding": [
              {
                "code": "271737000",
                "system": "http://snomed.info/sct",
                "display": "Anemia"
              }
            ]
          },
          {
            "coding": [
              {
                "code": "15777000",
                "system": "http://snomed.info/sct",
                "display": "Prediabetes"
              }
            ]
          }
        ],
        "status": "active",
        "intent": "order",
        "code": {
          "coding": [
            {
              "code": "108252007",
              "system": "http://snomed.info/sct",
              "display": "Laboratory procedure"
            }
          ]
        },
        "subject": {
          "reference": "urn:uuid:7fe58d0c-ae72-4301-8b0d-7b44d872e05f",
          "display": "Maria Nohlmans"
        },
        "requester": {
          "reference": "urn:uuid:302c6b0d-c680-461f-aa55-31997f46bf67"
        }
      }
    },
    {
      "fullUrl": "urn:uuid:302c6b0d-c680-461f-aa55-31997f46bf67",
      "resource": {
        "resourceType": "PractitionerRole",
        "id": "302c6b0d-c680-461f-aa55-31997f46bf67",
        "meta": {
          "profile": [
            "http://hl7.eu/fhir/base/StructureDefinition/practitionerRole-eu"
          ]
        },
        "text": {
          "status": "generated",
          "div": "<div xmlns=\"http://www.w3.org/1999/xhtml\">Provider Role Id: 302c6b0d-c680-461f-aa55-31997f46bf67</div>"
        },
        "organization": {
          "reference": "urn:uuid:83d0e201-9f49-45f1-af50-eea843b86d6d"
        }
      }
    },
    {
      "fullUrl": "urn:uuid:83d0e201-9f49-45f1-af50-eea843b86d6d",
      "resource": {
        "resourceType": "Organization",
        "id": "83d0e201-9f49-45f1-af50-eea843b86d6d",
        "meta": {
          "profile": [
            "http://hl7.eu/fhir/base/StructureDefinition/organization-eu"
          ]
        },
        "identifier": [
          {
            "assigner": {
              "display": "HL7 Europe"
            },
            "system": "urn:oid:2.16.840.1.113883.2.51.999",
            "value": "07a8cb56-249f-4a6f-b4f4-6e4248c79812"
          }
        ],
        "address": [
          {
            "line": [
              "Brinckmannstraße 35"
            ],
            "city": "Husum",
            "postalCode": "25813",
            "country": "Germany"
          }
        ],
        "text": {
          "status": "generated",
          "div": "<div xmlns=\"http://www.w3.org/1999/xhtml\">Provider Organization: Dr. Wolfram Hussels Kieferorthopäde</div>"
        },
        "name": "Dr. Wolfram Hussels Kieferorthopäde"
      }
    },
    {
      "fullUrl": "urn:uuid:52e461a3-d1d9-4f5a-85cf-760fac55d71f",
      "resource": {
        "resourceType": "Specimen",
        "id": "52e461a3-d1d9-4f5a-85cf-760fac55d71f",
        "meta": {
          "profile": [
            "http://hl7.eu/fhir/laboratory/StructureDefinition/Specimen-eu-lab"
          ]
        },
        "collection": {
          "collectedDateTime": "2016-06-22"
        },
        "text": {
          "status": "generated",
          "div": "<div xmlns=\"http://www.w3.org/1999/xhtml\"><table class=\"hl7__eu__lab__report\"><tr><th>Specimen</th><th>Collection Date</th></tr><tr><td>Whole blood specimen (specimen)</td><td><span class=\"nb\">22-Jun-2016</span></td></tr></table></div>"
        },
        "type": {
          "coding": [
            {
              "code": "258580003",
              "system": "http://snomed.info/sct",
              "display": "Whole blood specimen (specimen)"
            }
          ]
        }
      }
    },
    {
      "fullUrl": "urn:uuid:497b5579-e608-4456-b2e4-e0dd919f4005",
      "resource": {
        "resourceType": "Specimen",
        "id": "497b5579-e608-4456-b2e4-e0dd919f4005",
        "meta": {
          "profile": [
            "http://hl7.eu/fhir/laboratory/StructureDefinition/Specimen-eu-lab"
          ]
        },
        "collection": {
          "collectedDateTime": "2016-06-22"
        },
        "text": {
          "status": "generated",
          "div": "<div xmlns=\"http://www.w3.org/1999/xhtml\"><table class=\"hl7__eu__lab__report\"><tr><th>Specimen</th><th>Collection Date</th></tr><tr><td>Acellular blood (serum or plasma) specimen</td><td><span class=\"nb\">22-Jun-2016</span></td></tr></table></div>"
        },
        "type": {
          "coding": [
            {
              "code": "122592007",
              "system": "http://snomed.info/sct",
              "display": "Acellular blood (serum or plasma) specimen"
            }
          ]
        }
      }
    },
    {
      "fullUrl": "urn:uuid:511a073c-a70c-474a-bf60-78d79d141eb0",
      "resource": {
        "resourceType": "Specimen",
        "id": "511a073c-a70c-474a-bf60-78d79d141eb0",
        "meta": {
          "profile": [
            "http://hl7.eu/fhir/laboratory/StructureDefinition/Specimen-eu-lab"
          ]
        },
        "collection": {
          "collectedDateTime": "2016-06-22"
        },
        "text": {
          "status": "generated",
          "div": "<div xmlns=\"http://www.w3.org/1999/xhtml\"><table class=\"hl7__eu__lab__report\"><tr><th>Specimen</th><th>Collection Date</th></tr><tr><td>Serum specimen</td><td><span class=\"nb\">22-Jun-2016</span></td></tr></table></div>"
        },
        "type": {
          "coding": [
            {
              "code": "119364003",
              "system": "http://snomed.info/sct",
              "display": "Serum specimen"
            }
          ]
        }
      }
    },
    {
      "fullUrl": "urn:uuid:60997faa-b9ee-4e8e-87cf-172ac15b3b3f",
      "resource": {
        "resourceType": "Specimen",
        "id": "60997faa-b9ee-4e8e-87cf-172ac15b3b3f",
        "meta": {
          "profile": [
            "http://hl7.eu/fhir/laboratory/StructureDefinition/Specimen-eu-lab"
          ]
        },
        "collection": {
          "collectedDateTime": "2016-06-22"
        },
        "text": {
          "status": "generated",
          "div": "<div xmlns=\"http://www.w3.org/1999/xhtml\"><table class=\"hl7__eu__lab__report\"><tr><th>Specimen</th><th>Collection Date</th></tr><tr><td>Urine specimen</td><td><span class=\"nb\">22-Jun-2016</span></td></tr></table></div>"
        },
        "type": {
          "coding": [
            {
              "code": "122575003",
              "system": "http://snomed.info/sct",
              "display": "Urine specimen"
            }
          ]
        }
      }
    },
    {
      "fullUrl": "urn:uuid:05728f1c-2f35-452c-952d-961ecd791367",
      "resource": {
        "resourceType": "Observation",
        "id": "05728f1c-2f35-452c-952d-961ecd791367",
        "meta": {
          "profile": [
            "http://hl7.eu/fhir/laboratory/StructureDefinition/Observation-resultslab-eu-lab"
          ]
        },
        "performer": [
          {
            "display": "The Central European Lab"
          }
        ],
        "category": [
          {
            "coding": [
              {
                "system": "http://terminology.hl7.org/CodeSystem/observation-category",
                "code": "laboratory"
              }
            ]
          }
        ],
        "code": {
          "coding": [
            {
              "code": "2339-0",
              "system": "http://loinc.org",
              "display": "Glucose [Mass/volume] in Blood"
            }
          ],
          "text": "Glucose [Mass/volume] in Blood"
        },
        "valueQuantity": {
          "system": "http://unitsofmeasure.org",
          "value": 92.9,
          "unit": "mg/dL",
          "code": "mg/dL"
        },
        "referenceRange": [
          {
            "low": {
              "value": 70,
              "code": "mg/dL",
              "system": "http://unitsofmeasure.org"
            }
          },
          {
            "high": {
              "value": 140,
              "code": "mg/dL",
              "system": "http://unitsofmeasure.org"
            }
          }
        ],
        "text": {
          "status": "generated",
          "div": "<div xmlns=\"http://www.w3.org/1999/xhtml\"><table class=\"hl7__eu__lab__report\"><tr><th>Test</th><th>22-Jun-2016</th><th>Reference&#xA0;Range</th><th>Unit</th></tr><tr><td>Glucose [Mass/volume] in Blood</td><td>92.9</td><td>70 - 140</td><td></td><td>mg/dL</td></tr></table></div>"
        },
        "status": "final",
        "subject": {
          "reference": "urn:uuid:7fe58d0c-ae72-4301-8b0d-7b44d872e05f",
          "display": "Maria Nohlmans"
        },
        "effectiveDateTime": "2016-06-22T00:03:39Z",
        "specimen": {
          "reference": "urn:uuid:52e461a3-d1d9-4f5a-85cf-760fac55d71f"
        }
      }
    },
    {
      "fullUrl": "urn:uuid:fe37a251-02d0-4ac4-9ad0-98e936b60e8b",
      "resource": {
        "resourceType": "Observation",
        "id": "fe37a251-02d0-4ac4-9ad0-98e936b60e8b",
        "meta": {
          "profile": [
            "http://hl7.eu/fhir/laboratory/StructureDefinition/Observation-resultslab-eu-lab"
          ]
        },
        "performer": [
          {
            "display": "The Central European Lab"
          }
        ],
        "category": [
          {
            "coding": [
              {
                "system": "http://terminology.hl7.org/CodeSystem/observation-category",
                "code": "laboratory"
              }
            ]
          }
        ],
        "code": {
          "coding": [
            {
              "code": "6299-2",
              "system": "http://loinc.org",
              "display": "Urea nitrogen [Mass/volume] in Blood"
            }
          ],
          "text": "Urea nitrogen [Mass/volume] in Blood"
        },
        "valueQuantity": {
          "system": "http://unitsofmeasure.org",
          "value": 7.7,
          "unit": "mg/dL",
          "code": "mg/dL"
        },
        "referenceRange": [
          {
            "low": {
              "value": 7,
              "code": "mg/dL",
              "system": "http://unitsofmeasure.org"
            }
          },
          {
            "high": {
              "value": 30,
              "code": "mg/dL",
              "system": "http://unitsofmeasure.org"
            }
          }
        ],
        "text": {
          "status": "generated",
          "div": "<div xmlns=\"http://www.w3.org/1999/xhtml\"><table class=\"hl7__eu__lab__report\"><tr><th>Test</th><th>22-Jun-2016</th><th>Reference&#xA0;Range</th><th>Unit</th></tr><tr><td>Urea nitrogen [Mass/volume] in Blood</td><td>7.7</td><td>7 - 30</td><td></td><td>mg/dL</td></tr></table></div>"
        },
        "status": "final",
        "subject": {
          "reference": "urn:uuid:7fe58d0c-ae72-4301-8b0d-7b44d872e05f",
          "display": "Maria Nohlmans"
        },
        "effectiveDateTime": "2016-06-22T00:03:39Z",
        "specimen": {
          "reference": "urn:uuid:52e461a3-d1d9-4f5a-85cf-760fac55d71f"
        }
      }
    },
    {
      "fullUrl": "urn:uuid:a0fb3d28-9648-4b82-9372-689fd0a5fc96",
      "resource": {
        "resourceType": "Observation",
        "id": "a0fb3d28-9648-4b82-9372-689fd0a5fc96",
        "meta": {
          "profile": [
            "http://hl7.eu/fhir/laboratory/StructureDefinition/Observation-resultslab-eu-lab"
          ]
        },
        "performer": [
          {
            "display": "The Central European Lab"
          }
        ],
        "category": [
          {
            "coding": [
              {
                "system": "http://terminology.hl7.org/CodeSystem/observation-category",
                "code": "laboratory"
              }
            ]
          }
        ],
        "code": {
          "coding": [
            {
              "code": "38483-4",
              "system": "http://loinc.org",
              "display": "Creatinine [Mass/volume] in Blood"
            }
          ],
          "text": "Creatinine [Mass/volume] in Blood"
        },
        "valueQuantity": {
          "system": "http://unitsofmeasure.org",
          "value": 2.6,
          "unit": "mg/dL",
          "code": "mg/dL"
        },
        "referenceRange": [
          {
            "low": {
              "value": 0.5,
              "code": "mg/dL",
              "system": "http://unitsofmeasure.org"
            }
          },
          {
            "high": {
              "value": 1.3,
              "code": "mg/dL",
              "system": "http://unitsofmeasure.org"
            }
          }
        ],
        "interpretation": [
          {
            "coding": [
              {
                "code": "H",
                "system": "http://terminology.hl7.org/CodeSystem/v3-ObservationInterpretation",
                "display": "High"
              }
            ]
          }
        ],
        "text": {
          "status": "generated",
          "div": "<div xmlns=\"http://www.w3.org/1999/xhtml\"><table class=\"hl7__eu__lab__report\"><tr><th>Test</th><th>22-Jun-2016</th><th>Reference&#xA0;Range</th><th>Unit</th></tr><tr><td>Creatinine [Mass/volume] in Blood</td><td>2.6</td><td>0.5 - 1.3</td><td>H</td><td>mg/dL</td></tr></table></div>"
        },
        "status": "final",
        "subject": {
          "reference": "urn:uuid:7fe58d0c-ae72-4301-8b0d-7b44d872e05f",
          "display": "Maria Nohlmans"
        },
        "effectiveDateTime": "2016-06-22T00:03:39Z",
        "specimen": {
          "reference": "urn:uuid:52e461a3-d1d9-4f5a-85cf-760fac55d71f"
        }
      }
    },
    {
      "fullUrl": "urn:uuid:0bc5c1aa-1b02-4af1-9e53-b772d9d41189",
      "resource": {
        "resourceType": "Observation",
        "id": "0bc5c1aa-1b02-4af1-9e53-b772d9d41189",
        "meta": {
          "profile": [
            "http://hl7.eu/fhir/laboratory/StructureDefinition/Observation-resultslab-eu-lab"
          ]
        },
        "performer": [
          {
            "display": "The Central European Lab"
          }
        ],
        "category": [
          {
            "coding": [
              {
                "system": "http://terminology.hl7.org/CodeSystem/observation-category",
                "code": "laboratory"
              }
            ]
          }
        ],
        "code": {
          "coding": [
            {
              "code": "49765-1",
              "system": "http://loinc.org",
              "display": "Calcium [Mass/volume] in Blood"
            }
          ],
          "text": "Calcium [Mass/volume] in Blood"
        },
        "valueQuantity": {
          "system": "http://unitsofmeasure.org",
          "value": 9.5,
          "unit": "mg/dL",
          "code": "mg/dL"
        },
        "referenceRange": [
          {
            "low": {
              "value": 8.6,
              "code": "mg/dL",
              "system": "http://unitsofmeasure.org"
            }
          },
          {
            "high": {
              "value": 10.2,
              "code": "mg/dL",
              "system": "http://unitsofmeasure.org"
            }
          }
        ],
        "text": {
          "status": "generated",
          "div": "<div xmlns=\"http://www.w3.org/1999/xhtml\"><table class=\"hl7__eu__lab__report\"><tr><th>Test</th><th>22-Jun-2016</th><th>Reference&#xA0;Range</th><th>Unit</th></tr><tr><td>Calcium [Mass/volume] in Blood</td><td>9.5</td><td>8.6 - 10.2</td><td></td><td>mg/dL</td></tr></table></div>"
        },
        "status": "final",
        "subject": {
          "reference": "urn:uuid:7fe58d0c-ae72-4301-8b0d-7b44d872e05f",
          "display": "Maria Nohlmans"
        },
        "effectiveDateTime": "2016-06-22T00:03:39Z",
        "specimen": {
          "reference": "urn:uuid:52e461a3-d1d9-4f5a-85cf-760fac55d71f"
        }
      }
    },
    {
      "fullUrl": "urn:uuid:505f52ae-90d4-484f-a375-27d54d70fd3e",
      "resource": {
        "resourceType": "Observation",
        "id": "505f52ae-90d4-484f-a375-27d54d70fd3e",
        "meta": {
          "profile": [
            "http://hl7.eu/fhir/laboratory/StructureDefinition/Observation-resultslab-eu-lab"
          ]
        },
        "performer": [
          {
            "display": "The Central European Lab"
          }
        ],
        "category": [
          {
            "coding": [
              {
                "system": "http://terminology.hl7.org/CodeSystem/observation-category",
                "code": "laboratory"
              }
            ]
          }
        ],
        "code": {
          "coding": [
            {
              "code": "2947-0",
              "system": "http://loinc.org",
              "display": "Sodium [Moles/volume] in Blood"
            }
          ],
          "text": "Sodium [Moles/volume] in Blood"
        },
        "valueQuantity": {
          "system": "http://unitsofmeasure.org",
          "value": 142.1,
          "unit": "mmol/L",
          "code": "mmol/L"
        },
        "referenceRange": [
          {
            "low": {
              "value": 135,
              "code": "mmol/L",
              "system": "http://unitsofmeasure.org"
            }
          },
          {
            "high": {
              "value": 145,
              "code": "mmol/L",
              "system": "http://unitsofmeasure.org"
            }
          }
        ],
        "text": {
          "status": "generated",
          "div": "<div xmlns=\"http://www.w3.org/1999/xhtml\"><table class=\"hl7__eu__lab__report\"><tr><th>Test</th><th>22-Jun-2016</th><th>Reference&#xA0;Range</th><th>Unit</th></tr><tr><td>Sodium [Moles/volume] in Blood</td><td>142.1</td><td>135 - 145</td><td></td><td>mmol/L</td></tr></table></div>"
        },
        "status": "final",
        "subject": {
          "reference": "urn:uuid:7fe58d0c-ae72-4301-8b0d-7b44d872e05f",
          "display": "Maria Nohlmans"
        },
        "effectiveDateTime": "2016-06-22T00:03:39Z",
        "specimen": {
          "reference": "urn:uuid:52e461a3-d1d9-4f5a-85cf-760fac55d71f"
        }
      }
    },
    {
      "fullUrl": "urn:uuid:adac3707-51f8-470d-a02f-e88c014f5d98",
      "resource": {
        "resourceType": "Observation",
        "id": "adac3707-51f8-470d-a02f-e88c014f5d98",
        "meta": {
          "profile": [
            "http://hl7.eu/fhir/laboratory/StructureDefinition/Observation-resultslab-eu-lab"
          ]
        },
        "performer": [
          {
            "display": "The Central European Lab"
          }
        ],
        "category": [
          {
            "coding": [
              {
                "system": "http://terminology.hl7.org/CodeSystem/observation-category",
                "code": "laboratory"
              }
            ]
          }
        ],
        "code": {
          "coding": [
            {
              "code": "6298-4",
              "system": "http://loinc.org",
              "display": "Potassium [Moles/volume] in Blood"
            }
          ],
          "text": "Potassium [Moles/volume] in Blood"
        },
        "valueQuantity": {
          "system": "http://unitsofmeasure.org",
          "value": 4.2,
          "unit": "mmol/L",
          "code": "mmol/L"
        },
        "referenceRange": [
          {
            "low": {
              "value": 3.5,
              "code": "mmol/L",
              "system": "http://unitsofmeasure.org"
            }
          },
          {
            "high": {
              "value": 5.1,
              "code": "mmol/L",
              "system": "http://unitsofmeasure.org"
            }
          }
        ],
        "text": {
          "status": "generated",
          "div": "<div xmlns=\"http://www.w3.org/1999/xhtml\"><table class=\"hl7__eu__lab__report\"><tr><th>Test</th><th>22-Jun-2016</th><th>Reference&#xA0;Range</th><th>Unit</th></tr><tr><td>Potassium [Moles/volume] in Blood</td><td>4.2</td><td>3.5 - 5.1</td><td></td><td>mmol/L</td></tr></table></div>"
        },
        "status": "final",
        "subject": {
          "reference": "urn:uuid:7fe58d0c-ae72-4301-8b0d-7b44d872e05f",
          "display": "Maria Nohlmans"
        },
        "effectiveDateTime": "2016-06-22T00:03:39Z",
        "specimen": {
          "reference": "urn:uuid:52e461a3-d1d9-4f5a-85cf-760fac55d71f"
        }
      }
    },
    {
      "fullUrl": "urn:uuid:accc38c9-cc89-4c65-896b-f1f6720da410",
      "resource": {
        "resourceType": "Observation",
        "id": "accc38c9-cc89-4c65-896b-f1f6720da410",
        "meta": {
          "profile": [
            "http://hl7.eu/fhir/laboratory/StructureDefinition/Observation-resultslab-eu-lab"
          ]
        },
        "performer": [
          {
            "display": "The Central European Lab"
          }
        ],
        "category": [
          {
            "coding": [
              {
                "system": "http://terminology.hl7.org/CodeSystem/observation-category",
                "code": "laboratory"
              }
            ]
          }
        ],
        "code": {
          "coding": [
            {
              "code": "2069-3",
              "system": "http://loinc.org",
              "display": "Chloride [Moles/volume] in Blood"
            }
          ],
          "text": "Chloride [Moles/volume] in Blood"
        },
        "valueQuantity": {
          "system": "http://unitsofmeasure.org",
          "value": 104.9,
          "unit": "mmol/L",
          "code": "mmol/L"
        },
        "referenceRange": [
          {
            "low": {
              "value": 98,
              "code": "mmol/L",
              "system": "http://unitsofmeasure.org"
            }
          },
          {
            "high": {
              "value": 114,
              "code": "mmol/L",
              "system": "http://unitsofmeasure.org"
            }
          }
        ],
        "text": {
          "status": "generated",
          "div": "<div xmlns=\"http://www.w3.org/1999/xhtml\"><table class=\"hl7__eu__lab__report\"><tr><th>Test</th><th>22-Jun-2016</th><th>Reference&#xA0;Range</th><th>Unit</th></tr><tr><td>Chloride [Moles/volume] in Blood</td><td>104.9</td><td>98 - 114</td><td></td><td>mmol/L</td></tr></table></div>"
        },
        "status": "final",
        "subject": {
          "reference": "urn:uuid:7fe58d0c-ae72-4301-8b0d-7b44d872e05f",
          "display": "Maria Nohlmans"
        },
        "effectiveDateTime": "2016-06-22T00:03:39Z",
        "specimen": {
          "reference": "urn:uuid:52e461a3-d1d9-4f5a-85cf-760fac55d71f"
        }
      }
    },
    {
      "fullUrl": "urn:uuid:617b5703-7ded-4d96-b4f5-60194cafc680",
      "resource": {
        "resourceType": "Observation",
        "id": "617b5703-7ded-4d96-b4f5-60194cafc680",
        "meta": {
          "profile": [
            "http://hl7.eu/fhir/laboratory/StructureDefinition/Observation-resultslab-eu-lab"
          ]
        },
        "performer": [
          {
            "display": "The Central European Lab"
          }
        ],
        "category": [
          {
            "coding": [
              {
                "system": "http://terminology.hl7.org/CodeSystem/observation-category",
                "code": "laboratory"
              }
            ]
          }
        ],
        "code": {
          "coding": [
            {
              "code": "20565-8",
              "system": "http://loinc.org",
              "display": "Carbon dioxide, total [Moles/volume] in Blood"
            }
          ],
          "text": "Carbon dioxide, total [Moles/volume] in Blood"
        },
        "valueQuantity": {
          "system": "http://unitsofmeasure.org",
          "value": 21.3,
          "unit": "mmol/L",
          "code": "mmol/L"
        },
        "referenceRange": [
          {
            "low": {
              "value": 22,
              "code": "mmol/L",
              "system": "http://unitsofmeasure.org"
            }
          },
          {
            "high": {
              "value": 32,
              "code": "mmol/L",
              "system": "http://unitsofmeasure.org"
            }
          }
        ],
        "interpretation": [
          {
            "coding": [
              {
                "code": "L",
                "system": "http://terminology.hl7.org/CodeSystem/v3-ObservationInterpretation",
                "display": "Low"
              }
            ]
          }
        ],
        "text": {
          "status": "generated",
          "div": "<div xmlns=\"http://www.w3.org/1999/xhtml\"><table class=\"hl7__eu__lab__report\"><tr><th>Test</th><th>22-Jun-2016</th><th>Reference&#xA0;Range</th><th>Unit</th></tr><tr><td>Carbon dioxide, total [Moles/volume] in Blood</td><td>21.3</td><td>22 - 32</td><td>L</td><td>mmol/L</td></tr></table></div>"
        },
        "status": "final",
        "subject": {
          "reference": "urn:uuid:7fe58d0c-ae72-4301-8b0d-7b44d872e05f",
          "display": "Maria Nohlmans"
        },
        "effectiveDateTime": "2016-06-22T00:03:39Z",
        "specimen": {
          "reference": "urn:uuid:52e461a3-d1d9-4f5a-85cf-760fac55d71f"
        }
      }
    },
    {
      "fullUrl": "urn:uuid:6dcb60f6-39d9-4f1a-a090-d7977d4bbffd",
      "resource": {
        "resourceType": "Observation",
        "id": "6dcb60f6-39d9-4f1a-a090-d7977d4bbffd",
        "meta": {
          "profile": [
            "http://hl7.eu/fhir/laboratory/StructureDefinition/Observation-resultslab-eu-lab"
          ]
        },
        "performer": [
          {
            "display": "The Central European Lab"
          }
        ],
        "category": [
          {
            "coding": [
              {
                "system": "http://terminology.hl7.org/CodeSystem/observation-category",
                "code": "laboratory"
              }
            ]
          }
        ],
        "code": {
          "coding": [
            {
              "code": "2885-2",
              "system": "http://loinc.org",
              "display": "Protein [Mass/volume] in Serum or Plasma"
            }
          ],
          "text": "Protein [Mass/volume] in Serum or Plasma"
        },
        "valueQuantity": {
          "system": "http://unitsofmeasure.org",
          "value": 6,
          "unit": "g/dL",
          "code": "g/dL"
        },
        "referenceRange": [
          {
            "low": {
              "value": 6,
              "code": "g/dL",
              "system": "http://unitsofmeasure.org"
            }
          },
          {
            "high": {
              "value": 8.3,
              "code": "g/dL",
              "system": "http://unitsofmeasure.org"
            }
          }
        ],
        "text": {
          "status": "generated",
          "div": "<div xmlns=\"http://www.w3.org/1999/xhtml\"><table class=\"hl7__eu__lab__report\"><tr><th>Test</th><th>22-Jun-2016</th><th>Reference&#xA0;Range</th><th>Unit</th></tr><tr><td>Protein [Mass/volume] in Serum or Plasma</td><td>6.0</td><td>6 - 8.3</td><td></td><td>g/dL</td></tr></table></div>"
        },
        "status": "final",
        "subject": {
          "reference": "urn:uuid:7fe58d0c-ae72-4301-8b0d-7b44d872e05f",
          "display": "Maria Nohlmans"
        },
        "effectiveDateTime": "2016-06-22T00:03:39Z",
        "specimen": {
          "reference": "urn:uuid:497b5579-e608-4456-b2e4-e0dd919f4005"
        }
      }
    },
    {
      "fullUrl": "urn:uuid:1b99d2ec-cafb-44df-8859-cc816958cf17",
      "resource": {
        "resourceType": "Observation",
        "id": "1b99d2ec-cafb-44df-8859-cc816958cf17",
        "meta": {
          "profile": [
            "http://hl7.eu/fhir/laboratory/StructureDefinition/Observation-resultslab-eu-lab"
          ]
        },
        "performer": [
          {
            "display": "The Central European Lab"
          }
        ],
        "category": [
          {
            "coding": [
              {
                "system": "http://terminology.hl7.org/CodeSystem/observation-category",
                "code": "laboratory"
              }
            ]
          }
        ],
        "code": {
          "coding": [
            {
              "code": "1751-7",
              "system": "http://loinc.org",
              "display": "Albumin [Mass/volume] in Serum or Plasma"
            }
          ],
          "text": "Albumin [Mass/volume] in Serum or Plasma"
        },
        "valueQuantity": {
          "system": "http://unitsofmeasure.org",
          "value": 4.6,
          "unit": "g/dL",
          "code": "g/dL"
        },
        "referenceRange": [
          {
            "low": {
              "value": 3.5,
              "code": "g/dL",
              "system": "http://unitsofmeasure.org"
            }
          },
          {
            "high": {
              "value": 5.5,
              "code": "g/dL",
              "system": "http://unitsofmeasure.org"
            }
          }
        ],
        "text": {
          "status": "generated",
          "div": "<div xmlns=\"http://www.w3.org/1999/xhtml\"><table class=\"hl7__eu__lab__report\"><tr><th>Test</th><th>22-Jun-2016</th><th>Reference&#xA0;Range</th><th>Unit</th></tr><tr><td>Albumin [Mass/volume] in Serum or Plasma</td><td>4.6</td><td>3.5 - 5.5</td><td></td><td>g/dL</td></tr></table></div>"
        },
        "status": "final",
        "subject": {
          "reference": "urn:uuid:7fe58d0c-ae72-4301-8b0d-7b44d872e05f",
          "display": "Maria Nohlmans"
        },
        "effectiveDateTime": "2016-06-22T00:03:39Z",
        "specimen": {
          "reference": "urn:uuid:497b5579-e608-4456-b2e4-e0dd919f4005"
        }
      }
    },
    {
      "fullUrl": "urn:uuid:b6c60780-9153-4f6e-bd65-56d86821b17f",
      "resource": {
        "resourceType": "Observation",
        "id": "b6c60780-9153-4f6e-bd65-56d86821b17f",
        "meta": {
          "profile": [
            "http://hl7.eu/fhir/laboratory/StructureDefinition/Observation-resultslab-eu-lab"
          ]
        },
        "performer": [
          {
            "display": "The Central European Lab"
          }
        ],
        "category": [
          {
            "coding": [
              {
                "system": "http://terminology.hl7.org/CodeSystem/observation-category",
                "code": "laboratory"
              }
            ]
          }
        ],
        "code": {
          "coding": [
            {
              "code": "10834-0",
              "system": "http://loinc.org",
              "display": "Globulin [Mass/volume] in Serum by calculation"
            }
          ],
          "text": "Globulin [Mass/volume] in Serum by calculation"
        },
        "valueQuantity": {
          "system": "http://unitsofmeasure.org",
          "value": 2.9,
          "unit": "g/L",
          "code": "g/L"
        },
        "referenceRange": [
          {
            "low": {
              "value": 2,
              "code": "g/L",
              "system": "http://unitsofmeasure.org"
            }
          },
          {
            "high": {
              "value": 3.5,
              "code": "g/L",
              "system": "http://unitsofmeasure.org"
            }
          }
        ],
        "text": {
          "status": "generated",
          "div": "<div xmlns=\"http://www.w3.org/1999/xhtml\"><table class=\"hl7__eu__lab__report\"><tr><th>Test</th><th>22-Jun-2016</th><th>Reference&#xA0;Range</th><th>Unit</th></tr><tr><td>Globulin [Mass/volume] in Serum by calculation</td><td>2.9</td><td>2 - 3.5</td><td></td><td>g/L</td></tr></table></div>"
        },
        "status": "final",
        "subject": {
          "reference": "urn:uuid:7fe58d0c-ae72-4301-8b0d-7b44d872e05f",
          "display": "Maria Nohlmans"
        },
        "effectiveDateTime": "2016-06-22T00:03:39Z",
        "specimen": {
          "reference": "urn:uuid:511a073c-a70c-474a-bf60-78d79d141eb0"
        }
      }
    },
    {
      "fullUrl": "urn:uuid:31c6b071-c230-4817-ae9e-a557fd6f36c2",
      "resource": {
        "resourceType": "Observation",
        "id": "31c6b071-c230-4817-ae9e-a557fd6f36c2",
        "meta": {
          "profile": [
            "http://hl7.eu/fhir/laboratory/StructureDefinition/Observation-resultslab-eu-lab"
          ]
        },
        "performer": [
          {
            "display": "The Central European Lab"
          }
        ],
        "category": [
          {
            "coding": [
              {
                "system": "http://terminology.hl7.org/CodeSystem/observation-category",
                "code": "laboratory"
              }
            ]
          }
        ],
        "code": {
          "coding": [
            {
              "code": "1975-2",
              "system": "http://loinc.org",
              "display": "Bilirubin.total [Mass/volume] in Serum or Plasma"
            }
          ],
          "text": "Bilirubin.total [Mass/volume] in Serum or Plasma"
        },
        "valueQuantity": {
          "system": "http://unitsofmeasure.org",
          "value": 1,
          "unit": "mg/dL",
          "code": "mg/dL"
        },
        "referenceRange": [
          {
            "low": {
              "value": 0.3,
              "code": "mg/dL",
              "system": "http://unitsofmeasure.org"
            }
          },
          {
            "high": {
              "value": 1.2,
              "code": "mg/dL",
              "system": "http://unitsofmeasure.org"
            }
          }
        ],
        "text": {
          "status": "generated",
          "div": "<div xmlns=\"http://www.w3.org/1999/xhtml\"><table class=\"hl7__eu__lab__report\"><tr><th>Test</th><th>22-Jun-2016</th><th>Reference&#xA0;Range</th><th>Unit</th></tr><tr><td>Bilirubin.total [Mass/volume] in Serum or Plasma</td><td>1.0</td><td>0.3 - 1.2</td><td></td><td>mg/dL</td></tr></table></div>"
        },
        "status": "final",
        "subject": {
          "reference": "urn:uuid:7fe58d0c-ae72-4301-8b0d-7b44d872e05f",
          "display": "Maria Nohlmans"
        },
        "effectiveDateTime": "2016-06-22T00:03:39Z",
        "specimen": {
          "reference": "urn:uuid:497b5579-e608-4456-b2e4-e0dd919f4005"
        }
      }
    },
    {
      "fullUrl": "urn:uuid:1c8ea88b-53dc-4b5d-9b91-94f81bc6434a",
      "resource": {
        "resourceType": "Observation",
        "id": "1c8ea88b-53dc-4b5d-9b91-94f81bc6434a",
        "meta": {
          "profile": [
            "http://hl7.eu/fhir/laboratory/StructureDefinition/Observation-resultslab-eu-lab"
          ]
        },
        "performer": [
          {
            "display": "The Central European Lab"
          }
        ],
        "category": [
          {
            "coding": [
              {
                "system": "http://terminology.hl7.org/CodeSystem/observation-category",
                "code": "laboratory"
              }
            ]
          }
        ],
        "code": {
          "coding": [
            {
              "code": "6768-6",
              "system": "http://loinc.org",
              "display": "Alkaline phosphatase [Enzymatic activity/volume] in Serum or Plasma"
            }
          ],
          "text": "Alkaline phosphatase [Enzymatic activity/volume] in Serum or Plasma"
        },
        "valueQuantity": {
          "system": "http://unitsofmeasure.org",
          "value": 132.1,
          "unit": "U/L",
          "code": "U/L"
        },
        "referenceRange": [
          {
            "low": {
              "value": 44,
              "code": "U/L",
              "system": "http://unitsofmeasure.org"
            }
          },
          {
            "high": {
              "value": 142,
              "code": "U/L",
              "system": "http://unitsofmeasure.org"
            }
          }
        ],
        "text": {
          "status": "generated",
          "div": "<div xmlns=\"http://www.w3.org/1999/xhtml\"><table class=\"hl7__eu__lab__report\"><tr><th>Test</th><th>22-Jun-2016</th><th>Reference&#xA0;Range</th><th>Unit</th></tr><tr><td>Alkaline phosphatase [Enzymatic activity/volume] in Serum or Plasma</td><td>132.1</td><td>44 - 142</td><td></td><td>U/L</td></tr></table></div>"
        },
        "status": "final",
        "subject": {
          "reference": "urn:uuid:7fe58d0c-ae72-4301-8b0d-7b44d872e05f",
          "display": "Maria Nohlmans"
        },
        "effectiveDateTime": "2016-06-22T00:03:39Z",
        "specimen": {
          "reference": "urn:uuid:497b5579-e608-4456-b2e4-e0dd919f4005"
        }
      }
    },
    {
      "fullUrl": "urn:uuid:42e54bcf-6f09-4720-af6b-891c0e2e0cdf",
      "resource": {
        "resourceType": "Observation",
        "id": "42e54bcf-6f09-4720-af6b-891c0e2e0cdf",
        "meta": {
          "profile": [
            "http://hl7.eu/fhir/laboratory/StructureDefinition/Observation-resultslab-eu-lab"
          ]
        },
        "performer": [
          {
            "display": "The Central European Lab"
          }
        ],
        "category": [
          {
            "coding": [
              {
                "system": "http://terminology.hl7.org/CodeSystem/observation-category",
                "code": "laboratory"
              }
            ]
          }
        ],
        "code": {
          "coding": [
            {
              "code": "1742-6",
              "system": "http://loinc.org",
              "display": "Alanine aminotransferase [Enzymatic activity/volume] in Serum or Plasma"
            }
          ],
          "text": "Alanine aminotransferase [Enzymatic activity/volume] in Serum or Plasma"
        },
        "valueQuantity": {
          "system": "http://unitsofmeasure.org",
          "value": 23,
          "unit": "U/L",
          "code": "U/L"
        },
        "referenceRange": [
          {
            "low": {
              "value": 7,
              "code": "U/L",
              "system": "http://unitsofmeasure.org"
            }
          },
          {
            "high": {
              "value": 40,
              "code": "U/L",
              "system": "http://unitsofmeasure.org"
            }
          }
        ],
        "text": {
          "status": "generated",
          "div": "<div xmlns=\"http://www.w3.org/1999/xhtml\"><table class=\"hl7__eu__lab__report\"><tr><th>Test</th><th>22-Jun-2016</th><th>Reference&#xA0;Range</th><th>Unit</th></tr><tr><td>Alanine aminotransferase [Enzymatic activity/volume] in Serum or Plasma</td><td>23.0</td><td>7 - 40</td><td></td><td>U/L</td></tr></table></div>"
        },
        "status": "final",
        "subject": {
          "reference": "urn:uuid:7fe58d0c-ae72-4301-8b0d-7b44d872e05f",
          "display": "Maria Nohlmans"
        },
        "effectiveDateTime": "2016-06-22T00:03:39Z",
        "specimen": {
          "reference": "urn:uuid:497b5579-e608-4456-b2e4-e0dd919f4005"
        }
      }
    },
    {
      "fullUrl": "urn:uuid:690518f9-3352-4148-9f08-aff4747abea2",
      "resource": {
        "resourceType": "Observation",
        "id": "690518f9-3352-4148-9f08-aff4747abea2",
        "meta": {
          "profile": [
            "http://hl7.eu/fhir/laboratory/StructureDefinition/Observation-resultslab-eu-lab"
          ]
        },
        "performer": [
          {
            "display": "The Central European Lab"
          }
        ],
        "category": [
          {
            "coding": [
              {
                "system": "http://terminology.hl7.org/CodeSystem/observation-category",
                "code": "laboratory"
              }
            ]
          }
        ],
        "code": {
          "coding": [
            {
              "code": "1920-8",
              "system": "http://loinc.org",
              "display": "Aspartate aminotransferase [Enzymatic activity/volume] in Serum or Plasma"
            }
          ],
          "text": "Aspartate aminotransferase [Enzymatic activity/volume] in Serum or Plasma"
        },
        "valueQuantity": {
          "system": "http://unitsofmeasure.org",
          "value": 38.1,
          "unit": "U/L",
          "code": "U/L"
        },
        "referenceRange": [
          {
            "low": {
              "value": 10,
              "code": "U/L",
              "system": "http://unitsofmeasure.org"
            }
          },
          {
            "high": {
              "value": 40,
              "code": "U/L",
              "system": "http://unitsofmeasure.org"
            }
          }
        ],
        "text": {
          "status": "generated",
          "div": "<div xmlns=\"http://www.w3.org/1999/xhtml\"><table class=\"hl7__eu__lab__report\"><tr><th>Test</th><th>22-Jun-2016</th><th>Reference&#xA0;Range</th><th>Unit</th></tr><tr><td>Aspartate aminotransferase [Enzymatic activity/volume] in Serum or Plasma</td><td>38.1</td><td>10 - 40</td><td></td><td>U/L</td></tr></table></div>"
        },
        "status": "final",
        "subject": {
          "reference": "urn:uuid:7fe58d0c-ae72-4301-8b0d-7b44d872e05f",
          "display": "Maria Nohlmans"
        },
        "effectiveDateTime": "2016-06-22T00:03:39Z",
        "specimen": {
          "reference": "urn:uuid:497b5579-e608-4456-b2e4-e0dd919f4005"
        }
      }
    },
    {
      "fullUrl": "urn:uuid:03a06b08-0b2b-43bf-aa88-877d3e31c534",
      "resource": {
        "resourceType": "Observation",
        "id": "03a06b08-0b2b-43bf-aa88-877d3e31c534",
        "meta": {
          "profile": [
            "http://hl7.eu/fhir/laboratory/StructureDefinition/Observation-resultslab-eu-lab"
          ]
        },
        "performer": [
          {
            "display": "The Central European Lab"
          }
        ],
        "category": [
          {
            "coding": [
              {
                "system": "http://terminology.hl7.org/CodeSystem/observation-category",
                "code": "laboratory"
              }
            ]
          }
        ],
        "code": {
          "coding": [
            {
              "code": "5767-9",
              "system": "http://loinc.org",
              "display": "Appearance of Urine"
            }
          ],
          "text": "Appearance of Urine"
        },
        "text": {
          "status": "generated",
          "div": "<div xmlns=\"http://www.w3.org/1999/xhtml\"><table class=\"hl7__eu__lab__report\"><tr><th>Test</th><th>22-Jun-2016</th><th>Reference&#xA0;Range</th><th>Unit</th></tr><tr><td>Appearance of Urine</td></tr></table></div>"
        },
        "status": "final",
        "subject": {
          "reference": "urn:uuid:7fe58d0c-ae72-4301-8b0d-7b44d872e05f",
          "display": "Maria Nohlmans"
        },
        "effectiveDateTime": "2016-06-22T00:03:39Z",
        "specimen": {
          "reference": "urn:uuid:60997faa-b9ee-4e8e-87cf-172ac15b3b3f"
        }
      }
    },
    {
      "fullUrl": "urn:uuid:6faecb18-fb5d-4170-8719-87b0614db6a8",
      "resource": {
        "resourceType": "Observation",
        "id": "6faecb18-fb5d-4170-8719-87b0614db6a8",
        "meta": {
          "profile": [
            "http://hl7.eu/fhir/laboratory/StructureDefinition/Observation-resultslab-eu-lab"
          ]
        },
        "performer": [
          {
            "display": "The Central European Lab"
          }
        ],
        "category": [
          {
            "coding": [
              {
                "system": "http://terminology.hl7.org/CodeSystem/observation-category",
                "code": "laboratory"
              }
            ]
          }
        ],
        "code": {
          "coding": [
            {
              "code": "34533-0",
              "system": "http://loinc.org",
              "display": "Odor of Urine"
            }
          ],
          "text": "Odor of Urine"
        },
        "text": {
          "status": "generated",
          "div": "<div xmlns=\"http://www.w3.org/1999/xhtml\"><table class=\"hl7__eu__lab__report\"><tr><th>Test</th><th>22-Jun-2016</th><th>Reference&#xA0;Range</th><th>Unit</th></tr><tr><td>Odor of Urine</td></tr></table></div>"
        },
        "status": "final",
        "subject": {
          "reference": "urn:uuid:7fe58d0c-ae72-4301-8b0d-7b44d872e05f",
          "display": "Maria Nohlmans"
        },
        "effectiveDateTime": "2016-06-22T00:03:39Z",
        "specimen": {
          "reference": "urn:uuid:60997faa-b9ee-4e8e-87cf-172ac15b3b3f"
        }
      }
    },
    {
      "fullUrl": "urn:uuid:7b32af66-f1a5-4b6b-835b-a1561ce1490b",
      "resource": {
        "resourceType": "Observation",
        "id": "7b32af66-f1a5-4b6b-835b-a1561ce1490b",
        "meta": {
          "profile": [
            "http://hl7.eu/fhir/laboratory/StructureDefinition/Observation-resultslab-eu-lab"
          ]
        },
        "performer": [
          {
            "display": "The Central European Lab"
          }
        ],
        "category": [
          {
            "coding": [
              {
                "system": "http://terminology.hl7.org/CodeSystem/observation-category",
                "code": "laboratory"
              }
            ]
          }
        ],
        "code": {
          "coding": [
            {
              "code": "32167-9",
              "system": "http://loinc.org",
              "display": "Clarity of Urine"
            }
          ],
          "text": "Clarity of Urine"
        },
        "text": {
          "status": "generated",
          "div": "<div xmlns=\"http://www.w3.org/1999/xhtml\"><table class=\"hl7__eu__lab__report\"><tr><th>Test</th><th>22-Jun-2016</th><th>Reference&#xA0;Range</th><th>Unit</th></tr><tr><td>Clarity of Urine</td></tr></table></div>"
        },
        "status": "final",
        "subject": {
          "reference": "urn:uuid:7fe58d0c-ae72-4301-8b0d-7b44d872e05f",
          "display": "Maria Nohlmans"
        },
        "effectiveDateTime": "2016-06-22T00:03:39Z",
        "specimen": {
          "reference": "urn:uuid:60997faa-b9ee-4e8e-87cf-172ac15b3b3f"
        }
      }
    },
    {
      "fullUrl": "urn:uuid:7d6754bd-7e29-465c-a079-8e8c7dc58563",
      "resource": {
        "resourceType": "Observation",
        "id": "7d6754bd-7e29-465c-a079-8e8c7dc58563",
        "meta": {
          "profile": [
            "http://hl7.eu/fhir/laboratory/StructureDefinition/Observation-resultslab-eu-lab"
          ]
        },
        "performer": [
          {
            "display": "The Central European Lab"
          }
        ],
        "category": [
          {
            "coding": [
              {
                "system": "http://terminology.hl7.org/CodeSystem/observation-category",
                "code": "laboratory"
              }
            ]
          }
        ],
        "code": {
          "coding": [
            {
              "code": "5778-6",
              "system": "http://loinc.org",
              "display": "Color of Urine"
            }
          ],
          "text": "Color of Urine"
        },
        "text": {
          "status": "generated",
          "div": "<div xmlns=\"http://www.w3.org/1999/xhtml\"><table class=\"hl7__eu__lab__report\"><tr><th>Test</th><th>22-Jun-2016</th><th>Reference&#xA0;Range</th><th>Unit</th></tr><tr><td>Color of Urine</td></tr></table></div>"
        },
        "status": "final",
        "subject": {
          "reference": "urn:uuid:7fe58d0c-ae72-4301-8b0d-7b44d872e05f",
          "display": "Maria Nohlmans"
        },
        "effectiveDateTime": "2016-06-22T00:03:39Z",
        "specimen": {
          "reference": "urn:uuid:60997faa-b9ee-4e8e-87cf-172ac15b3b3f"
        }
      }
    },
    {
      "fullUrl": "urn:uuid:76ef151b-0480-483b-8234-afef5110dc64",
      "resource": {
        "resourceType": "Observation",
        "id": "76ef151b-0480-483b-8234-afef5110dc64",
        "meta": {
          "profile": [
            "http://hl7.eu/fhir/laboratory/StructureDefinition/Observation-resultslab-eu-lab"
          ]
        },
        "performer": [
          {
            "display": "The Central European Lab"
          }
        ],
        "category": [
          {
            "coding": [
              {
                "system": "http://terminology.hl7.org/CodeSystem/observation-category",
                "code": "laboratory"
              }
            ]
          }
        ],
        "code": {
          "coding": [
            {
              "code": "5792-7",
              "system": "http://loinc.org",
              "display": "Glucose [Mass/volume] in Urine by Test strip"
            }
          ],
          "text": "Glucose [Mass/volume] in Urine by Test strip"
        },
        "valueQuantity": {
          "system": "http://unitsofmeasure.org",
          "value": 2.4,
          "unit": "mg/dL",
          "code": "mg/dL"
        },
        "referenceRange": [
          {
            "low": {
              "value": 0.8,
              "code": "mg/dL",
              "system": "http://unitsofmeasure.org"
            }
          },
          {
            "high": {
              "value": 0,
              "code": "mg/dL",
              "system": "http://unitsofmeasure.org"
            }
          }
        ],
        "interpretation": [
          {
            "coding": [
              {
                "code": "H",
                "system": "http://terminology.hl7.org/CodeSystem/v3-ObservationInterpretation",
                "display": "High"
              }
            ]
          }
        ],
        "text": {
          "status": "generated",
          "div": "<div xmlns=\"http://www.w3.org/1999/xhtml\"><table class=\"hl7__eu__lab__report\"><tr><th>Test</th><th>22-Jun-2016</th><th>Reference&#xA0;Range</th><th>Unit</th></tr><tr><td>Glucose [Mass/volume] in Urine by Test strip</td><td>2.4</td><td>0.8 - 0</td><td>H</td><td>mg/dL</td></tr></table></div>"
        },
        "status": "final",
        "subject": {
          "reference": "urn:uuid:7fe58d0c-ae72-4301-8b0d-7b44d872e05f",
          "display": "Maria Nohlmans"
        },
        "effectiveDateTime": "2016-06-22T00:03:39Z",
        "specimen": {
          "reference": "urn:uuid:60997faa-b9ee-4e8e-87cf-172ac15b3b3f"
        }
      }
    },
    {
      "fullUrl": "urn:uuid:3ed6ff18-2a60-4e20-8480-8a38228d6b95",
      "resource": {
        "resourceType": "Observation",
        "id": "3ed6ff18-2a60-4e20-8480-8a38228d6b95",
        "meta": {
          "profile": [
            "http://hl7.eu/fhir/laboratory/StructureDefinition/Observation-resultslab-eu-lab"
          ]
        },
        "performer": [
          {
            "display": "The Central European Lab"
          }
        ],
        "category": [
          {
            "coding": [
              {
                "system": "http://terminology.hl7.org/CodeSystem/observation-category",
                "code": "laboratory"
              }
            ]
          }
        ],
        "code": {
          "coding": [
            {
              "code": "25428-4",
              "system": "http://loinc.org",
              "display": "Glucose [Presence] in Urine by Test strip"
            }
          ],
          "text": "Glucose [Presence] in Urine by Test strip"
        },
        "text": {
          "status": "generated",
          "div": "<div xmlns=\"http://www.w3.org/1999/xhtml\"><table class=\"hl7__eu__lab__report\"><tr><th>Test</th><th>22-Jun-2016</th><th>Reference&#xA0;Range</th><th>Unit</th></tr><tr><td>Glucose [Presence] in Urine by Test strip</td></tr></table></div>"
        },
        "status": "final",
        "subject": {
          "reference": "urn:uuid:7fe58d0c-ae72-4301-8b0d-7b44d872e05f",
          "display": "Maria Nohlmans"
        },
        "effectiveDateTime": "2016-06-22T00:03:39Z",
        "specimen": {
          "reference": "urn:uuid:60997faa-b9ee-4e8e-87cf-172ac15b3b3f"
        }
      }
    },
    {
      "fullUrl": "urn:uuid:b6e74923-19c5-49e3-952a-eb440b9711af",
      "resource": {
        "resourceType": "Observation",
        "id": "b6e74923-19c5-49e3-952a-eb440b9711af",
        "meta": {
          "profile": [
            "http://hl7.eu/fhir/laboratory/StructureDefinition/Observation-resultslab-eu-lab"
          ]
        },
        "performer": [
          {
            "display": "The Central European Lab"
          }
        ],
        "category": [
          {
            "coding": [
              {
                "system": "http://terminology.hl7.org/CodeSystem/observation-category",
                "code": "laboratory"
              }
            ]
          }
        ],
        "code": {
          "coding": [
            {
              "code": "20505-4",
              "system": "http://loinc.org",
              "display": "Bilirubin.total [Mass/volume] in Urine by Test strip"
            }
          ],
          "text": "Bilirubin.total [Mass/volume] in Urine by Test strip"
        },
        "valueQuantity": {
          "system": "http://unitsofmeasure.org",
          "value": 1,
          "unit": "mg/dL",
          "code": "mg/dL"
        },
        "referenceRange": [
          {
            "low": {
              "value": 0,
              "code": "mg/dL",
              "system": "http://unitsofmeasure.org"
            }
          },
          {
            "high": {
              "value": 1.5,
              "code": "mg/dL",
              "system": "http://unitsofmeasure.org"
            }
          }
        ],
        "text": {
          "status": "generated",
          "div": "<div xmlns=\"http://www.w3.org/1999/xhtml\"><table class=\"hl7__eu__lab__report\"><tr><th>Test</th><th>22-Jun-2016</th><th>Reference&#xA0;Range</th><th>Unit</th></tr><tr><td>Bilirubin.total [Mass/volume] in Urine by Test strip</td><td>1.0</td><td>0 - 1.5</td><td></td><td>mg/dL</td></tr></table></div>"
        },
        "status": "final",
        "subject": {
          "reference": "urn:uuid:7fe58d0c-ae72-4301-8b0d-7b44d872e05f",
          "display": "Maria Nohlmans"
        },
        "effectiveDateTime": "2016-06-22T00:03:39Z",
        "specimen": {
          "reference": "urn:uuid:60997faa-b9ee-4e8e-87cf-172ac15b3b3f"
        }
      }
    },
    {
      "fullUrl": "urn:uuid:7719ec36-97fd-44a1-b14b-738128abd0a6",
      "resource": {
        "resourceType": "Observation",
        "id": "7719ec36-97fd-44a1-b14b-738128abd0a6",
        "meta": {
          "profile": [
            "http://hl7.eu/fhir/laboratory/StructureDefinition/Observation-resultslab-eu-lab"
          ]
        },
        "performer": [
          {
            "display": "The Central European Lab"
          }
        ],
        "category": [
          {
            "coding": [
              {
                "system": "http://terminology.hl7.org/CodeSystem/observation-category",
                "code": "laboratory"
              }
            ]
          }
        ],
        "code": {
          "coding": [
            {
              "code": "5770-3",
              "system": "http://loinc.org",
              "display": "Bilirubin.total [Presence] in Urine by Test strip"
            }
          ],
          "text": "Bilirubin.total [Presence] in Urine by Test strip"
        },
        "text": {
          "status": "generated",
          "div": "<div xmlns=\"http://www.w3.org/1999/xhtml\"><table class=\"hl7__eu__lab__report\"><tr><th>Test</th><th>22-Jun-2016</th><th>Reference&#xA0;Range</th><th>Unit</th></tr><tr><td>Bilirubin.total [Presence] in Urine by Test strip</td></tr></table></div>"
        },
        "status": "final",
        "subject": {
          "reference": "urn:uuid:7fe58d0c-ae72-4301-8b0d-7b44d872e05f",
          "display": "Maria Nohlmans"
        },
        "effectiveDateTime": "2016-06-22T00:03:39Z",
        "specimen": {
          "reference": "urn:uuid:60997faa-b9ee-4e8e-87cf-172ac15b3b3f"
        }
      }
    },
    {
      "fullUrl": "urn:uuid:8ee44211-9968-4e4b-9f84-de3607d6f328",
      "resource": {
        "resourceType": "Observation",
        "id": "8ee44211-9968-4e4b-9f84-de3607d6f328",
        "meta": {
          "profile": [
            "http://hl7.eu/fhir/laboratory/StructureDefinition/Observation-resultslab-eu-lab"
          ]
        },
        "performer": [
          {
            "display": "The Central European Lab"
          }
        ],
        "category": [
          {
            "coding": [
              {
                "system": "http://terminology.hl7.org/CodeSystem/observation-category",
                "code": "laboratory"
              }
            ]
          }
        ],
        "code": {
          "coding": [
            {
              "code": "5797-6",
              "system": "http://loinc.org",
              "display": "Ketones [Mass/volume] in Urine by Test strip"
            }
          ],
          "text": "Ketones [Mass/volume] in Urine by Test strip"
        },
        "valueQuantity": {
          "system": "http://unitsofmeasure.org",
          "value": 1.7,
          "unit": "mg/dL",
          "code": "mg/dL"
        },
        "referenceRange": [
          {
            "low": {
              "value": 0,
              "code": "mg/dL",
              "system": "http://unitsofmeasure.org"
            }
          },
          {
            "high": {
              "value": 8,
              "code": "mg/dL",
              "system": "http://unitsofmeasure.org"
            }
          }
        ],
        "text": {
          "status": "generated",
          "div": "<div xmlns=\"http://www.w3.org/1999/xhtml\"><table class=\"hl7__eu__lab__report\"><tr><th>Test</th><th>22-Jun-2016</th><th>Reference&#xA0;Range</th><th>Unit</th></tr><tr><td>Ketones [Mass/volume] in Urine by Test strip</td><td>1.7</td><td>0 - 8</td><td></td><td>mg/dL</td></tr></table></div>"
        },
        "status": "final",
        "subject": {
          "reference": "urn:uuid:7fe58d0c-ae72-4301-8b0d-7b44d872e05f",
          "display": "Maria Nohlmans"
        },
        "effectiveDateTime": "2016-06-22T00:03:39Z",
        "specimen": {
          "reference": "urn:uuid:60997faa-b9ee-4e8e-87cf-172ac15b3b3f"
        }
      }
    },
    {
      "fullUrl": "urn:uuid:f7d2892c-8104-4b0a-9f63-90353eb29786",
      "resource": {
        "resourceType": "Observation",
        "id": "f7d2892c-8104-4b0a-9f63-90353eb29786",
        "meta": {
          "profile": [
            "http://hl7.eu/fhir/laboratory/StructureDefinition/Observation-resultslab-eu-lab"
          ]
        },
        "performer": [
          {
            "display": "The Central European Lab"
          }
        ],
        "category": [
          {
            "coding": [
              {
                "system": "http://terminology.hl7.org/CodeSystem/observation-category",
                "code": "laboratory"
              }
            ]
          }
        ],
        "code": {
          "coding": [
            {
              "code": "2514-8",
              "system": "http://loinc.org",
              "display": "Ketones [Presence] in Urine by Test strip"
            }
          ],
          "text": "Ketones [Presence] in Urine by Test strip"
        },
        "text": {
          "status": "generated",
          "div": "<div xmlns=\"http://www.w3.org/1999/xhtml\"><table class=\"hl7__eu__lab__report\"><tr><th>Test</th><th>22-Jun-2016</th><th>Reference&#xA0;Range</th><th>Unit</th></tr><tr><td>Ketones [Presence] in Urine by Test strip</td></tr></table></div>"
        },
        "status": "final",
        "subject": {
          "reference": "urn:uuid:7fe58d0c-ae72-4301-8b0d-7b44d872e05f",
          "display": "Maria Nohlmans"
        },
        "effectiveDateTime": "2016-06-22T00:03:39Z",
        "specimen": {
          "reference": "urn:uuid:60997faa-b9ee-4e8e-87cf-172ac15b3b3f"
        }
      }
    },
    {
      "fullUrl": "urn:uuid:c84431ac-5c15-431c-af0a-bde833912296",
      "resource": {
        "resourceType": "Observation",
        "id": "c84431ac-5c15-431c-af0a-bde833912296",
        "meta": {
          "profile": [
            "http://hl7.eu/fhir/laboratory/StructureDefinition/Observation-resultslab-eu-lab"
          ]
        },
        "performer": [
          {
            "display": "The Central European Lab"
          }
        ],
        "category": [
          {
            "coding": [
              {
                "system": "http://terminology.hl7.org/CodeSystem/observation-category",
                "code": "laboratory"
              }
            ]
          }
        ],
        "code": {
          "coding": [
            {
              "code": "5811-5",
              "system": "http://loinc.org",
              "display": "Specific gravity of Urine by Test strip"
            }
          ],
          "text": "Specific gravity of Urine by Test strip"
        },
        "valueQuantity": {
          "system": "http://unitsofmeasure.org",
          "value": 1,
          "unit": "{nominal}",
          "code": "{nominal}"
        },
        "referenceRange": [
          {
            "low": {
              "value": 1.01,
              "code": "g/mL",
              "system": "http://unitsofmeasure.org"
            }
          },
          {
            "high": {
              "value": 1.03,
              "code": "g/mL",
              "system": "http://unitsofmeasure.org"
            }
          }
        ],
        "interpretation": [
          {
            "coding": [
              {
                "code": "L",
                "system": "http://terminology.hl7.org/CodeSystem/v3-ObservationInterpretation",
                "display": "Low"
              }
            ]
          }
        ],
        "text": {
          "status": "generated",
          "div": "<div xmlns=\"http://www.w3.org/1999/xhtml\"><table class=\"hl7__eu__lab__report\"><tr><th>Test</th><th>22-Jun-2016</th><th>Reference&#xA0;Range</th><th>Unit</th></tr><tr><td>Specific gravity of Urine by Test strip</td><td>1.0</td><td>1.01 - 1.03</td><td>L</td><td>{nominal}</td></tr></table></div>"
        },
        "status": "final",
        "subject": {
          "reference": "urn:uuid:7fe58d0c-ae72-4301-8b0d-7b44d872e05f",
          "display": "Maria Nohlmans"
        },
        "effectiveDateTime": "2016-06-22T00:03:39Z",
        "specimen": {
          "reference": "urn:uuid:60997faa-b9ee-4e8e-87cf-172ac15b3b3f"
        }
      }
    },
    {
      "fullUrl": "urn:uuid:a7d6912f-d796-4ea5-a259-4aa640addb5e",
      "resource": {
        "resourceType": "Observation",
        "id": "a7d6912f-d796-4ea5-a259-4aa640addb5e",
        "meta": {
          "profile": [
            "http://hl7.eu/fhir/laboratory/StructureDefinition/Observation-resultslab-eu-lab"
          ]
        },
        "performer": [
          {
            "display": "The Central European Lab"
          }
        ],
        "category": [
          {
            "coding": [
              {
                "system": "http://terminology.hl7.org/CodeSystem/observation-category",
                "code": "laboratory"
              }
            ]
          }
        ],
        "code": {
          "coding": [
            {
              "code": "5803-2",
              "system": "http://loinc.org",
              "display": "pH of Urine by Test strip"
            }
          ],
          "text": "pH of Urine by Test strip"
        },
        "valueQuantity": {
          "system": "http://unitsofmeasure.org",
          "value": 6.2,
          "unit": "pH",
          "code": "pH"
        },
        "referenceRange": [
          {
            "low": {
              "value": 4.6,
              "code": "pH",
              "system": "http://unitsofmeasure.org"
            }
          },
          {
            "high": {
              "value": 7.5,
              "code": "pH",
              "system": "http://unitsofmeasure.org"
            }
          }
        ],
        "text": {
          "status": "generated",
          "div": "<div xmlns=\"http://www.w3.org/1999/xhtml\"><table class=\"hl7__eu__lab__report\"><tr><th>Test</th><th>22-Jun-2016</th><th>Reference&#xA0;Range</th><th>Unit</th></tr><tr><td>pH of Urine by Test strip</td><td>6.2</td><td>4.6 - 7.5</td><td></td><td>pH</td></tr></table></div>"
        },
        "status": "final",
        "subject": {
          "reference": "urn:uuid:7fe58d0c-ae72-4301-8b0d-7b44d872e05f",
          "display": "Maria Nohlmans"
        },
        "effectiveDateTime": "2016-06-22T00:03:39Z",
        "specimen": {
          "reference": "urn:uuid:60997faa-b9ee-4e8e-87cf-172ac15b3b3f"
        }
      }
    },
    {
      "fullUrl": "urn:uuid:acfd3e03-f80d-4a04-9ab3-f5649548515c",
      "resource": {
        "resourceType": "Observation",
        "id": "acfd3e03-f80d-4a04-9ab3-f5649548515c",
        "meta": {
          "profile": [
            "http://hl7.eu/fhir/laboratory/StructureDefinition/Observation-resultslab-eu-lab"
          ]
        },
        "performer": [
          {
            "display": "The Central European Lab"
          }
        ],
        "category": [
          {
            "coding": [
              {
                "system": "http://terminology.hl7.org/CodeSystem/observation-category",
                "code": "laboratory"
              }
            ]
          }
        ],
        "code": {
          "coding": [
            {
              "code": "5804-0",
              "system": "http://loinc.org",
              "display": "Protein [Mass/volume] in Urine by Test strip"
            }
          ],
          "text": "Protein [Mass/volume] in Urine by Test strip"
        },
        "valueQuantity": {
          "system": "http://unitsofmeasure.org",
          "value": 353.6,
          "unit": "mg/dL",
          "code": "mg/dL"
        },
        "referenceRange": [
          {
            "low": {
              "value": 0,
              "code": "mg/dL",
              "system": "http://unitsofmeasure.org"
            }
          },
          {
            "high": {
              "value": 14,
              "code": "mg/dL",
              "system": "http://unitsofmeasure.org"
            }
          }
        ],
        "interpretation": [
          {
            "coding": [
              {
                "code": "H",
                "system": "http://terminology.hl7.org/CodeSystem/v3-ObservationInterpretation",
                "display": "High"
              }
            ]
          }
        ],
        "text": {
          "status": "generated",
          "div": "<div xmlns=\"http://www.w3.org/1999/xhtml\"><table class=\"hl7__eu__lab__report\"><tr><th>Test</th><th>22-Jun-2016</th><th>Reference&#xA0;Range</th><th>Unit</th></tr><tr><td>Protein [Mass/volume] in Urine by Test strip</td><td>353.6</td><td>0 - 14</td><td>H</td><td>mg/dL</td></tr></table></div>"
        },
        "status": "final",
        "subject": {
          "reference": "urn:uuid:7fe58d0c-ae72-4301-8b0d-7b44d872e05f",
          "display": "Maria Nohlmans"
        },
        "effectiveDateTime": "2016-06-22T00:03:39Z",
        "specimen": {
          "reference": "urn:uuid:60997faa-b9ee-4e8e-87cf-172ac15b3b3f"
        }
      }
    },
    {
      "fullUrl": "urn:uuid:15987f72-8233-45d4-a074-1bb801ac6a0b",
      "resource": {
        "resourceType": "Observation",
        "id": "15987f72-8233-45d4-a074-1bb801ac6a0b",
        "meta": {
          "profile": [
            "http://hl7.eu/fhir/laboratory/StructureDefinition/Observation-resultslab-eu-lab"
          ]
        },
        "performer": [
          {
            "display": "The Central European Lab"
          }
        ],
        "category": [
          {
            "coding": [
              {
                "system": "http://terminology.hl7.org/CodeSystem/observation-category",
                "code": "laboratory"
              }
            ]
          }
        ],
        "code": {
          "coding": [
            {
              "code": "20454-5",
              "system": "http://loinc.org",
              "display": "Protein [Presence] in Urine by Test strip"
            }
          ],
          "text": "Protein [Presence] in Urine by Test strip"
        },
        "text": {
          "status": "generated",
          "div": "<div xmlns=\"http://www.w3.org/1999/xhtml\"><table class=\"hl7__eu__lab__report\"><tr><th>Test</th><th>22-Jun-2016</th><th>Reference&#xA0;Range</th><th>Unit</th></tr><tr><td>Protein [Presence] in Urine by Test strip</td></tr></table></div>"
        },
        "status": "final",
        "subject": {
          "reference": "urn:uuid:7fe58d0c-ae72-4301-8b0d-7b44d872e05f",
          "display": "Maria Nohlmans"
        },
        "effectiveDateTime": "2016-06-22T00:03:39Z",
        "specimen": {
          "reference": "urn:uuid:60997faa-b9ee-4e8e-87cf-172ac15b3b3f"
        }
      }
    },
    {
      "fullUrl": "urn:uuid:d2eab27b-1483-41c0-a611-922b7de68f2c",
      "resource": {
        "resourceType": "Observation",
        "id": "d2eab27b-1483-41c0-a611-922b7de68f2c",
        "meta": {
          "profile": [
            "http://hl7.eu/fhir/laboratory/StructureDefinition/Observation-resultslab-eu-lab"
          ]
        },
        "performer": [
          {
            "display": "The Central European Lab"
          }
        ],
        "category": [
          {
            "coding": [
              {
                "system": "http://terminology.hl7.org/CodeSystem/observation-category",
                "code": "laboratory"
              }
            ]
          }
        ],
        "code": {
          "coding": [
            {
              "code": "5802-4",
              "system": "http://loinc.org",
              "display": "Nitrite [Presence] in Urine by Test strip"
            }
          ],
          "text": "Nitrite [Presence] in Urine by Test strip"
        },
        "text": {
          "status": "generated",
          "div": "<div xmlns=\"http://www.w3.org/1999/xhtml\"><table class=\"hl7__eu__lab__report\"><tr><th>Test</th><th>22-Jun-2016</th><th>Reference&#xA0;Range</th><th>Unit</th></tr><tr><td>Nitrite [Presence] in Urine by Test strip</td></tr></table></div>"
        },
        "status": "final",
        "subject": {
          "reference": "urn:uuid:7fe58d0c-ae72-4301-8b0d-7b44d872e05f",
          "display": "Maria Nohlmans"
        },
        "effectiveDateTime": "2016-06-22T00:03:39Z",
        "specimen": {
          "reference": "urn:uuid:60997faa-b9ee-4e8e-87cf-172ac15b3b3f"
        }
      }
    },
    {
      "fullUrl": "urn:uuid:77f1de16-95bf-4054-92e7-cabf70033617",
      "resource": {
        "resourceType": "Observation",
        "id": "77f1de16-95bf-4054-92e7-cabf70033617",
        "meta": {
          "profile": [
            "http://hl7.eu/fhir/laboratory/StructureDefinition/Observation-resultslab-eu-lab"
          ]
        },
        "performer": [
          {
            "display": "The Central European Lab"
          }
        ],
        "category": [
          {
            "coding": [
              {
                "system": "http://terminology.hl7.org/CodeSystem/observation-category",
                "code": "laboratory"
              }
            ]
          }
        ],
        "code": {
          "coding": [
            {
              "code": "5794-3",
              "system": "http://loinc.org",
              "display": "Hemoglobin [Presence] in Urine by Test strip"
            }
          ],
          "text": "Hemoglobin [Presence] in Urine by Test strip"
        },
        "text": {
          "status": "generated",
          "div": "<div xmlns=\"http://www.w3.org/1999/xhtml\"><table class=\"hl7__eu__lab__report\"><tr><th>Test</th><th>22-Jun-2016</th><th>Reference&#xA0;Range</th><th>Unit</th></tr><tr><td>Hemoglobin [Presence] in Urine by Test strip</td></tr></table></div>"
        },
        "status": "final",
        "subject": {
          "reference": "urn:uuid:7fe58d0c-ae72-4301-8b0d-7b44d872e05f",
          "display": "Maria Nohlmans"
        },
        "effectiveDateTime": "2016-06-22T00:03:39Z",
        "specimen": {
          "reference": "urn:uuid:60997faa-b9ee-4e8e-87cf-172ac15b3b3f"
        }
      }
    },
    {
      "fullUrl": "urn:uuid:d9dee402-acde-4e29-8649-675181a581b1",
      "resource": {
        "resourceType": "Observation",
        "id": "d9dee402-acde-4e29-8649-675181a581b1",
        "meta": {
          "profile": [
            "http://hl7.eu/fhir/laboratory/StructureDefinition/Observation-resultslab-eu-lab"
          ]
        },
        "performer": [
          {
            "display": "The Central European Lab"
          }
        ],
        "category": [
          {
            "coding": [
              {
                "system": "http://terminology.hl7.org/CodeSystem/observation-category",
                "code": "laboratory"
              }
            ]
          }
        ],
        "code": {
          "coding": [
            {
              "code": "5799-2",
              "system": "http://loinc.org",
              "display": "Leukocyte esterase [Presence] in Urine by Test strip"
            }
          ],
          "text": "Leukocyte esterase [Presence] in Urine by Test strip"
        },
        "text": {
          "status": "generated",
          "div": "<div xmlns=\"http://www.w3.org/1999/xhtml\"><table class=\"hl7__eu__lab__report\"><tr><th>Test</th><th>22-Jun-2016</th><th>Reference&#xA0;Range</th><th>Unit</th></tr><tr><td>Leukocyte esterase [Presence] in Urine by Test strip</td></tr></table></div>"
        },
        "status": "final",
        "subject": {
          "reference": "urn:uuid:7fe58d0c-ae72-4301-8b0d-7b44d872e05f",
          "display": "Maria Nohlmans"
        },
        "effectiveDateTime": "2016-06-22T00:03:39Z",
        "specimen": {
          "reference": "urn:uuid:60997faa-b9ee-4e8e-87cf-172ac15b3b3f"
        }
      }
    },
    {
      "fullUrl": "urn:uuid:c6355f74-b851-4e54-8a8e-579d00718288",
      "resource": {
        "resourceType": "Device",
        "id": "c6355f74-b851-4e54-8a8e-579d00718288",
        "deviceName": [
          {
            "name": "SYNDERAI Synthetic Generator",
            "type": "manufacturer-name"
          }
        ],
        "version": [
          {
            "value": "5.0"
          }
        ],
        "text": {
          "status": "generated",
          "div": "<div xmlns=\"http://www.w3.org/1999/xhtml\">SYNDERAI Synthetic Generator v5.0</div>"
        },
        "status": "active\"",
        "distinctIdentifier": "synderai-generator-50",
        "manufacturer": "SYNDERAI Project"
      }
    },
    {
      "fullUrl": "urn:uuid:b6043825-2248-4ea1-a45e-21fee4b78ccd",
      "resource": {
        "resourceType": "Provenance",
        "id": "b6043825-2248-4ea1-a45e-21fee4b78ccd",
        "target": [
          {
            "reference": "Patient/7fe58d0c-ae72-4301-8b0d-7b44d872e05f"
          },
          {
            "reference": "Bundle/794904e4-ae90-4821-b236-e25455fb8acb"
          },
          {
            "reference": "Composition/1f75ce0d-0640-47b4-be06-d54870161d90"
          },
          {
            "reference": "PractitionerRole/a4fed594-85aa-48a1-ba98-9dc8413c6d74"
          },
          {
            "reference": "Practitioner/ae2283a6-e59a-4c64-add2-ff724bf6eb0d"
          },
          {
            "reference": "PractitionerRole/302c6b0d-c680-461f-aa55-31997f46bf67"
          },
          {
            "reference": "Organization/83d0e201-9f49-45f1-af50-eea843b86d6d"
          }
        ],
        "activity": {
          "text": "Synthetic Example Data Generation"
        },
        "policy": [
          "https://synderai.net/synderai-synthetic-data-policy"
        ],
        "agent": [
          {
            "type": {
              "text": "author"
            },
            "who": {
              "reference": "Device/c6355f74-b851-4e54-8a8e-579d00718288"
            }
          }
        ],
        "reason": [
          {
            "text": "Interoperability Testing and Training (non-clinical use)"
          }
        ],
        "text": {
          "status": "generated",
          "div": "<div xmlns=\"http://www.w3.org/1999/xhtml\">Provenance for SYNDERAI Synthetic Example Data Resource</div>"
        },
        "recorded": "2016-06-22T02:03:39Z"
      }
    },
    {
      "fullUrl": "urn:uuid:a4fed594-85aa-48a1-ba98-9dc8413c6d74",
      "resource": {
        "resourceType": "PractitionerRole",
        "id": "a4fed594-85aa-48a1-ba98-9dc8413c6d74",
        "meta": {
          "profile": [
            "http://hl7.eu/fhir/base/StructureDefinition/practitionerRole-eu"
          ]
        },
        "text": {
          "status": "generated",
          "div": "<div xmlns=\"http://www.w3.org/1999/xhtml\">Laboratory Role Id: a4fed594-85aa-48a1-ba98-9dc8413c6d74</div>"
        },
        "practitioner": {
          "reference": "urn:uuid:ae2283a6-e59a-4c64-add2-ff724bf6eb0d"
        }
      }
    },
    {
      "fullUrl": "urn:uuid:ae2283a6-e59a-4c64-add2-ff724bf6eb0d",
      "resource": {
        "resourceType": "Practitioner",
        "id": "ae2283a6-e59a-4c64-add2-ff724bf6eb0d",
        "meta": {
          "profile": [
            "http://hl7.eu/fhir/base/StructureDefinition/practitioner-eu"
          ]
        },
        "identifier": [
          {
            "assigner": {
              "display": "HL7 Europe"
            },
            "system": "urn:oid:2.16.840.1.113883.2.51.999",
            "value": "b33ecf8f-2b05-4688-9c9e-c01bc8af6e5a"
          }
        ],
        "name": [
          {
            "prefix": [
              "dr"
            ],
            "given": [
              "Ex"
            ],
            "family": "Ample"
          }
        ],
        "address": [
          {
            "line": [
              "Laboratoire Central Européenne",
              "Boulevard du Jardin Botanique 32"
            ],
            "postalCode": "1000",
            "city": "Brussels",
            "country": "Belgium"
          }
        ],
        "text": {
          "status": "generated",
          "div": "<div xmlns=\"http://www.w3.org/1999/xhtml\">Laboratory: Laboratoire Central Européenne, 1000 Brussels, Belgium</div>"
        }
      }
    }
  ],
  "type": "document",
  "timestamp": "2016-06-22T02:03:39Z"
}
