{
  "resourceType": "Bundle",
  "id": "b9ce024b-2220-4cfa-8169-be24ce844cc2",
  "meta": {
    "profile": [
      "http://hl7.eu/fhir/laboratory/StructureDefinition/Bundle-eu-lab"
    ]
  },
  "identifier": {
    "assigner": {
      "display": "HL7 Europe"
    },
    "system": "urn:oid:2.16.840.1.113883.2.51.999",
    "value": "9458097e-279c-40f2-8c78-300e96d092fb"
  },
  "entry": [
    {
      "fullUrl": "urn:uuid:f73a0f18-9524-4770-b964-dff3e2f298e1",
      "resource": {
        "resourceType": "Composition",
        "id": "f73a0f18-9524-4770-b964-dff3e2f298e1",
        "meta": {
          "profile": [
            "http://hl7.eu/fhir/laboratory/StructureDefinition/Composition-eu-lab"
          ]
        },
        "identifier": {
          "assigner": {
            "display": "HL7 Europe"
          },
          "system": "urn:oid:2.16.840.1.113883.2.51.999",
          "value": "3b07f759-0b1b-4832-8a8a-f6a992c6b314"
        },
        "author": [
          {
            "reference": "urn:uuid:b771500a-ea99-4867-96d4-fad67553f5ca"
          }
        ],
        "category": [
          {
            "coding": [
              {
                "code": "26436-6",
                "system": "http://loinc.org",
                "display": "Laboratory studies (set)"
              }
            ]
          }
        ],
        "type": {
          "coding": [
            {
              "code": "11502-2",
              "system": "http://loinc.org",
              "display": "Laboratory report"
            }
          ],
          "text": "Laboratory Report"
        },
        "section": [
          {
            "code": {
              "coding": [
                {
                  "code": "26436-6",
                  "system": "http://loinc.org",
                  "display": "Laboratory studies (set)"
                }
              ],
              "text": "Laboratory studies"
            },
            "section": [
              {
                "code": {
                  "coding": [
                    {
                      "code": "$18719-5",
                      "system": "http://loinc.org",
                      "display": "Chemistry studies (set)"
                    }
                  ],
                  "text": "Chemistry"
                },
                "entry": [
                  {
                    "reference": "urn:uuid:551f6fd2-d95f-4967-922b-d55203ae9a48"
                  },
                  {
                    "reference": "urn:uuid:9d641453-821e-4a23-8f31-e3b0deeffb63"
                  },
                  {
                    "reference": "urn:uuid:8ba473ad-c2f9-4408-8e77-6acdbd61f5a5"
                  },
                  {
                    "reference": "urn:uuid:40babb8e-27d7-40ee-bdcc-1e3f3a84313a"
                  },
                  {
                    "reference": "urn:uuid:4e2a159b-5f94-4a93-823d-ee21f3c2ceef"
                  },
                  {
                    "reference": "urn:uuid:73cb2fc7-8545-420c-aafe-465417ee17f2"
                  },
                  {
                    "reference": "urn:uuid:e5091219-f9ac-405b-99e2-467fc0a346e0"
                  },
                  {
                    "reference": "urn:uuid:7458aff6-30d9-415b-ac87-5b22e5700964"
                  },
                  {
                    "reference": "urn:uuid:cc7b4144-28a4-4273-b817-b16349692c14"
                  }
                ],
                "text": {
                  "status": "generated",
                  "div": "<div xmlns=\"http://www.w3.org/1999/xhtml\"><h3>Chemistry</h3><table class=\"hl7__eu__lab__report\"><thead><tr><th>Test</th><th>20-APR-2025</th><th>Reference Range</th><th>Unit</th></tr></thead><tbody><tr><td>Hemoglobin A1c/Hemoglobin.total in Blood</td><td><strong>6.4 H</strong></td><td>4.8 - 5.7</td><td>%</td></tr><tr><td>Glucose [Mass/volume] in Blood</td><td>98.9</td><td>70 - 99</td><td>mg/dL</td></tr><tr><td>Urea nitrogen [Mass/volume] in Blood</td><td>9.4</td><td>7 - 20</td><td>mg/dL</td></tr><tr><td>Creatinine [Mass/volume] in Blood</td><td><strong>1.2 H</strong></td><td>0.6 - 1.1</td><td>mg/dL</td></tr><tr><td>Calcium [Mass/volume] in Blood</td><td>9.9</td><td>8.5 - 10.4</td><td>mg/dL</td></tr><tr><td>Sodium [Moles/volume] in Blood</td><td>142.1</td><td>135 - 145</td><td>mmol/L</td></tr><tr><td>Potassium [Moles/volume] in Blood</td><td>4.6</td><td>3.5 - 5.1</td><td>mmol/L</td></tr><tr><td>Chloride [Moles/volume] in Blood</td><td><strong>110.7 H</strong></td><td>98 - 107</td><td>mmol/L</td></tr><tr><td>Carbon dioxide, total [Moles/volume] in Blood</td><td><strong>21.1 L</strong></td><td>22 - 29</td><td>mmol/L</td></tr></tbody></table></div>"
                },
                "title": "Chemistry"
              }
            ],
            "title": "Laboratory Report"
          },
          {
            "text": {
              "status": "generated",
              "div": "<div xmlns=\"http://www.w3.org/1999/xhtml\"><h3>Annotation</h3><table class=\"hl7__eu__lab__report\"><tr><th>Conclusion and Recommendations based on this report and previous findings known to us</th></tr><tr><td>The patient shows elevated HbA1c, indicating impaired glucose control or possible diabetes. Creatinine is slightly elevated, suggesting possible mild renal impairment. Chloride is high and total CO₂ is low, which may indicate a mild metabolic acidosis. Other parameters are within normal limits. Correlation with clinical findings and further evaluation of renal function and acid-base status are recommended.</td></tr></table></div>"
            },
            "code": {
              "coding": [
                {
                  "system": "http://loinc.org",
                  "code": "48767-8",
                  "display": "Annotation comment"
                }
              ]
            },
            "title": "Annotation comment"
          }
        ],
        "status": "final",
        "subject": {
          "reference": "urn:uuid:6319c866-70ec-4a1b-97a1-92a1c947e44b",
          "display": "Olga Bąbel"
        },
        "date": "2025-04-20T05:55:50Z",
        "title": "Laboratory Report",
        "confidentiality": "N"
      }
    },
    {
      "fullUrl": "urn:uuid:211846a4-db3c-4966-96de-bd65d9f4c438",
      "resource": {
        "resourceType": "DiagnosticReport",
        "id": "211846a4-db3c-4966-96de-bd65d9f4c438",
        "meta": {
          "profile": [
            "http://hl7.eu/fhir/laboratory/StructureDefinition/DiagnosticReport-eu-lab"
          ]
        },
        "identifier": [
          {
            "assigner": {
              "display": "HL7 Europe"
            },
            "system": "urn:oid:2.16.840.1.113883.2.51.999",
            "value": "c0eca596-b791-44a6-8415-01d8ef7f4b6a"
          }
        ],
        "extension": [
          {
            "url": "http://hl7.org/fhir/5.0/StructureDefinition/extension-DiagnosticReport.composition",
            "valueReference": {
              "reference": "urn:uuid:3b07f759-0b1b-4832-8a8a-f6a992c6b314"
            }
          }
        ],
        "category": [
          {
            "coding": [
              {
                "code": "26436-6",
                "system": "http://loinc.org",
                "display": "Laboratory studies (set)"
              }
            ]
          }
        ],
        "specimen": [
          {
            "reference": "urn:uuid:cecffe99-b22c-4740-ae67-17e0d0414f24"
          }
        ],
        "result": [
          {
            "reference": "urn:uuid:551f6fd2-d95f-4967-922b-d55203ae9a48"
          },
          {
            "reference": "urn:uuid:9d641453-821e-4a23-8f31-e3b0deeffb63"
          },
          {
            "reference": "urn:uuid:8ba473ad-c2f9-4408-8e77-6acdbd61f5a5"
          },
          {
            "reference": "urn:uuid:40babb8e-27d7-40ee-bdcc-1e3f3a84313a"
          },
          {
            "reference": "urn:uuid:4e2a159b-5f94-4a93-823d-ee21f3c2ceef"
          },
          {
            "reference": "urn:uuid:73cb2fc7-8545-420c-aafe-465417ee17f2"
          },
          {
            "reference": "urn:uuid:e5091219-f9ac-405b-99e2-467fc0a346e0"
          },
          {
            "reference": "urn:uuid:7458aff6-30d9-415b-ac87-5b22e5700964"
          },
          {
            "reference": "urn:uuid:cc7b4144-28a4-4273-b817-b16349692c14"
          }
        ],
        "status": "registered",
        "code": {
          "coding": [
            {
              "code": "11502-2",
              "system": "http://loinc.org",
              "display": "Laboratory report"
            }
          ]
        },
        "subject": {
          "reference": "urn:uuid:6319c866-70ec-4a1b-97a1-92a1c947e44b",
          "display": "Olga Bąbel"
        }
      }
    },
    {
      "fullUrl": "urn:uuid:6319c866-70ec-4a1b-97a1-92a1c947e44b",
      "resource": {
        "resourceType": "Patient",
        "id": "6319c866-70ec-4a1b-97a1-92a1c947e44b",
        "meta": {
          "security": [
            {
              "system": "http://terminology.hl7.org/CodeSystem/v3-ActReason",
              "code": "HTEST"
            },
            {
              "system": "http://terminology.hl7.org/CodeSystem/v3-ActReason",
              "code": "TRAIN"
            }
          ],
          "tag": [
            {
              "system": "https://synderai.net/fhir/CodeSystem/tags",
              "code": "synthetic",
              "display": "SYNDERAI Synthetic data"
            }
          ],
          "profile": [
            "http://hl7.eu/fhir/base/StructureDefinition/patient-eu-core"
          ]
        },
        "identifier": [
          {
            "type": {
              "coding": [
                {
                  "code": "PT",
                  "system": "http://terminology.hl7.org/CodeSystem/v2-0203"
                }
              ]
            },
            "system": "http://ec.europa.eu/identifier/eci",
            "value": "5030-866518-6"
          },
          {
            "type": {
              "coding": [
                {
                  "code": "MR",
                  "system": "http://terminology.hl7.org/CodeSystem/v2-0203"
                }
              ]
            },
            "system": "http://local.setting.eu/identifier",
            "value": "90f4ce41-5cb2-20e8-d5ac-80001edd2b41"
          }
        ],
        "name": [
          {
            "family": "Bąbel"
          },
          {
            "given": [
              "Olga"
            ]
          },
          {
            "text": "Olga Bąbel"
          }
        ],
        "address": [
          {
            "line": [
              "ul. Podleśna 13/38"
            ],
            "use": "home",
            "type": "physical",
            "postalCode": "05-200",
            "city": "Wołomin",
            "country": "Poland"
          }
        ],
        "telecom": [
          {
            "system": "phone",
            "value": "+48 506 354 073"
          }
        ],
        "extension": [
          {
            "url": "http://hl7.org/fhir/StructureDefinition/patient-nationality",
            "valueCodeableConcept": {
              "coding": [
                {
                  "code": "PL",
                  "system": "http://hl7.org/fhir/ValueSet/country"
                }
              ]
            }
          }
        ],
        "text": {
          "status": "generated",
          "div": "<div xmlns=\"http://www.w3.org/1999/xhtml\"><table class=\"hl7__ips\"><tr><td>Olga Bąbel</td><td>female</td><td>05-Jun-1993</td></tr></table></div>"
        },
        "gender": "female",
        "birthDate": "1993-06-05"
      }
    },
    {
      "fullUrl": "urn:uuid:5d73273a-29e2-4e95-aefc-affb448f7078",
      "resource": {
        "resourceType": "ServiceRequest",
        "id": "5d73273a-29e2-4e95-aefc-affb448f7078",
        "meta": {
          "profile": [
            "http://hl7.eu/fhir/laboratory/StructureDefinition/ServiceRequest-eu-lab"
          ]
        },
        "identifier": [
          {
            "system": "http://example.org",
            "value": "58a28725-78f1-4b54-b1b3-a94d619708ac"
          }
        ],
        "specimen": [
          {
            "reference": "urn:uuid:cecffe99-b22c-4740-ae67-17e0d0414f24"
          }
        ],
        "reasonCode": [
          {
            "coding": [
              {
                "code": "15777000",
                "system": "http://snomed.info/sct",
                "display": "Prediabetes"
              }
            ]
          },
          {
            "coding": [
              {
                "code": "271737000",
                "system": "http://snomed.info/sct",
                "display": "Anemia"
              }
            ]
          }
        ],
        "status": "active",
        "intent": "order",
        "code": {
          "coding": [
            {
              "code": "108252007",
              "system": "http://snomed.info/sct",
              "display": "Laboratory procedure"
            }
          ]
        },
        "subject": {
          "reference": "urn:uuid:6319c866-70ec-4a1b-97a1-92a1c947e44b",
          "display": "Olga Bąbel"
        },
        "requester": {
          "reference": "urn:uuid:1410251a-e83c-4a0e-bf62-25f8e78497f7"
        }
      }
    },
    {
      "fullUrl": "urn:uuid:1410251a-e83c-4a0e-bf62-25f8e78497f7",
      "resource": {
        "resourceType": "PractitionerRole",
        "id": "1410251a-e83c-4a0e-bf62-25f8e78497f7",
        "meta": {
          "profile": [
            "http://hl7.eu/fhir/base/StructureDefinition/practitionerRole-eu"
          ]
        },
        "text": {
          "status": "generated",
          "div": "<div xmlns=\"http://www.w3.org/1999/xhtml\">Provider Role Id: 1410251a-e83c-4a0e-bf62-25f8e78497f7</div>"
        },
        "organization": {
          "reference": "urn:uuid:af9e4eb7-a7a8-4a9e-afdd-33c4c420f83d"
        }
      }
    },
    {
      "fullUrl": "urn:uuid:af9e4eb7-a7a8-4a9e-afdd-33c4c420f83d",
      "resource": {
        "resourceType": "Organization",
        "id": "af9e4eb7-a7a8-4a9e-afdd-33c4c420f83d",
        "meta": {
          "profile": [
            "http://hl7.eu/fhir/base/StructureDefinition/organization-eu"
          ]
        },
        "identifier": [
          {
            "assigner": {
              "display": "HL7 Europe"
            },
            "system": "urn:oid:2.16.840.1.113883.2.51.999",
            "value": "c007d3d5-f9b5-4af1-84a4-73cd72309f7e"
          }
        ],
        "address": [
          {
            "line": [
              "Ignacego Prądzyńskiego 11"
            ],
            "city": "Wołomin",
            "postalCode": "05-200",
            "country": "Poland"
          }
        ],
        "text": {
          "status": "generated",
          "div": "<div xmlns=\"http://www.w3.org/1999/xhtml\">Provider Organization: Miejski Samodzielny Publiczny Zakład Opieki Zdrowotnej Nr 1</div>"
        },
        "name": "Miejski Samodzielny Publiczny Zakład Opieki Zdrowotnej Nr 1"
      }
    },
    {
      "fullUrl": "urn:uuid:cecffe99-b22c-4740-ae67-17e0d0414f24",
      "resource": {
        "resourceType": "Specimen",
        "id": "cecffe99-b22c-4740-ae67-17e0d0414f24",
        "meta": {
          "profile": [
            "http://hl7.eu/fhir/laboratory/StructureDefinition/Specimen-eu-lab"
          ]
        },
        "collection": {
          "collectedDateTime": "2025-04-20"
        },
        "text": {
          "status": "generated",
          "div": "<div xmlns=\"http://www.w3.org/1999/xhtml\"><table class=\"hl7__eu__lab__report\"><tr><th>Specimen</th><th>Collection Date</th></tr><tr><td>Whole blood specimen (specimen)</td><td><span class=\"nb\">20-Apr-2025</span></td></tr></table></div>"
        },
        "type": {
          "coding": [
            {
              "code": "258580003",
              "system": "http://snomed.info/sct",
              "display": "Whole blood specimen (specimen)"
            }
          ]
        }
      }
    },
    {
      "fullUrl": "urn:uuid:551f6fd2-d95f-4967-922b-d55203ae9a48",
      "resource": {
        "resourceType": "Observation",
        "id": "551f6fd2-d95f-4967-922b-d55203ae9a48",
        "meta": {
          "profile": [
            "http://hl7.eu/fhir/laboratory/StructureDefinition/Observation-resultslab-eu-lab"
          ]
        },
        "performer": [
          {
            "display": "The Central European Lab"
          }
        ],
        "category": [
          {
            "coding": [
              {
                "system": "http://terminology.hl7.org/CodeSystem/observation-category",
                "code": "laboratory"
              }
            ]
          }
        ],
        "code": {
          "coding": [
            {
              "code": "4548-4",
              "system": "http://loinc.org",
              "display": "Hemoglobin A1c/Hemoglobin.total in Blood"
            }
          ],
          "text": "Hemoglobin A1c/Hemoglobin.total in Blood"
        },
        "valueQuantity": {
          "system": "http://unitsofmeasure.org",
          "value": 6.4,
          "unit": "%",
          "code": "%"
        },
        "referenceRange": [
          {
            "low": {
              "value": 4.8,
              "code": "%",
              "system": "http://unitsofmeasure.org"
            }
          },
          {
            "high": {
              "value": 5.7,
              "code": "%",
              "system": "http://unitsofmeasure.org"
            }
          }
        ],
        "interpretation": [
          {
            "coding": [
              {
                "code": "H",
                "system": "http://terminology.hl7.org/CodeSystem/v3-ObservationInterpretation",
                "display": "High"
              }
            ]
          }
        ],
        "text": {
          "status": "generated",
          "div": "<div xmlns=\"http://www.w3.org/1999/xhtml\"><table class=\"hl7__eu__lab__report\"><tr><th>Test</th><th>20-Apr-2025</th><th>Reference Range</th><th>Unit</th></tr><tr><td>Hemoglobin A1c/Hemoglobin.total in Blood</td><td>6.4</td><td>4.8 - 5.7</td><td>H</td><td>%</td></tr></table></div>"
        },
        "status": "final",
        "subject": {
          "reference": "urn:uuid:6319c866-70ec-4a1b-97a1-92a1c947e44b",
          "display": "Olga Bąbel"
        },
        "effectiveDateTime": "2025-04-20T03:55:50Z",
        "specimen": {
          "reference": "urn:uuid:cecffe99-b22c-4740-ae67-17e0d0414f24"
        }
      }
    },
    {
      "fullUrl": "urn:uuid:9d641453-821e-4a23-8f31-e3b0deeffb63",
      "resource": {
        "resourceType": "Observation",
        "id": "9d641453-821e-4a23-8f31-e3b0deeffb63",
        "meta": {
          "profile": [
            "http://hl7.eu/fhir/laboratory/StructureDefinition/Observation-resultslab-eu-lab"
          ]
        },
        "performer": [
          {
            "display": "The Central European Lab"
          }
        ],
        "category": [
          {
            "coding": [
              {
                "system": "http://terminology.hl7.org/CodeSystem/observation-category",
                "code": "laboratory"
              }
            ]
          }
        ],
        "code": {
          "coding": [
            {
              "code": "2339-0",
              "system": "http://loinc.org",
              "display": "Glucose [Mass/volume] in Blood"
            }
          ],
          "text": "Glucose [Mass/volume] in Blood"
        },
        "valueQuantity": {
          "system": "http://unitsofmeasure.org",
          "value": 98.9,
          "unit": "mg/dL",
          "code": "mg/dL"
        },
        "referenceRange": [
          {
            "low": {
              "value": 70,
              "code": "mg/dL",
              "system": "http://unitsofmeasure.org"
            }
          },
          {
            "high": {
              "value": 99,
              "code": "mg/dL",
              "system": "http://unitsofmeasure.org"
            }
          }
        ],
        "text": {
          "status": "generated",
          "div": "<div xmlns=\"http://www.w3.org/1999/xhtml\"><table class=\"hl7__eu__lab__report\"><tr><th>Test</th><th>20-Apr-2025</th><th>Reference Range</th><th>Unit</th></tr><tr><td>Glucose [Mass/volume] in Blood</td><td>98.9</td><td>70 - 99</td><td></td><td>mg/dL</td></tr></table></div>"
        },
        "status": "final",
        "subject": {
          "reference": "urn:uuid:6319c866-70ec-4a1b-97a1-92a1c947e44b",
          "display": "Olga Bąbel"
        },
        "effectiveDateTime": "2025-04-20T03:55:50Z",
        "specimen": {
          "reference": "urn:uuid:cecffe99-b22c-4740-ae67-17e0d0414f24"
        }
      }
    },
    {
      "fullUrl": "urn:uuid:8ba473ad-c2f9-4408-8e77-6acdbd61f5a5",
      "resource": {
        "resourceType": "Observation",
        "id": "8ba473ad-c2f9-4408-8e77-6acdbd61f5a5",
        "meta": {
          "profile": [
            "http://hl7.eu/fhir/laboratory/StructureDefinition/Observation-resultslab-eu-lab"
          ]
        },
        "performer": [
          {
            "display": "The Central European Lab"
          }
        ],
        "category": [
          {
            "coding": [
              {
                "system": "http://terminology.hl7.org/CodeSystem/observation-category",
                "code": "laboratory"
              }
            ]
          }
        ],
        "code": {
          "coding": [
            {
              "code": "6299-2",
              "system": "http://loinc.org",
              "display": "Urea nitrogen [Mass/volume] in Blood"
            }
          ],
          "text": "Urea nitrogen [Mass/volume] in Blood"
        },
        "valueQuantity": {
          "system": "http://unitsofmeasure.org",
          "value": 9.4,
          "unit": "mg/dL",
          "code": "mg/dL"
        },
        "referenceRange": [
          {
            "low": {
              "value": 7,
              "code": "mg/dL",
              "system": "http://unitsofmeasure.org"
            }
          },
          {
            "high": {
              "value": 20,
              "code": "mg/dL",
              "system": "http://unitsofmeasure.org"
            }
          }
        ],
        "text": {
          "status": "generated",
          "div": "<div xmlns=\"http://www.w3.org/1999/xhtml\"><table class=\"hl7__eu__lab__report\"><tr><th>Test</th><th>20-Apr-2025</th><th>Reference Range</th><th>Unit</th></tr><tr><td>Urea nitrogen [Mass/volume] in Blood</td><td>9.4</td><td>7 - 20</td><td></td><td>mg/dL</td></tr></table></div>"
        },
        "status": "final",
        "subject": {
          "reference": "urn:uuid:6319c866-70ec-4a1b-97a1-92a1c947e44b",
          "display": "Olga Bąbel"
        },
        "effectiveDateTime": "2025-04-20T03:55:50Z",
        "specimen": {
          "reference": "urn:uuid:cecffe99-b22c-4740-ae67-17e0d0414f24"
        }
      }
    },
    {
      "fullUrl": "urn:uuid:40babb8e-27d7-40ee-bdcc-1e3f3a84313a",
      "resource": {
        "resourceType": "Observation",
        "id": "40babb8e-27d7-40ee-bdcc-1e3f3a84313a",
        "meta": {
          "profile": [
            "http://hl7.eu/fhir/laboratory/StructureDefinition/Observation-resultslab-eu-lab"
          ]
        },
        "performer": [
          {
            "display": "The Central European Lab"
          }
        ],
        "category": [
          {
            "coding": [
              {
                "system": "http://terminology.hl7.org/CodeSystem/observation-category",
                "code": "laboratory"
              }
            ]
          }
        ],
        "code": {
          "coding": [
            {
              "code": "38483-4",
              "system": "http://loinc.org",
              "display": "Creatinine [Mass/volume] in Blood"
            }
          ],
          "text": "Creatinine [Mass/volume] in Blood"
        },
        "valueQuantity": {
          "system": "http://unitsofmeasure.org",
          "value": 1.2,
          "unit": "mg/dL",
          "code": "mg/dL"
        },
        "referenceRange": [
          {
            "low": {
              "value": 0.6,
              "code": "mg/dL",
              "system": "http://unitsofmeasure.org"
            }
          },
          {
            "high": {
              "value": 1.1,
              "code": "mg/dL",
              "system": "http://unitsofmeasure.org"
            }
          }
        ],
        "interpretation": [
          {
            "coding": [
              {
                "code": "H",
                "system": "http://terminology.hl7.org/CodeSystem/v3-ObservationInterpretation",
                "display": "High"
              }
            ]
          }
        ],
        "text": {
          "status": "generated",
          "div": "<div xmlns=\"http://www.w3.org/1999/xhtml\"><table class=\"hl7__eu__lab__report\"><tr><th>Test</th><th>20-Apr-2025</th><th>Reference Range</th><th>Unit</th></tr><tr><td>Creatinine [Mass/volume] in Blood</td><td>1.2</td><td>0.6 - 1.1</td><td>H</td><td>mg/dL</td></tr></table></div>"
        },
        "status": "final",
        "subject": {
          "reference": "urn:uuid:6319c866-70ec-4a1b-97a1-92a1c947e44b",
          "display": "Olga Bąbel"
        },
        "effectiveDateTime": "2025-04-20T03:55:50Z",
        "specimen": {
          "reference": "urn:uuid:cecffe99-b22c-4740-ae67-17e0d0414f24"
        }
      }
    },
    {
      "fullUrl": "urn:uuid:4e2a159b-5f94-4a93-823d-ee21f3c2ceef",
      "resource": {
        "resourceType": "Observation",
        "id": "4e2a159b-5f94-4a93-823d-ee21f3c2ceef",
        "meta": {
          "profile": [
            "http://hl7.eu/fhir/laboratory/StructureDefinition/Observation-resultslab-eu-lab"
          ]
        },
        "performer": [
          {
            "display": "The Central European Lab"
          }
        ],
        "category": [
          {
            "coding": [
              {
                "system": "http://terminology.hl7.org/CodeSystem/observation-category",
                "code": "laboratory"
              }
            ]
          }
        ],
        "code": {
          "coding": [
            {
              "code": "49765-1",
              "system": "http://loinc.org",
              "display": "Calcium [Mass/volume] in Blood"
            }
          ],
          "text": "Calcium [Mass/volume] in Blood"
        },
        "valueQuantity": {
          "system": "http://unitsofmeasure.org",
          "value": 9.9,
          "unit": "mg/dL",
          "code": "mg/dL"
        },
        "referenceRange": [
          {
            "low": {
              "value": 8.5,
              "code": "mg/dL",
              "system": "http://unitsofmeasure.org"
            }
          },
          {
            "high": {
              "value": 10.4,
              "code": "mg/dL",
              "system": "http://unitsofmeasure.org"
            }
          }
        ],
        "text": {
          "status": "generated",
          "div": "<div xmlns=\"http://www.w3.org/1999/xhtml\"><table class=\"hl7__eu__lab__report\"><tr><th>Test</th><th>20-Apr-2025</th><th>Reference Range</th><th>Unit</th></tr><tr><td>Calcium [Mass/volume] in Blood</td><td>9.9</td><td>8.5 - 10.4</td><td></td><td>mg/dL</td></tr></table></div>"
        },
        "status": "final",
        "subject": {
          "reference": "urn:uuid:6319c866-70ec-4a1b-97a1-92a1c947e44b",
          "display": "Olga Bąbel"
        },
        "effectiveDateTime": "2025-04-20T03:55:50Z",
        "specimen": {
          "reference": "urn:uuid:cecffe99-b22c-4740-ae67-17e0d0414f24"
        }
      }
    },
    {
      "fullUrl": "urn:uuid:73cb2fc7-8545-420c-aafe-465417ee17f2",
      "resource": {
        "resourceType": "Observation",
        "id": "73cb2fc7-8545-420c-aafe-465417ee17f2",
        "meta": {
          "profile": [
            "http://hl7.eu/fhir/laboratory/StructureDefinition/Observation-resultslab-eu-lab"
          ]
        },
        "performer": [
          {
            "display": "The Central European Lab"
          }
        ],
        "category": [
          {
            "coding": [
              {
                "system": "http://terminology.hl7.org/CodeSystem/observation-category",
                "code": "laboratory"
              }
            ]
          }
        ],
        "code": {
          "coding": [
            {
              "code": "2947-0",
              "system": "http://loinc.org",
              "display": "Sodium [Moles/volume] in Blood"
            }
          ],
          "text": "Sodium [Moles/volume] in Blood"
        },
        "valueQuantity": {
          "system": "http://unitsofmeasure.org",
          "value": 142.1,
          "unit": "mmol/L",
          "code": "mmol/L"
        },
        "referenceRange": [
          {
            "low": {
              "value": 135,
              "code": "mmol/L",
              "system": "http://unitsofmeasure.org"
            }
          },
          {
            "high": {
              "value": 145,
              "code": "mmol/L",
              "system": "http://unitsofmeasure.org"
            }
          }
        ],
        "text": {
          "status": "generated",
          "div": "<div xmlns=\"http://www.w3.org/1999/xhtml\"><table class=\"hl7__eu__lab__report\"><tr><th>Test</th><th>20-Apr-2025</th><th>Reference Range</th><th>Unit</th></tr><tr><td>Sodium [Moles/volume] in Blood</td><td>142.1</td><td>135 - 145</td><td></td><td>mmol/L</td></tr></table></div>"
        },
        "status": "final",
        "subject": {
          "reference": "urn:uuid:6319c866-70ec-4a1b-97a1-92a1c947e44b",
          "display": "Olga Bąbel"
        },
        "effectiveDateTime": "2025-04-20T03:55:50Z",
        "specimen": {
          "reference": "urn:uuid:cecffe99-b22c-4740-ae67-17e0d0414f24"
        }
      }
    },
    {
      "fullUrl": "urn:uuid:e5091219-f9ac-405b-99e2-467fc0a346e0",
      "resource": {
        "resourceType": "Observation",
        "id": "e5091219-f9ac-405b-99e2-467fc0a346e0",
        "meta": {
          "profile": [
            "http://hl7.eu/fhir/laboratory/StructureDefinition/Observation-resultslab-eu-lab"
          ]
        },
        "performer": [
          {
            "display": "The Central European Lab"
          }
        ],
        "category": [
          {
            "coding": [
              {
                "system": "http://terminology.hl7.org/CodeSystem/observation-category",
                "code": "laboratory"
              }
            ]
          }
        ],
        "code": {
          "coding": [
            {
              "code": "6298-4",
              "system": "http://loinc.org",
              "display": "Potassium [Moles/volume] in Blood"
            }
          ],
          "text": "Potassium [Moles/volume] in Blood"
        },
        "valueQuantity": {
          "system": "http://unitsofmeasure.org",
          "value": 4.6,
          "unit": "mmol/L",
          "code": "mmol/L"
        },
        "referenceRange": [
          {
            "low": {
              "value": 3.5,
              "code": "mmol/L",
              "system": "http://unitsofmeasure.org"
            }
          },
          {
            "high": {
              "value": 5.1,
              "code": "mmol/L",
              "system": "http://unitsofmeasure.org"
            }
          }
        ],
        "text": {
          "status": "generated",
          "div": "<div xmlns=\"http://www.w3.org/1999/xhtml\"><table class=\"hl7__eu__lab__report\"><tr><th>Test</th><th>20-Apr-2025</th><th>Reference Range</th><th>Unit</th></tr><tr><td>Potassium [Moles/volume] in Blood</td><td>4.6</td><td>3.5 - 5.1</td><td></td><td>mmol/L</td></tr></table></div>"
        },
        "status": "final",
        "subject": {
          "reference": "urn:uuid:6319c866-70ec-4a1b-97a1-92a1c947e44b",
          "display": "Olga Bąbel"
        },
        "effectiveDateTime": "2025-04-20T03:55:50Z",
        "specimen": {
          "reference": "urn:uuid:cecffe99-b22c-4740-ae67-17e0d0414f24"
        }
      }
    },
    {
      "fullUrl": "urn:uuid:7458aff6-30d9-415b-ac87-5b22e5700964",
      "resource": {
        "resourceType": "Observation",
        "id": "7458aff6-30d9-415b-ac87-5b22e5700964",
        "meta": {
          "profile": [
            "http://hl7.eu/fhir/laboratory/StructureDefinition/Observation-resultslab-eu-lab"
          ]
        },
        "performer": [
          {
            "display": "The Central European Lab"
          }
        ],
        "category": [
          {
            "coding": [
              {
                "system": "http://terminology.hl7.org/CodeSystem/observation-category",
                "code": "laboratory"
              }
            ]
          }
        ],
        "code": {
          "coding": [
            {
              "code": "2069-3",
              "system": "http://loinc.org",
              "display": "Chloride [Moles/volume] in Blood"
            }
          ],
          "text": "Chloride [Moles/volume] in Blood"
        },
        "valueQuantity": {
          "system": "http://unitsofmeasure.org",
          "value": 110.7,
          "unit": "mmol/L",
          "code": "mmol/L"
        },
        "referenceRange": [
          {
            "low": {
              "value": 98,
              "code": "mmol/L",
              "system": "http://unitsofmeasure.org"
            }
          },
          {
            "high": {
              "value": 107,
              "code": "mmol/L",
              "system": "http://unitsofmeasure.org"
            }
          }
        ],
        "interpretation": [
          {
            "coding": [
              {
                "code": "H",
                "system": "http://terminology.hl7.org/CodeSystem/v3-ObservationInterpretation",
                "display": "High"
              }
            ]
          }
        ],
        "text": {
          "status": "generated",
          "div": "<div xmlns=\"http://www.w3.org/1999/xhtml\"><table class=\"hl7__eu__lab__report\"><tr><th>Test</th><th>20-Apr-2025</th><th>Reference Range</th><th>Unit</th></tr><tr><td>Chloride [Moles/volume] in Blood</td><td>110.7</td><td>98 - 107</td><td>H</td><td>mmol/L</td></tr></table></div>"
        },
        "status": "final",
        "subject": {
          "reference": "urn:uuid:6319c866-70ec-4a1b-97a1-92a1c947e44b",
          "display": "Olga Bąbel"
        },
        "effectiveDateTime": "2025-04-20T03:55:50Z",
        "specimen": {
          "reference": "urn:uuid:cecffe99-b22c-4740-ae67-17e0d0414f24"
        }
      }
    },
    {
      "fullUrl": "urn:uuid:cc7b4144-28a4-4273-b817-b16349692c14",
      "resource": {
        "resourceType": "Observation",
        "id": "cc7b4144-28a4-4273-b817-b16349692c14",
        "meta": {
          "profile": [
            "http://hl7.eu/fhir/laboratory/StructureDefinition/Observation-resultslab-eu-lab"
          ]
        },
        "performer": [
          {
            "display": "The Central European Lab"
          }
        ],
        "category": [
          {
            "coding": [
              {
                "system": "http://terminology.hl7.org/CodeSystem/observation-category",
                "code": "laboratory"
              }
            ]
          }
        ],
        "code": {
          "coding": [
            {
              "code": "20565-8",
              "system": "http://loinc.org",
              "display": "Carbon dioxide, total [Moles/volume] in Blood"
            }
          ],
          "text": "Carbon dioxide, total [Moles/volume] in Blood"
        },
        "valueQuantity": {
          "system": "http://unitsofmeasure.org",
          "value": 21.1,
          "unit": "mmol/L",
          "code": "mmol/L"
        },
        "referenceRange": [
          {
            "low": {
              "value": 22,
              "code": "mmol/L",
              "system": "http://unitsofmeasure.org"
            }
          },
          {
            "high": {
              "value": 29,
              "code": "mmol/L",
              "system": "http://unitsofmeasure.org"
            }
          }
        ],
        "interpretation": [
          {
            "coding": [
              {
                "code": "L",
                "system": "http://terminology.hl7.org/CodeSystem/v3-ObservationInterpretation",
                "display": "Low"
              }
            ]
          }
        ],
        "text": {
          "status": "generated",
          "div": "<div xmlns=\"http://www.w3.org/1999/xhtml\"><table class=\"hl7__eu__lab__report\"><tr><th>Test</th><th>20-Apr-2025</th><th>Reference Range</th><th>Unit</th></tr><tr><td>Carbon dioxide, total [Moles/volume] in Blood</td><td>21.1</td><td>22 - 29</td><td>L</td><td>mmol/L</td></tr></table></div>"
        },
        "status": "final",
        "subject": {
          "reference": "urn:uuid:6319c866-70ec-4a1b-97a1-92a1c947e44b",
          "display": "Olga Bąbel"
        },
        "effectiveDateTime": "2025-04-20T03:55:50Z",
        "specimen": {
          "reference": "urn:uuid:cecffe99-b22c-4740-ae67-17e0d0414f24"
        }
      }
    },
    {
      "fullUrl": "urn:uuid:7fa498cd-9ada-4ec7-bb2e-8eed86c49869",
      "resource": {
        "resourceType": "Device",
        "id": "7fa498cd-9ada-4ec7-bb2e-8eed86c49869",
        "deviceName": [
          {
            "name": "SYNDERAI Synthetic Generator",
            "type": "manufacturer-name"
          }
        ],
        "version": [
          {
            "value": "5.0"
          }
        ],
        "text": {
          "status": "generated",
          "div": "<div xmlns=\"http://www.w3.org/1999/xhtml\">SYNDERAI Synthetic Generator v5.0</div>"
        },
        "status": "active\"",
        "distinctIdentifier": "synderai-generator-50",
        "manufacturer": "SYNDERAI Project"
      }
    },
    {
      "fullUrl": "urn:uuid:ee20cd44-5bc9-4317-b2a5-748df259a4a6",
      "resource": {
        "resourceType": "Provenance",
        "id": "ee20cd44-5bc9-4317-b2a5-748df259a4a6",
        "target": [
          {
            "reference": "Patient/6319c866-70ec-4a1b-97a1-92a1c947e44b"
          },
          {
            "reference": "Bundle/b9ce024b-2220-4cfa-8169-be24ce844cc2"
          },
          {
            "reference": "Composition/f73a0f18-9524-4770-b964-dff3e2f298e1"
          },
          {
            "reference": "PractitionerRole/b771500a-ea99-4867-96d4-fad67553f5ca"
          },
          {
            "reference": "Practitioner/fa8c8885-0a4c-4850-b8fc-82292bbe62a1"
          },
          {
            "reference": "PractitionerRole/1410251a-e83c-4a0e-bf62-25f8e78497f7"
          },
          {
            "reference": "Organization/af9e4eb7-a7a8-4a9e-afdd-33c4c420f83d"
          }
        ],
        "activity": {
          "text": "Synthetic Example Data Generation"
        },
        "policy": [
          "https://synderai.net/synderai-synthetic-data-policy"
        ],
        "agent": [
          {
            "type": {
              "text": "author"
            },
            "who": {
              "reference": "Device/7fa498cd-9ada-4ec7-bb2e-8eed86c49869"
            }
          }
        ],
        "reason": [
          {
            "text": "Interoperability Testing and Training (non-clinical use)"
          }
        ],
        "text": {
          "status": "generated",
          "div": "<div xmlns=\"http://www.w3.org/1999/xhtml\">Provenance for SYNDERAI Synthetic Example Data Resource</div>"
        },
        "recorded": "2025-04-20T05:55:50Z"
      }
    },
    {
      "fullUrl": "urn:uuid:b771500a-ea99-4867-96d4-fad67553f5ca",
      "resource": {
        "resourceType": "PractitionerRole",
        "id": "b771500a-ea99-4867-96d4-fad67553f5ca",
        "meta": {
          "profile": [
            "http://hl7.eu/fhir/base/StructureDefinition/practitionerRole-eu"
          ]
        },
        "text": {
          "status": "generated",
          "div": "<div xmlns=\"http://www.w3.org/1999/xhtml\">Laboratory Role Id: b771500a-ea99-4867-96d4-fad67553f5ca</div>"
        },
        "practitioner": {
          "reference": "urn:uuid:fa8c8885-0a4c-4850-b8fc-82292bbe62a1"
        }
      }
    },
    {
      "fullUrl": "urn:uuid:fa8c8885-0a4c-4850-b8fc-82292bbe62a1",
      "resource": {
        "resourceType": "Practitioner",
        "id": "fa8c8885-0a4c-4850-b8fc-82292bbe62a1",
        "meta": {
          "profile": [
            "http://hl7.eu/fhir/base/StructureDefinition/practitioner-eu"
          ]
        },
        "identifier": [
          {
            "assigner": {
              "display": "HL7 Europe"
            },
            "system": "urn:oid:2.16.840.1.113883.2.51.999",
            "value": "4ff44a4d-1225-4e6e-805f-c188d448d6c9"
          }
        ],
        "name": [
          {
            "prefix": [
              "dr"
            ],
            "given": [
              "Ex"
            ],
            "family": "Ample"
          }
        ],
        "address": [
          {
            "line": [
              "Laboratoire Central Européenne",
              "Boulevard du Jardin Botanique 32"
            ],
            "postalCode": "1000",
            "city": "Brussels",
            "country": "Belgium"
          }
        ],
        "text": {
          "status": "generated",
          "div": "<div xmlns=\"http://www.w3.org/1999/xhtml\">Laboratory: Laboratoire Central Européenne, 1000 Brussels, Belgium</div>"
        }
      }
    }
  ],
  "type": "document",
  "timestamp": "2025-04-20T05:55:50Z"
}
