{
  "resourceType": "Bundle",
  "id": "4e118ef6-552d-4e0d-b85a-630d95a56473",
  "meta": {
    "profile": [
      "http://hl7.eu/fhir/laboratory/StructureDefinition/Bundle-eu-lab"
    ]
  },
  "identifier": {
    "assigner": {
      "display": "HL7 Europe"
    },
    "system": "urn:oid:2.16.840.1.113883.2.51.999",
    "value": "6fbbe227-3d2b-4a55-9ef9-7835d45c3473"
  },
  "entry": [
    {
      "fullUrl": "urn:uuid:b2cc58ec-17f8-4aba-a1fb-ad327ca5bc91",
      "resource": {
        "resourceType": "Composition",
        "id": "b2cc58ec-17f8-4aba-a1fb-ad327ca5bc91",
        "meta": {
          "profile": [
            "http://hl7.eu/fhir/laboratory/StructureDefinition/Composition-eu-lab"
          ]
        },
        "identifier": {
          "assigner": {
            "display": "HL7 Europe"
          },
          "system": "urn:oid:2.16.840.1.113883.2.51.999",
          "value": "aee96d17-8e65-4490-848f-159315a115ff"
        },
        "author": [
          {
            "reference": "urn:uuid:64849b56-fd00-4c1a-9e52-0cd906e9ce56"
          }
        ],
        "category": [
          {
            "coding": [
              {
                "code": "26436-6",
                "system": "http://loinc.org",
                "display": "Laboratory studies (set)"
              }
            ]
          }
        ],
        "type": {
          "coding": [
            {
              "code": "11502-2",
              "system": "http://loinc.org",
              "display": "Laboratory report"
            }
          ],
          "text": "Laboratory Report"
        },
        "section": [
          {
            "code": {
              "coding": [
                {
                  "code": "26436-6",
                  "system": "http://loinc.org",
                  "display": "Laboratory studies (set)"
                }
              ],
              "text": "Laboratory studies"
            },
            "section": [
              {
                "code": {
                  "coding": [
                    {
                      "code": "$18719-5",
                      "system": "http://loinc.org",
                      "display": "Chemistry studies (set)"
                    }
                  ],
                  "text": "Chemistry"
                },
                "entry": [
                  {
                    "reference": "urn:uuid:590a2bb1-70bf-42d6-b794-05412c4f51da"
                  },
                  {
                    "reference": "urn:uuid:f070c79a-07c1-474f-8f34-30087772a1c9"
                  },
                  {
                    "reference": "urn:uuid:459b8000-8fb6-4efd-842e-888ae5b730b4"
                  },
                  {
                    "reference": "urn:uuid:dd2fc09f-20ad-4cee-b850-a5a64e65f660"
                  },
                  {
                    "reference": "urn:uuid:18351ef3-22b7-49e5-8479-d51373bcbd5c"
                  },
                  {
                    "reference": "urn:uuid:e340dd17-7a31-401b-a2c0-5c0875a32817"
                  },
                  {
                    "reference": "urn:uuid:aa8b2e02-87e3-4658-9997-a003cd6d33f1"
                  },
                  {
                    "reference": "urn:uuid:f5467035-2b21-4a80-a152-b693646e9f74"
                  },
                  {
                    "reference": "urn:uuid:cf805aa3-05b6-4862-99c2-f9b82243b24a"
                  },
                  {
                    "reference": "urn:uuid:d78a1ca8-8d92-40c6-b478-12fedbc4c3b7"
                  },
                  {
                    "reference": "urn:uuid:4d7519b3-185d-4a96-b964-2a6c3909a5fc"
                  },
                  {
                    "reference": "urn:uuid:41f054ac-f745-48b1-9b91-50a4b942f6fd"
                  },
                  {
                    "reference": "urn:uuid:6ef280a2-26cf-483e-aa8f-17fb28c64d74"
                  },
                  {
                    "reference": "urn:uuid:9759b4eb-29c9-48b1-8414-400ad640ce8a"
                  },
                  {
                    "reference": "urn:uuid:e5dc0a20-9648-4510-97eb-c2e742b9b027"
                  },
                  {
                    "reference": "urn:uuid:c7b571fc-bfb6-4af6-86ce-32ab865b8a71"
                  },
                  {
                    "reference": "urn:uuid:77bc7952-e652-40aa-bfb3-7c4246458675"
                  },
                  {
                    "reference": "urn:uuid:30130b5b-e970-4a80-956b-a42ecf086a84"
                  }
                ],
                "text": {
                  "status": "generated",
                  "div": "<div xmlns=\"http://www.w3.org/1999/xhtml\"><h3>Chemistry</h3><table class=\"hl7__eu__lab__report\"><thead><tr><th>Test</th><th>03-APR-2025</th><th>Reference&#xA0;Range</th><th>Unit</th></tr></thead><tbody><tr><td>Glucose [Mass/volume] in Serum or Plasma</td><td>88.6</td><td>70 - 140</td><td>mg/dL</td></tr><tr><td>Urea nitrogen [Mass/volume] in Serum or Plasma</td><td>11.9</td><td>7 - 25</td><td>mg/dL</td></tr><tr><td>Creatinine [Mass/volume] in Serum or Plasma</td><td><strong>1.9 H</strong></td><td>0.9 - 1.3</td><td>mg/dL</td></tr><tr><td>Calcium [Mass/volume] in Serum or Plasma</td><td>8.8</td><td>8.5 - 10.5</td><td>mg/dL</td></tr><tr><td>Sodium [Moles/volume] in Serum or Plasma</td><td>139.8</td><td>135 - 145</td><td>mmol/L</td></tr><tr><td>Potassium [Moles/volume] in Serum or Plasma</td><td>3.7</td><td>3.5 - 5.3</td><td>mmol/L</td></tr><tr><td>Chloride [Moles/volume] in Serum or Plasma</td><td><strong>108.7 H</strong></td><td>98 - 107</td><td>mmol/L</td></tr><tr><td>Carbon dioxide, total [Moles/volume] in Serum or Plasma</td><td><strong>21.9 L</strong></td><td>22 - 29</td><td>mmol/L</td></tr><tr><td>Ketones [Presence] in Urine by Test strip</td><td>Urine ketone test = +</td><td></td><td></td></tr><tr><td>Hemoglobin A1c/Hemoglobin.total in Blood</td><td><strong>3.4 L</strong></td><td>4.5 - 6.4</td><td>%</td></tr><tr><td>Glucose [Mass/volume] in Blood</td><td>88.6</td><td>70 - 140</td><td>mg/dL</td></tr><tr><td>Urea nitrogen [Mass/volume] in Blood</td><td>11.9</td><td>7 - 25</td><td>mg/dL</td></tr><tr><td>Creatinine [Mass/volume] in Blood</td><td><strong>2.1 H</strong></td><td>0.9 - 1.3</td><td>mg/dL</td></tr><tr><td>Calcium [Mass/volume] in Blood</td><td>8.8</td><td>8.6 - 10.2</td><td>mg/dL</td></tr><tr><td>Sodium [Moles/volume] in Blood</td><td>139.8</td><td>135 - 145</td><td>mmol/L</td></tr><tr><td>Potassium [Moles/volume] in Blood</td><td>3.7</td><td>3.5 - 5.1</td><td>mmol/L</td></tr><tr><td>Chloride [Moles/volume] in Blood</td><td><strong>108.7 H</strong></td><td>98 - 108</td><td>mmol/L</td></tr><tr><td>Carbon dioxide, total [Moles/volume] in Blood</td><td><strong>21.9 L</strong></td><td>22 - 32</td><td>mmol/L</td></tr></tbody></table></div>"
                },
                "title": "Chemistry"
              },
              {
                "code": {
                  "coding": [
                    {
                      "code": "$18729-4",
                      "system": "http://loinc.org",
                      "display": "Urinalysis studies (set)"
                    }
                  ],
                  "text": "Urinalysis"
                },
                "entry": [
                  {
                    "reference": "urn:uuid:9f02c473-b2d3-43a0-aa23-17fefd8c5c75"
                  },
                  {
                    "reference": "urn:uuid:35f676ed-4436-4293-a0b4-932559252fec"
                  },
                  {
                    "reference": "urn:uuid:e7b42283-34df-4373-af5e-f774dc8d0ccb"
                  },
                  {
                    "reference": "urn:uuid:eec7b984-7dcc-4266-a168-a7ce070785d6"
                  },
                  {
                    "reference": "urn:uuid:38b4815a-e9c2-4fb5-801e-b7075020260c"
                  },
                  {
                    "reference": "urn:uuid:e5b2f070-fb5f-472c-893f-8b7bc32d9344"
                  },
                  {
                    "reference": "urn:uuid:f34af5cc-3484-4382-afde-1c6b5953e966"
                  },
                  {
                    "reference": "urn:uuid:6f661c3b-e22c-4d55-a1e0-30957a352de7"
                  },
                  {
                    "reference": "urn:uuid:f5c141ab-a43c-43cc-9426-fe88508a1f18"
                  },
                  {
                    "reference": "urn:uuid:2648e85d-8edc-4d71-a4d6-50a1bba00eb5"
                  },
                  {
                    "reference": "urn:uuid:c323eef7-5e79-4758-aae2-642cb73fdf5c"
                  },
                  {
                    "reference": "urn:uuid:8fed7528-d640-470d-9e8e-02721ac3f42f"
                  }
                ],
                "text": {
                  "status": "generated",
                  "div": "<div xmlns=\"http://www.w3.org/1999/xhtml\"><h3>Urinalysis</h3><table class=\"hl7__eu__lab__report\"><thead><tr><th>Test</th><th>03-APR-2025</th><th>Reference&#xA0;Range</th><th>Unit</th></tr></thead><tbody><tr><td>Glucose [Mass/volume] in Urine by Test strip</td><td><strong>1.6 H</strong></td><td>0.8 - 0</td><td>mg/dL</td></tr><tr><td>Glucose [Presence] in Urine by Test strip</td><td>++</td><td></td><td></td></tr><tr><td>Bilirubin.total [Mass/volume] in Urine by Test strip</td><td>0.8</td><td>0.2 - 1.5</td><td>mg/dL</td></tr><tr><td>Bilirubin.total [Presence] in Urine by Test strip</td><td>Finding of bilirubin in urine</td><td></td><td></td></tr><tr><td>Ketones [Mass/volume] in Urine by Test strip</td><td><strong>5.9 H</strong></td><td>0 - 4</td><td>mg/dL</td></tr><tr><td>Specific gravity of Urine by Test strip</td><td><strong>1.0 L</strong></td><td>1.01 - 1.03</td><td>{nominal}</td></tr><tr><td>pH of Urine by Test strip</td><td>7.0</td><td>4.5 - 7.5</td><td>pH</td></tr><tr><td>Protein [Mass/volume] in Urine by Test strip</td><td><strong>307.9 H</strong></td><td>0 - 150</td><td>mg/dL</td></tr><tr><td>Protein [Presence] in Urine by Test strip</td><td>Urine protein test = ++</td><td></td><td></td></tr><tr><td>Nitrite [Presence] in Urine by Test strip</td><td>Urine nitrite negative</td><td></td><td></td></tr><tr><td>Hemoglobin [Presence] in Urine by Test strip</td><td>Urine blood test = negative</td><td></td><td></td></tr><tr><td>Leukocyte esterase [Presence] in Urine by Test strip</td><td>Urine leukocyte test negative</td><td></td><td></td></tr></tbody></table></div>"
                },
                "title": "Urinalysis"
              },
              {
                "code": {
                  "coding": [
                    {
                      "code": "$LP7846-1",
                      "system": "http://loinc.org",
                      "display": "Specimen information"
                    }
                  ],
                  "text": "Specimen information"
                },
                "entry": [
                  {
                    "reference": "urn:uuid:0f256d7e-b37e-42b5-91da-670301e79591"
                  },
                  {
                    "reference": "urn:uuid:33300e58-fa0c-4390-a443-ee30d7607ad1"
                  },
                  {
                    "reference": "urn:uuid:218d9514-7b43-418e-ab84-66f50ff01377"
                  },
                  {
                    "reference": "urn:uuid:6000d056-52a2-47d8-9b14-758deb7637b0"
                  }
                ],
                "text": {
                  "status": "generated",
                  "div": "<div xmlns=\"http://www.w3.org/1999/xhtml\"><h3>Specimen information</h3><table class=\"hl7__eu__lab__report\"><thead><tr><th>Test</th><th>03-APR-2025</th><th>Specimen</th><th></th></tr></thead><tbody><tr><td>Appearance of Urine</td><td>Cloudy urine</td><td>Urine</td><td></td></tr><tr><td>Odor of Urine</td><td>Urine smell ammoniacal</td><td>Urine</td><td></td></tr><tr><td>Clarity of Urine</td><td>Translucent</td><td>Urine</td><td></td></tr><tr><td>Color of Urine</td><td>Brown color</td><td>Urine</td><td></td></tr></tbody></table></div>"
                },
                "title": "Specimen information"
              }
            ],
            "title": "Laboratory Report"
          },
          {
            "text": {
              "status": "generated",
              "div": "<div xmlns=\"http://www.w3.org/1999/xhtml\"><h3>Annotation</h3><table class=\"hl7__eu__lab__report\"><tr><th>Conclusion and Recommendations based on this report and previous findings known to us</th></tr><tr><td>The patient shows elevated creatinine, suggesting impaired renal function, and mild hyperchloremia with low total CO₂, indicating possible metabolic acidosis. Urinalysis reveals proteinuria, glucosuria, ketonuria, low specific gravity, and abnormal urine appearance, raising concern for renal tubular dysfunction or possible diabetic ketoacidosis, though HbA1c is low. No evidence of urinary infection. Recommend further nephrological evaluation and assessment for underlying metabolic or endocrine disorders.</td></tr></table></div>"
            },
            "code": {
              "coding": [
                {
                  "system": "http://loinc.org",
                  "code": "48767-8",
                  "display": "Annotation comment"
                }
              ]
            },
            "title": "Annotation comment"
          }
        ],
        "status": "final",
        "subject": {
          "reference": "urn:uuid:7d3a2b0c-5be9-4a3e-8adf-29f1d009836c",
          "display": "Pelayo Casal"
        },
        "date": "2025-04-03T07:38:59Z",
        "title": "Laboratory Report",
        "confidentiality": "N"
      }
    },
    {
      "fullUrl": "urn:uuid:09ac5a00-87af-4a35-9a31-3b15ac13c02b",
      "resource": {
        "resourceType": "DiagnosticReport",
        "id": "09ac5a00-87af-4a35-9a31-3b15ac13c02b",
        "meta": {
          "profile": [
            "http://hl7.eu/fhir/laboratory/StructureDefinition/DiagnosticReport-eu-lab"
          ]
        },
        "identifier": [
          {
            "assigner": {
              "display": "HL7 Europe"
            },
            "system": "urn:oid:2.16.840.1.113883.2.51.999",
            "value": "96079a11-8834-4fe7-a6a6-972520c358df"
          }
        ],
        "extension": [
          {
            "url": "http://hl7.org/fhir/5.0/StructureDefinition/extension-DiagnosticReport.composition",
            "valueReference": {
              "reference": "urn:uuid:aee96d17-8e65-4490-848f-159315a115ff"
            }
          }
        ],
        "category": [
          {
            "coding": [
              {
                "code": "26436-6",
                "system": "http://loinc.org",
                "display": "Laboratory studies (set)"
              }
            ]
          }
        ],
        "specimen": [
          {
            "reference": "urn:uuid:0a5b2e94-3f86-4f28-9c99-0b364dad26ef"
          },
          {
            "reference": "urn:uuid:3aa775eb-3b5e-4757-b7a8-7b28bbe89696"
          },
          {
            "reference": "urn:uuid:9912add1-ce41-48d4-928d-b946c622f6f3"
          }
        ],
        "result": [
          {
            "reference": "urn:uuid:590a2bb1-70bf-42d6-b794-05412c4f51da"
          },
          {
            "reference": "urn:uuid:f070c79a-07c1-474f-8f34-30087772a1c9"
          },
          {
            "reference": "urn:uuid:459b8000-8fb6-4efd-842e-888ae5b730b4"
          },
          {
            "reference": "urn:uuid:dd2fc09f-20ad-4cee-b850-a5a64e65f660"
          },
          {
            "reference": "urn:uuid:18351ef3-22b7-49e5-8479-d51373bcbd5c"
          },
          {
            "reference": "urn:uuid:e340dd17-7a31-401b-a2c0-5c0875a32817"
          },
          {
            "reference": "urn:uuid:aa8b2e02-87e3-4658-9997-a003cd6d33f1"
          },
          {
            "reference": "urn:uuid:f5467035-2b21-4a80-a152-b693646e9f74"
          },
          {
            "reference": "urn:uuid:0f256d7e-b37e-42b5-91da-670301e79591"
          },
          {
            "reference": "urn:uuid:33300e58-fa0c-4390-a443-ee30d7607ad1"
          },
          {
            "reference": "urn:uuid:218d9514-7b43-418e-ab84-66f50ff01377"
          },
          {
            "reference": "urn:uuid:6000d056-52a2-47d8-9b14-758deb7637b0"
          },
          {
            "reference": "urn:uuid:9f02c473-b2d3-43a0-aa23-17fefd8c5c75"
          },
          {
            "reference": "urn:uuid:35f676ed-4436-4293-a0b4-932559252fec"
          },
          {
            "reference": "urn:uuid:e7b42283-34df-4373-af5e-f774dc8d0ccb"
          },
          {
            "reference": "urn:uuid:eec7b984-7dcc-4266-a168-a7ce070785d6"
          },
          {
            "reference": "urn:uuid:38b4815a-e9c2-4fb5-801e-b7075020260c"
          },
          {
            "reference": "urn:uuid:cf805aa3-05b6-4862-99c2-f9b82243b24a"
          },
          {
            "reference": "urn:uuid:e5b2f070-fb5f-472c-893f-8b7bc32d9344"
          },
          {
            "reference": "urn:uuid:f34af5cc-3484-4382-afde-1c6b5953e966"
          },
          {
            "reference": "urn:uuid:6f661c3b-e22c-4d55-a1e0-30957a352de7"
          },
          {
            "reference": "urn:uuid:f5c141ab-a43c-43cc-9426-fe88508a1f18"
          },
          {
            "reference": "urn:uuid:2648e85d-8edc-4d71-a4d6-50a1bba00eb5"
          },
          {
            "reference": "urn:uuid:c323eef7-5e79-4758-aae2-642cb73fdf5c"
          },
          {
            "reference": "urn:uuid:8fed7528-d640-470d-9e8e-02721ac3f42f"
          },
          {
            "reference": "urn:uuid:d78a1ca8-8d92-40c6-b478-12fedbc4c3b7"
          },
          {
            "reference": "urn:uuid:4d7519b3-185d-4a96-b964-2a6c3909a5fc"
          },
          {
            "reference": "urn:uuid:41f054ac-f745-48b1-9b91-50a4b942f6fd"
          },
          {
            "reference": "urn:uuid:6ef280a2-26cf-483e-aa8f-17fb28c64d74"
          },
          {
            "reference": "urn:uuid:9759b4eb-29c9-48b1-8414-400ad640ce8a"
          },
          {
            "reference": "urn:uuid:e5dc0a20-9648-4510-97eb-c2e742b9b027"
          },
          {
            "reference": "urn:uuid:c7b571fc-bfb6-4af6-86ce-32ab865b8a71"
          },
          {
            "reference": "urn:uuid:77bc7952-e652-40aa-bfb3-7c4246458675"
          },
          {
            "reference": "urn:uuid:30130b5b-e970-4a80-956b-a42ecf086a84"
          }
        ],
        "status": "registered",
        "code": {
          "coding": [
            {
              "code": "11502-2",
              "system": "http://loinc.org",
              "display": "Laboratory report"
            }
          ]
        },
        "subject": {
          "reference": "urn:uuid:7d3a2b0c-5be9-4a3e-8adf-29f1d009836c",
          "display": "Pelayo Casal"
        }
      }
    },
    {
      "fullUrl": "urn:uuid:7d3a2b0c-5be9-4a3e-8adf-29f1d009836c",
      "resource": {
        "resourceType": "Patient",
        "id": "7d3a2b0c-5be9-4a3e-8adf-29f1d009836c",
        "meta": {
          "security": [
            {
              "system": "http://terminology.hl7.org/CodeSystem/v3-ActReason",
              "code": "HTEST"
            },
            {
              "system": "http://terminology.hl7.org/CodeSystem/v3-ActReason",
              "code": "TRAIN"
            }
          ],
          "tag": [
            {
              "system": "https://synderai.net/fhir/CodeSystem/tags",
              "code": "synthetic",
              "display": "SYNDERAI Synthetic data"
            }
          ],
          "profile": [
            "http://hl7.eu/fhir/base/StructureDefinition/patient-eu-core"
          ]
        },
        "identifier": [
          {
            "type": {
              "coding": [
                {
                  "code": "PT",
                  "system": "http://terminology.hl7.org/CodeSystem/v2-0203"
                }
              ]
            },
            "system": "http://ec.europa.eu/identifier/eci",
            "value": "7707-510028-7"
          },
          {
            "type": {
              "coding": [
                {
                  "code": "MR",
                  "system": "http://terminology.hl7.org/CodeSystem/v2-0203"
                }
              ]
            },
            "system": "http://local.setting.eu/identifier",
            "value": "d88e82c6-df33-82d2-8538-f8b57da06491"
          }
        ],
        "name": [
          {
            "family": "Casal"
          },
          {
            "given": [
              "Pelayo"
            ]
          },
          {
            "text": "Pelayo Casal"
          }
        ],
        "address": [
          {
            "line": [
              "Callejón de Ignacio Pedrosa 67 Apt. 68 "
            ],
            "use": "home",
            "type": "physical",
            "postalCode": "35001",
            "city": "Las Palmas",
            "country": "Spain"
          }
        ],
        "telecom": [
          {
            "system": "phone",
            "value": "+34 875724898"
          }
        ],
        "extension": [
          {
            "url": "http://hl7.org/fhir/StructureDefinition/patient-nationality",
            "valueCodeableConcept": {
              "coding": [
                {
                  "code": "ES",
                  "system": "http://hl7.org/fhir/ValueSet/country"
                }
              ]
            }
          }
        ],
        "text": {
          "status": "generated",
          "div": "<div xmlns=\"http://www.w3.org/1999/xhtml\"><table class=\"hl7__ips\"><tr><td>Pelayo Casal</td><td>male</td><td>19-Apr-1940</td></tr></table></div>"
        },
        "gender": "male",
        "birthDate": "1940-04-19"
      }
    },
    {
      "fullUrl": "urn:uuid:bc8bc627-bd1b-4d4f-90fe-429f715c4aa7",
      "resource": {
        "resourceType": "ServiceRequest",
        "id": "bc8bc627-bd1b-4d4f-90fe-429f715c4aa7",
        "meta": {
          "profile": [
            "http://hl7.eu/fhir/laboratory/StructureDefinition/ServiceRequest-eu-lab"
          ]
        },
        "identifier": [
          {
            "system": "http://example.org",
            "value": "496b36a5-6ad9-47e2-a01e-144774066a12"
          }
        ],
        "specimen": [
          {
            "reference": "urn:uuid:0a5b2e94-3f86-4f28-9c99-0b364dad26ef"
          },
          {
            "reference": "urn:uuid:3aa775eb-3b5e-4757-b7a8-7b28bbe89696"
          },
          {
            "reference": "urn:uuid:9912add1-ce41-48d4-928d-b946c622f6f3"
          }
        ],
        "reasonCode": [
          {
            "coding": [
              {
                "code": "431856006",
                "system": "http://snomed.info/sct",
                "display": "Chronic kidney disease stage 2"
              }
            ]
          },
          {
            "coding": [
              {
                "code": "90781000119102",
                "system": "http://snomed.info/sct",
                "display": "Microalbuminuria due to type 2 diabetes mellitus"
              }
            ]
          },
          {
            "coding": [
              {
                "code": "127013003",
                "system": "http://snomed.info/sct",
                "display": "Disorder of kidney due to diabetes mellitus"
              }
            ]
          },
          {
            "coding": [
              {
                "code": "431855005",
                "system": "http://snomed.info/sct",
                "display": "Chronic kidney disease stage 1"
              }
            ]
          },
          {
            "coding": [
              {
                "code": "64859006",
                "system": "http://snomed.info/sct",
                "display": "Osteoporosis"
              }
            ]
          },
          {
            "coding": [
              {
                "code": "414545008",
                "system": "http://snomed.info/sct",
                "display": "Ischemic heart disease"
              }
            ]
          },
          {
            "coding": [
              {
                "code": "237602007",
                "system": "http://snomed.info/sct",
                "display": "Metabolic syndrome X"
              }
            ]
          },
          {
            "coding": [
              {
                "code": "59621000",
                "system": "http://snomed.info/sct",
                "display": "Essential hypertension"
              }
            ]
          },
          {
            "coding": [
              {
                "code": "271737000",
                "system": "http://snomed.info/sct",
                "display": "Anemia"
              }
            ]
          },
          {
            "coding": [
              {
                "code": "15777000",
                "system": "http://snomed.info/sct",
                "display": "Prediabetes"
              }
            ]
          }
        ],
        "status": "active",
        "intent": "order",
        "code": {
          "coding": [
            {
              "code": "108252007",
              "system": "http://snomed.info/sct",
              "display": "Laboratory procedure"
            }
          ]
        },
        "subject": {
          "reference": "urn:uuid:7d3a2b0c-5be9-4a3e-8adf-29f1d009836c",
          "display": "Pelayo Casal"
        },
        "requester": {
          "reference": "urn:uuid:5d043239-9c26-4dfe-b00c-d3aad771c6ac"
        }
      }
    },
    {
      "fullUrl": "urn:uuid:5d043239-9c26-4dfe-b00c-d3aad771c6ac",
      "resource": {
        "resourceType": "PractitionerRole",
        "id": "5d043239-9c26-4dfe-b00c-d3aad771c6ac",
        "meta": {
          "profile": [
            "http://hl7.eu/fhir/base/StructureDefinition/practitionerRole-eu"
          ]
        },
        "text": {
          "status": "generated",
          "div": "<div xmlns=\"http://www.w3.org/1999/xhtml\">Provider Role Id: 5d043239-9c26-4dfe-b00c-d3aad771c6ac</div>"
        },
        "organization": {
          "reference": "urn:uuid:23577095-7883-4bb5-9e1a-d773144c91ef"
        }
      }
    },
    {
      "fullUrl": "urn:uuid:23577095-7883-4bb5-9e1a-d773144c91ef",
      "resource": {
        "resourceType": "Organization",
        "id": "23577095-7883-4bb5-9e1a-d773144c91ef",
        "meta": {
          "profile": [
            "http://hl7.eu/fhir/base/StructureDefinition/organization-eu"
          ]
        },
        "identifier": [
          {
            "assigner": {
              "display": "HL7 Europe"
            },
            "system": "urn:oid:2.16.840.1.113883.2.51.999",
            "value": "2f6dae36-e59d-45e0-bcf2-64f40fa49e83"
          }
        ],
        "address": [
          {
            "country": "Spain"
          }
        ],
        "text": {
          "status": "generated",
          "div": "<div xmlns=\"http://www.w3.org/1999/xhtml\">Provider Organization: Centro de Salud de Guanarteme</div>"
        },
        "name": "Centro de Salud de Guanarteme"
      }
    },
    {
      "fullUrl": "urn:uuid:0a5b2e94-3f86-4f28-9c99-0b364dad26ef",
      "resource": {
        "resourceType": "Specimen",
        "id": "0a5b2e94-3f86-4f28-9c99-0b364dad26ef",
        "meta": {
          "profile": [
            "http://hl7.eu/fhir/laboratory/StructureDefinition/Specimen-eu-lab"
          ]
        },
        "collection": {
          "collectedDateTime": "2025-04-03"
        },
        "text": {
          "status": "generated",
          "div": "<div xmlns=\"http://www.w3.org/1999/xhtml\"><table class=\"hl7__eu__lab__report\"><tr><th>Specimen</th><th>Collection Date</th></tr><tr><td>Acellular blood (serum or plasma) specimen</td><td><span class=\"nb\">03-Apr-2025</span></td></tr></table></div>"
        },
        "type": {
          "coding": [
            {
              "code": "122592007",
              "system": "http://snomed.info/sct",
              "display": "Acellular blood (serum or plasma) specimen"
            }
          ]
        }
      }
    },
    {
      "fullUrl": "urn:uuid:3aa775eb-3b5e-4757-b7a8-7b28bbe89696",
      "resource": {
        "resourceType": "Specimen",
        "id": "3aa775eb-3b5e-4757-b7a8-7b28bbe89696",
        "meta": {
          "profile": [
            "http://hl7.eu/fhir/laboratory/StructureDefinition/Specimen-eu-lab"
          ]
        },
        "collection": {
          "collectedDateTime": "2025-04-03"
        },
        "text": {
          "status": "generated",
          "div": "<div xmlns=\"http://www.w3.org/1999/xhtml\"><table class=\"hl7__eu__lab__report\"><tr><th>Specimen</th><th>Collection Date</th></tr><tr><td>Urine specimen</td><td><span class=\"nb\">03-Apr-2025</span></td></tr></table></div>"
        },
        "type": {
          "coding": [
            {
              "code": "122575003",
              "system": "http://snomed.info/sct",
              "display": "Urine specimen"
            }
          ]
        }
      }
    },
    {
      "fullUrl": "urn:uuid:9912add1-ce41-48d4-928d-b946c622f6f3",
      "resource": {
        "resourceType": "Specimen",
        "id": "9912add1-ce41-48d4-928d-b946c622f6f3",
        "meta": {
          "profile": [
            "http://hl7.eu/fhir/laboratory/StructureDefinition/Specimen-eu-lab"
          ]
        },
        "collection": {
          "collectedDateTime": "2025-04-03"
        },
        "text": {
          "status": "generated",
          "div": "<div xmlns=\"http://www.w3.org/1999/xhtml\"><table class=\"hl7__eu__lab__report\"><tr><th>Specimen</th><th>Collection Date</th></tr><tr><td>Whole blood specimen (specimen)</td><td><span class=\"nb\">03-Apr-2025</span></td></tr></table></div>"
        },
        "type": {
          "coding": [
            {
              "code": "258580003",
              "system": "http://snomed.info/sct",
              "display": "Whole blood specimen (specimen)"
            }
          ]
        }
      }
    },
    {
      "fullUrl": "urn:uuid:590a2bb1-70bf-42d6-b794-05412c4f51da",
      "resource": {
        "resourceType": "Observation",
        "id": "590a2bb1-70bf-42d6-b794-05412c4f51da",
        "meta": {
          "profile": [
            "http://hl7.eu/fhir/laboratory/StructureDefinition/Observation-resultslab-eu-lab"
          ]
        },
        "performer": [
          {
            "display": "The Central European Lab"
          }
        ],
        "category": [
          {
            "coding": [
              {
                "system": "http://terminology.hl7.org/CodeSystem/observation-category",
                "code": "laboratory"
              }
            ]
          }
        ],
        "code": {
          "coding": [
            {
              "code": "2345-7",
              "system": "http://loinc.org",
              "display": "Glucose [Mass/volume] in Serum or Plasma"
            }
          ],
          "text": "Glucose [Mass/volume] in Serum or Plasma"
        },
        "valueQuantity": {
          "system": "http://unitsofmeasure.org",
          "value": 88.6,
          "unit": "mg/dL",
          "code": "mg/dL"
        },
        "referenceRange": [
          {
            "low": {
              "value": 70,
              "code": "mg/dL",
              "system": "http://unitsofmeasure.org"
            }
          },
          {
            "high": {
              "value": 140,
              "code": "mg/dL",
              "system": "http://unitsofmeasure.org"
            }
          }
        ],
        "text": {
          "status": "generated",
          "div": "<div xmlns=\"http://www.w3.org/1999/xhtml\"><table class=\"hl7__eu__lab__report\"><tr><th>Test</th><th>03-Apr-2025</th><th>Reference&#xA0;Range</th><th>Unit</th></tr><tr><td>Glucose [Mass/volume] in Serum or Plasma</td><td>88.6</td><td>70 - 140</td><td></td><td>mg/dL</td></tr></table></div>"
        },
        "status": "final",
        "subject": {
          "reference": "urn:uuid:7d3a2b0c-5be9-4a3e-8adf-29f1d009836c",
          "display": "Pelayo Casal"
        },
        "effectiveDateTime": "2025-04-03T05:38:59Z",
        "specimen": {
          "reference": "urn:uuid:0a5b2e94-3f86-4f28-9c99-0b364dad26ef"
        }
      }
    },
    {
      "fullUrl": "urn:uuid:f070c79a-07c1-474f-8f34-30087772a1c9",
      "resource": {
        "resourceType": "Observation",
        "id": "f070c79a-07c1-474f-8f34-30087772a1c9",
        "meta": {
          "profile": [
            "http://hl7.eu/fhir/laboratory/StructureDefinition/Observation-resultslab-eu-lab"
          ]
        },
        "performer": [
          {
            "display": "The Central European Lab"
          }
        ],
        "category": [
          {
            "coding": [
              {
                "system": "http://terminology.hl7.org/CodeSystem/observation-category",
                "code": "laboratory"
              }
            ]
          }
        ],
        "code": {
          "coding": [
            {
              "code": "3094-0",
              "system": "http://loinc.org",
              "display": "Urea nitrogen [Mass/volume] in Serum or Plasma"
            }
          ],
          "text": "Urea nitrogen [Mass/volume] in Serum or Plasma"
        },
        "valueQuantity": {
          "system": "http://unitsofmeasure.org",
          "value": 11.9,
          "unit": "mg/dL",
          "code": "mg/dL"
        },
        "referenceRange": [
          {
            "low": {
              "value": 7,
              "code": "mg/dL",
              "system": "http://unitsofmeasure.org"
            }
          },
          {
            "high": {
              "value": 25,
              "code": "mg/dL",
              "system": "http://unitsofmeasure.org"
            }
          }
        ],
        "text": {
          "status": "generated",
          "div": "<div xmlns=\"http://www.w3.org/1999/xhtml\"><table class=\"hl7__eu__lab__report\"><tr><th>Test</th><th>03-Apr-2025</th><th>Reference&#xA0;Range</th><th>Unit</th></tr><tr><td>Urea nitrogen [Mass/volume] in Serum or Plasma</td><td>11.9</td><td>7 - 25</td><td></td><td>mg/dL</td></tr></table></div>"
        },
        "status": "final",
        "subject": {
          "reference": "urn:uuid:7d3a2b0c-5be9-4a3e-8adf-29f1d009836c",
          "display": "Pelayo Casal"
        },
        "effectiveDateTime": "2025-04-03T05:38:59Z",
        "specimen": {
          "reference": "urn:uuid:0a5b2e94-3f86-4f28-9c99-0b364dad26ef"
        }
      }
    },
    {
      "fullUrl": "urn:uuid:459b8000-8fb6-4efd-842e-888ae5b730b4",
      "resource": {
        "resourceType": "Observation",
        "id": "459b8000-8fb6-4efd-842e-888ae5b730b4",
        "meta": {
          "profile": [
            "http://hl7.eu/fhir/laboratory/StructureDefinition/Observation-resultslab-eu-lab"
          ]
        },
        "performer": [
          {
            "display": "The Central European Lab"
          }
        ],
        "category": [
          {
            "coding": [
              {
                "system": "http://terminology.hl7.org/CodeSystem/observation-category",
                "code": "laboratory"
              }
            ]
          }
        ],
        "code": {
          "coding": [
            {
              "code": "2160-0",
              "system": "http://loinc.org",
              "display": "Creatinine [Mass/volume] in Serum or Plasma"
            }
          ],
          "text": "Creatinine [Mass/volume] in Serum or Plasma"
        },
        "valueQuantity": {
          "system": "http://unitsofmeasure.org",
          "value": 1.9,
          "unit": "mg/dL",
          "code": "mg/dL"
        },
        "referenceRange": [
          {
            "low": {
              "value": 0.9,
              "code": "mg/dL",
              "system": "http://unitsofmeasure.org"
            }
          },
          {
            "high": {
              "value": 1.3,
              "code": "mg/dL",
              "system": "http://unitsofmeasure.org"
            }
          }
        ],
        "interpretation": [
          {
            "coding": [
              {
                "code": "H",
                "system": "http://terminology.hl7.org/CodeSystem/v3-ObservationInterpretation",
                "display": "High"
              }
            ]
          }
        ],
        "text": {
          "status": "generated",
          "div": "<div xmlns=\"http://www.w3.org/1999/xhtml\"><table class=\"hl7__eu__lab__report\"><tr><th>Test</th><th>03-Apr-2025</th><th>Reference&#xA0;Range</th><th>Unit</th></tr><tr><td>Creatinine [Mass/volume] in Serum or Plasma</td><td>1.9</td><td>0.9 - 1.3</td><td>H</td><td>mg/dL</td></tr></table></div>"
        },
        "status": "final",
        "subject": {
          "reference": "urn:uuid:7d3a2b0c-5be9-4a3e-8adf-29f1d009836c",
          "display": "Pelayo Casal"
        },
        "effectiveDateTime": "2025-04-03T05:38:59Z",
        "specimen": {
          "reference": "urn:uuid:0a5b2e94-3f86-4f28-9c99-0b364dad26ef"
        }
      }
    },
    {
      "fullUrl": "urn:uuid:dd2fc09f-20ad-4cee-b850-a5a64e65f660",
      "resource": {
        "resourceType": "Observation",
        "id": "dd2fc09f-20ad-4cee-b850-a5a64e65f660",
        "meta": {
          "profile": [
            "http://hl7.eu/fhir/laboratory/StructureDefinition/Observation-resultslab-eu-lab"
          ]
        },
        "performer": [
          {
            "display": "The Central European Lab"
          }
        ],
        "category": [
          {
            "coding": [
              {
                "system": "http://terminology.hl7.org/CodeSystem/observation-category",
                "code": "laboratory"
              }
            ]
          }
        ],
        "code": {
          "coding": [
            {
              "code": "17861-6",
              "system": "http://loinc.org",
              "display": "Calcium [Mass/volume] in Serum or Plasma"
            }
          ],
          "text": "Calcium [Mass/volume] in Serum or Plasma"
        },
        "valueQuantity": {
          "system": "http://unitsofmeasure.org",
          "value": 8.8,
          "unit": "mg/dL",
          "code": "mg/dL"
        },
        "referenceRange": [
          {
            "low": {
              "value": 8.5,
              "code": "mg/dL",
              "system": "http://unitsofmeasure.org"
            }
          },
          {
            "high": {
              "value": 10.5,
              "code": "mg/dL",
              "system": "http://unitsofmeasure.org"
            }
          }
        ],
        "text": {
          "status": "generated",
          "div": "<div xmlns=\"http://www.w3.org/1999/xhtml\"><table class=\"hl7__eu__lab__report\"><tr><th>Test</th><th>03-Apr-2025</th><th>Reference&#xA0;Range</th><th>Unit</th></tr><tr><td>Calcium [Mass/volume] in Serum or Plasma</td><td>8.8</td><td>8.5 - 10.5</td><td></td><td>mg/dL</td></tr></table></div>"
        },
        "status": "final",
        "subject": {
          "reference": "urn:uuid:7d3a2b0c-5be9-4a3e-8adf-29f1d009836c",
          "display": "Pelayo Casal"
        },
        "effectiveDateTime": "2025-04-03T05:38:59Z",
        "specimen": {
          "reference": "urn:uuid:0a5b2e94-3f86-4f28-9c99-0b364dad26ef"
        }
      }
    },
    {
      "fullUrl": "urn:uuid:18351ef3-22b7-49e5-8479-d51373bcbd5c",
      "resource": {
        "resourceType": "Observation",
        "id": "18351ef3-22b7-49e5-8479-d51373bcbd5c",
        "meta": {
          "profile": [
            "http://hl7.eu/fhir/laboratory/StructureDefinition/Observation-resultslab-eu-lab"
          ]
        },
        "performer": [
          {
            "display": "The Central European Lab"
          }
        ],
        "category": [
          {
            "coding": [
              {
                "system": "http://terminology.hl7.org/CodeSystem/observation-category",
                "code": "laboratory"
              }
            ]
          }
        ],
        "code": {
          "coding": [
            {
              "code": "2951-2",
              "system": "http://loinc.org",
              "display": "Sodium [Moles/volume] in Serum or Plasma"
            }
          ],
          "text": "Sodium [Moles/volume] in Serum or Plasma"
        },
        "valueQuantity": {
          "system": "http://unitsofmeasure.org",
          "value": 139.8,
          "unit": "mmol/L",
          "code": "mmol/L"
        },
        "referenceRange": [
          {
            "low": {
              "value": 135,
              "code": "mmol/L",
              "system": "http://unitsofmeasure.org"
            }
          },
          {
            "high": {
              "value": 145,
              "code": "mmol/L",
              "system": "http://unitsofmeasure.org"
            }
          }
        ],
        "text": {
          "status": "generated",
          "div": "<div xmlns=\"http://www.w3.org/1999/xhtml\"><table class=\"hl7__eu__lab__report\"><tr><th>Test</th><th>03-Apr-2025</th><th>Reference&#xA0;Range</th><th>Unit</th></tr><tr><td>Sodium [Moles/volume] in Serum or Plasma</td><td>139.8</td><td>135 - 145</td><td></td><td>mmol/L</td></tr></table></div>"
        },
        "status": "final",
        "subject": {
          "reference": "urn:uuid:7d3a2b0c-5be9-4a3e-8adf-29f1d009836c",
          "display": "Pelayo Casal"
        },
        "effectiveDateTime": "2025-04-03T05:38:59Z",
        "specimen": {
          "reference": "urn:uuid:0a5b2e94-3f86-4f28-9c99-0b364dad26ef"
        }
      }
    },
    {
      "fullUrl": "urn:uuid:e340dd17-7a31-401b-a2c0-5c0875a32817",
      "resource": {
        "resourceType": "Observation",
        "id": "e340dd17-7a31-401b-a2c0-5c0875a32817",
        "meta": {
          "profile": [
            "http://hl7.eu/fhir/laboratory/StructureDefinition/Observation-resultslab-eu-lab"
          ]
        },
        "performer": [
          {
            "display": "The Central European Lab"
          }
        ],
        "category": [
          {
            "coding": [
              {
                "system": "http://terminology.hl7.org/CodeSystem/observation-category",
                "code": "laboratory"
              }
            ]
          }
        ],
        "code": {
          "coding": [
            {
              "code": "2823-3",
              "system": "http://loinc.org",
              "display": "Potassium [Moles/volume] in Serum or Plasma"
            }
          ],
          "text": "Potassium [Moles/volume] in Serum or Plasma"
        },
        "valueQuantity": {
          "system": "http://unitsofmeasure.org",
          "value": 3.7,
          "unit": "mmol/L",
          "code": "mmol/L"
        },
        "referenceRange": [
          {
            "low": {
              "value": 3.5,
              "code": "mmol/L",
              "system": "http://unitsofmeasure.org"
            }
          },
          {
            "high": {
              "value": 5.3,
              "code": "mmol/L",
              "system": "http://unitsofmeasure.org"
            }
          }
        ],
        "text": {
          "status": "generated",
          "div": "<div xmlns=\"http://www.w3.org/1999/xhtml\"><table class=\"hl7__eu__lab__report\"><tr><th>Test</th><th>03-Apr-2025</th><th>Reference&#xA0;Range</th><th>Unit</th></tr><tr><td>Potassium [Moles/volume] in Serum or Plasma</td><td>3.7</td><td>3.5 - 5.3</td><td></td><td>mmol/L</td></tr></table></div>"
        },
        "status": "final",
        "subject": {
          "reference": "urn:uuid:7d3a2b0c-5be9-4a3e-8adf-29f1d009836c",
          "display": "Pelayo Casal"
        },
        "effectiveDateTime": "2025-04-03T05:38:59Z",
        "specimen": {
          "reference": "urn:uuid:0a5b2e94-3f86-4f28-9c99-0b364dad26ef"
        }
      }
    },
    {
      "fullUrl": "urn:uuid:aa8b2e02-87e3-4658-9997-a003cd6d33f1",
      "resource": {
        "resourceType": "Observation",
        "id": "aa8b2e02-87e3-4658-9997-a003cd6d33f1",
        "meta": {
          "profile": [
            "http://hl7.eu/fhir/laboratory/StructureDefinition/Observation-resultslab-eu-lab"
          ]
        },
        "performer": [
          {
            "display": "The Central European Lab"
          }
        ],
        "category": [
          {
            "coding": [
              {
                "system": "http://terminology.hl7.org/CodeSystem/observation-category",
                "code": "laboratory"
              }
            ]
          }
        ],
        "code": {
          "coding": [
            {
              "code": "2075-0",
              "system": "http://loinc.org",
              "display": "Chloride [Moles/volume] in Serum or Plasma"
            }
          ],
          "text": "Chloride [Moles/volume] in Serum or Plasma"
        },
        "valueQuantity": {
          "system": "http://unitsofmeasure.org",
          "value": 108.7,
          "unit": "mmol/L",
          "code": "mmol/L"
        },
        "referenceRange": [
          {
            "low": {
              "value": 98,
              "code": "mmol/L",
              "system": "http://unitsofmeasure.org"
            }
          },
          {
            "high": {
              "value": 107,
              "code": "mmol/L",
              "system": "http://unitsofmeasure.org"
            }
          }
        ],
        "interpretation": [
          {
            "coding": [
              {
                "code": "H",
                "system": "http://terminology.hl7.org/CodeSystem/v3-ObservationInterpretation",
                "display": "High"
              }
            ]
          }
        ],
        "text": {
          "status": "generated",
          "div": "<div xmlns=\"http://www.w3.org/1999/xhtml\"><table class=\"hl7__eu__lab__report\"><tr><th>Test</th><th>03-Apr-2025</th><th>Reference&#xA0;Range</th><th>Unit</th></tr><tr><td>Chloride [Moles/volume] in Serum or Plasma</td><td>108.7</td><td>98 - 107</td><td>H</td><td>mmol/L</td></tr></table></div>"
        },
        "status": "final",
        "subject": {
          "reference": "urn:uuid:7d3a2b0c-5be9-4a3e-8adf-29f1d009836c",
          "display": "Pelayo Casal"
        },
        "effectiveDateTime": "2025-04-03T05:38:59Z",
        "specimen": {
          "reference": "urn:uuid:0a5b2e94-3f86-4f28-9c99-0b364dad26ef"
        }
      }
    },
    {
      "fullUrl": "urn:uuid:f5467035-2b21-4a80-a152-b693646e9f74",
      "resource": {
        "resourceType": "Observation",
        "id": "f5467035-2b21-4a80-a152-b693646e9f74",
        "meta": {
          "profile": [
            "http://hl7.eu/fhir/laboratory/StructureDefinition/Observation-resultslab-eu-lab"
          ]
        },
        "performer": [
          {
            "display": "The Central European Lab"
          }
        ],
        "category": [
          {
            "coding": [
              {
                "system": "http://terminology.hl7.org/CodeSystem/observation-category",
                "code": "laboratory"
              }
            ]
          }
        ],
        "code": {
          "coding": [
            {
              "code": "2028-9",
              "system": "http://loinc.org",
              "display": "Carbon dioxide, total [Moles/volume] in Serum or Plasma"
            }
          ],
          "text": "Carbon dioxide, total [Moles/volume] in Serum or Plasma"
        },
        "valueQuantity": {
          "system": "http://unitsofmeasure.org",
          "value": 21.9,
          "unit": "mmol/L",
          "code": "mmol/L"
        },
        "referenceRange": [
          {
            "low": {
              "value": 22,
              "code": "mmol/L",
              "system": "http://unitsofmeasure.org"
            }
          },
          {
            "high": {
              "value": 29,
              "code": "mmol/L",
              "system": "http://unitsofmeasure.org"
            }
          }
        ],
        "interpretation": [
          {
            "coding": [
              {
                "code": "L",
                "system": "http://terminology.hl7.org/CodeSystem/v3-ObservationInterpretation",
                "display": "Low"
              }
            ]
          }
        ],
        "text": {
          "status": "generated",
          "div": "<div xmlns=\"http://www.w3.org/1999/xhtml\"><table class=\"hl7__eu__lab__report\"><tr><th>Test</th><th>03-Apr-2025</th><th>Reference&#xA0;Range</th><th>Unit</th></tr><tr><td>Carbon dioxide, total [Moles/volume] in Serum or Plasma</td><td>21.9</td><td>22 - 29</td><td>L</td><td>mmol/L</td></tr></table></div>"
        },
        "status": "final",
        "subject": {
          "reference": "urn:uuid:7d3a2b0c-5be9-4a3e-8adf-29f1d009836c",
          "display": "Pelayo Casal"
        },
        "effectiveDateTime": "2025-04-03T05:38:59Z",
        "specimen": {
          "reference": "urn:uuid:0a5b2e94-3f86-4f28-9c99-0b364dad26ef"
        }
      }
    },
    {
      "fullUrl": "urn:uuid:0f256d7e-b37e-42b5-91da-670301e79591",
      "resource": {
        "resourceType": "Observation",
        "id": "0f256d7e-b37e-42b5-91da-670301e79591",
        "meta": {
          "profile": [
            "http://hl7.eu/fhir/laboratory/StructureDefinition/Observation-resultslab-eu-lab"
          ]
        },
        "performer": [
          {
            "display": "The Central European Lab"
          }
        ],
        "category": [
          {
            "coding": [
              {
                "system": "http://terminology.hl7.org/CodeSystem/observation-category",
                "code": "laboratory"
              }
            ]
          }
        ],
        "code": {
          "coding": [
            {
              "code": "5767-9",
              "system": "http://loinc.org",
              "display": "Appearance of Urine"
            }
          ],
          "text": "Appearance of Urine"
        },
        "text": {
          "status": "generated",
          "div": "<div xmlns=\"http://www.w3.org/1999/xhtml\"><table class=\"hl7__eu__lab__report\"><tr><th>Test</th><th>03-Apr-2025</th><th>Reference&#xA0;Range</th><th>Unit</th></tr><tr><td>Appearance of Urine</td></tr></table></div>"
        },
        "status": "final",
        "subject": {
          "reference": "urn:uuid:7d3a2b0c-5be9-4a3e-8adf-29f1d009836c",
          "display": "Pelayo Casal"
        },
        "effectiveDateTime": "2025-04-03T05:38:59Z",
        "specimen": {
          "reference": "urn:uuid:3aa775eb-3b5e-4757-b7a8-7b28bbe89696"
        }
      }
    },
    {
      "fullUrl": "urn:uuid:33300e58-fa0c-4390-a443-ee30d7607ad1",
      "resource": {
        "resourceType": "Observation",
        "id": "33300e58-fa0c-4390-a443-ee30d7607ad1",
        "meta": {
          "profile": [
            "http://hl7.eu/fhir/laboratory/StructureDefinition/Observation-resultslab-eu-lab"
          ]
        },
        "performer": [
          {
            "display": "The Central European Lab"
          }
        ],
        "category": [
          {
            "coding": [
              {
                "system": "http://terminology.hl7.org/CodeSystem/observation-category",
                "code": "laboratory"
              }
            ]
          }
        ],
        "code": {
          "coding": [
            {
              "code": "34533-0",
              "system": "http://loinc.org",
              "display": "Odor of Urine"
            }
          ],
          "text": "Odor of Urine"
        },
        "text": {
          "status": "generated",
          "div": "<div xmlns=\"http://www.w3.org/1999/xhtml\"><table class=\"hl7__eu__lab__report\"><tr><th>Test</th><th>03-Apr-2025</th><th>Reference&#xA0;Range</th><th>Unit</th></tr><tr><td>Odor of Urine</td></tr></table></div>"
        },
        "status": "final",
        "subject": {
          "reference": "urn:uuid:7d3a2b0c-5be9-4a3e-8adf-29f1d009836c",
          "display": "Pelayo Casal"
        },
        "effectiveDateTime": "2025-04-03T05:38:59Z",
        "specimen": {
          "reference": "urn:uuid:3aa775eb-3b5e-4757-b7a8-7b28bbe89696"
        }
      }
    },
    {
      "fullUrl": "urn:uuid:218d9514-7b43-418e-ab84-66f50ff01377",
      "resource": {
        "resourceType": "Observation",
        "id": "218d9514-7b43-418e-ab84-66f50ff01377",
        "meta": {
          "profile": [
            "http://hl7.eu/fhir/laboratory/StructureDefinition/Observation-resultslab-eu-lab"
          ]
        },
        "performer": [
          {
            "display": "The Central European Lab"
          }
        ],
        "category": [
          {
            "coding": [
              {
                "system": "http://terminology.hl7.org/CodeSystem/observation-category",
                "code": "laboratory"
              }
            ]
          }
        ],
        "code": {
          "coding": [
            {
              "code": "32167-9",
              "system": "http://loinc.org",
              "display": "Clarity of Urine"
            }
          ],
          "text": "Clarity of Urine"
        },
        "text": {
          "status": "generated",
          "div": "<div xmlns=\"http://www.w3.org/1999/xhtml\"><table class=\"hl7__eu__lab__report\"><tr><th>Test</th><th>03-Apr-2025</th><th>Reference&#xA0;Range</th><th>Unit</th></tr><tr><td>Clarity of Urine</td></tr></table></div>"
        },
        "status": "final",
        "subject": {
          "reference": "urn:uuid:7d3a2b0c-5be9-4a3e-8adf-29f1d009836c",
          "display": "Pelayo Casal"
        },
        "effectiveDateTime": "2025-04-03T05:38:59Z",
        "specimen": {
          "reference": "urn:uuid:3aa775eb-3b5e-4757-b7a8-7b28bbe89696"
        }
      }
    },
    {
      "fullUrl": "urn:uuid:6000d056-52a2-47d8-9b14-758deb7637b0",
      "resource": {
        "resourceType": "Observation",
        "id": "6000d056-52a2-47d8-9b14-758deb7637b0",
        "meta": {
          "profile": [
            "http://hl7.eu/fhir/laboratory/StructureDefinition/Observation-resultslab-eu-lab"
          ]
        },
        "performer": [
          {
            "display": "The Central European Lab"
          }
        ],
        "category": [
          {
            "coding": [
              {
                "system": "http://terminology.hl7.org/CodeSystem/observation-category",
                "code": "laboratory"
              }
            ]
          }
        ],
        "code": {
          "coding": [
            {
              "code": "5778-6",
              "system": "http://loinc.org",
              "display": "Color of Urine"
            }
          ],
          "text": "Color of Urine"
        },
        "text": {
          "status": "generated",
          "div": "<div xmlns=\"http://www.w3.org/1999/xhtml\"><table class=\"hl7__eu__lab__report\"><tr><th>Test</th><th>03-Apr-2025</th><th>Reference&#xA0;Range</th><th>Unit</th></tr><tr><td>Color of Urine</td></tr></table></div>"
        },
        "status": "final",
        "subject": {
          "reference": "urn:uuid:7d3a2b0c-5be9-4a3e-8adf-29f1d009836c",
          "display": "Pelayo Casal"
        },
        "effectiveDateTime": "2025-04-03T05:38:59Z",
        "specimen": {
          "reference": "urn:uuid:3aa775eb-3b5e-4757-b7a8-7b28bbe89696"
        }
      }
    },
    {
      "fullUrl": "urn:uuid:9f02c473-b2d3-43a0-aa23-17fefd8c5c75",
      "resource": {
        "resourceType": "Observation",
        "id": "9f02c473-b2d3-43a0-aa23-17fefd8c5c75",
        "meta": {
          "profile": [
            "http://hl7.eu/fhir/laboratory/StructureDefinition/Observation-resultslab-eu-lab"
          ]
        },
        "performer": [
          {
            "display": "The Central European Lab"
          }
        ],
        "category": [
          {
            "coding": [
              {
                "system": "http://terminology.hl7.org/CodeSystem/observation-category",
                "code": "laboratory"
              }
            ]
          }
        ],
        "code": {
          "coding": [
            {
              "code": "5792-7",
              "system": "http://loinc.org",
              "display": "Glucose [Mass/volume] in Urine by Test strip"
            }
          ],
          "text": "Glucose [Mass/volume] in Urine by Test strip"
        },
        "valueQuantity": {
          "system": "http://unitsofmeasure.org",
          "value": 1.6,
          "unit": "mg/dL",
          "code": "mg/dL"
        },
        "referenceRange": [
          {
            "low": {
              "value": 0.8,
              "code": "mg/dL",
              "system": "http://unitsofmeasure.org"
            }
          },
          {
            "high": {
              "value": 0,
              "code": "mg/dL",
              "system": "http://unitsofmeasure.org"
            }
          }
        ],
        "interpretation": [
          {
            "coding": [
              {
                "code": "H",
                "system": "http://terminology.hl7.org/CodeSystem/v3-ObservationInterpretation",
                "display": "High"
              }
            ]
          }
        ],
        "text": {
          "status": "generated",
          "div": "<div xmlns=\"http://www.w3.org/1999/xhtml\"><table class=\"hl7__eu__lab__report\"><tr><th>Test</th><th>03-Apr-2025</th><th>Reference&#xA0;Range</th><th>Unit</th></tr><tr><td>Glucose [Mass/volume] in Urine by Test strip</td><td>1.6</td><td>0.8 - 0</td><td>H</td><td>mg/dL</td></tr></table></div>"
        },
        "status": "final",
        "subject": {
          "reference": "urn:uuid:7d3a2b0c-5be9-4a3e-8adf-29f1d009836c",
          "display": "Pelayo Casal"
        },
        "effectiveDateTime": "2025-04-03T05:38:59Z",
        "specimen": {
          "reference": "urn:uuid:3aa775eb-3b5e-4757-b7a8-7b28bbe89696"
        }
      }
    },
    {
      "fullUrl": "urn:uuid:35f676ed-4436-4293-a0b4-932559252fec",
      "resource": {
        "resourceType": "Observation",
        "id": "35f676ed-4436-4293-a0b4-932559252fec",
        "meta": {
          "profile": [
            "http://hl7.eu/fhir/laboratory/StructureDefinition/Observation-resultslab-eu-lab"
          ]
        },
        "performer": [
          {
            "display": "The Central European Lab"
          }
        ],
        "category": [
          {
            "coding": [
              {
                "system": "http://terminology.hl7.org/CodeSystem/observation-category",
                "code": "laboratory"
              }
            ]
          }
        ],
        "code": {
          "coding": [
            {
              "code": "25428-4",
              "system": "http://loinc.org",
              "display": "Glucose [Presence] in Urine by Test strip"
            }
          ],
          "text": "Glucose [Presence] in Urine by Test strip"
        },
        "text": {
          "status": "generated",
          "div": "<div xmlns=\"http://www.w3.org/1999/xhtml\"><table class=\"hl7__eu__lab__report\"><tr><th>Test</th><th>03-Apr-2025</th><th>Reference&#xA0;Range</th><th>Unit</th></tr><tr><td>Glucose [Presence] in Urine by Test strip</td></tr></table></div>"
        },
        "status": "final",
        "subject": {
          "reference": "urn:uuid:7d3a2b0c-5be9-4a3e-8adf-29f1d009836c",
          "display": "Pelayo Casal"
        },
        "effectiveDateTime": "2025-04-03T05:38:59Z",
        "specimen": {
          "reference": "urn:uuid:3aa775eb-3b5e-4757-b7a8-7b28bbe89696"
        }
      }
    },
    {
      "fullUrl": "urn:uuid:e7b42283-34df-4373-af5e-f774dc8d0ccb",
      "resource": {
        "resourceType": "Observation",
        "id": "e7b42283-34df-4373-af5e-f774dc8d0ccb",
        "meta": {
          "profile": [
            "http://hl7.eu/fhir/laboratory/StructureDefinition/Observation-resultslab-eu-lab"
          ]
        },
        "performer": [
          {
            "display": "The Central European Lab"
          }
        ],
        "category": [
          {
            "coding": [
              {
                "system": "http://terminology.hl7.org/CodeSystem/observation-category",
                "code": "laboratory"
              }
            ]
          }
        ],
        "code": {
          "coding": [
            {
              "code": "20505-4",
              "system": "http://loinc.org",
              "display": "Bilirubin.total [Mass/volume] in Urine by Test strip"
            }
          ],
          "text": "Bilirubin.total [Mass/volume] in Urine by Test strip"
        },
        "valueQuantity": {
          "system": "http://unitsofmeasure.org",
          "value": 0.8,
          "unit": "mg/dL",
          "code": "mg/dL"
        },
        "referenceRange": [
          {
            "low": {
              "value": 0.2,
              "code": "mg/dL",
              "system": "http://unitsofmeasure.org"
            }
          },
          {
            "high": {
              "value": 1.5,
              "code": "mg/dL",
              "system": "http://unitsofmeasure.org"
            }
          }
        ],
        "text": {
          "status": "generated",
          "div": "<div xmlns=\"http://www.w3.org/1999/xhtml\"><table class=\"hl7__eu__lab__report\"><tr><th>Test</th><th>03-Apr-2025</th><th>Reference&#xA0;Range</th><th>Unit</th></tr><tr><td>Bilirubin.total [Mass/volume] in Urine by Test strip</td><td>0.8</td><td>0.2 - 1.5</td><td></td><td>mg/dL</td></tr></table></div>"
        },
        "status": "final",
        "subject": {
          "reference": "urn:uuid:7d3a2b0c-5be9-4a3e-8adf-29f1d009836c",
          "display": "Pelayo Casal"
        },
        "effectiveDateTime": "2025-04-03T05:38:59Z",
        "specimen": {
          "reference": "urn:uuid:3aa775eb-3b5e-4757-b7a8-7b28bbe89696"
        }
      }
    },
    {
      "fullUrl": "urn:uuid:eec7b984-7dcc-4266-a168-a7ce070785d6",
      "resource": {
        "resourceType": "Observation",
        "id": "eec7b984-7dcc-4266-a168-a7ce070785d6",
        "meta": {
          "profile": [
            "http://hl7.eu/fhir/laboratory/StructureDefinition/Observation-resultslab-eu-lab"
          ]
        },
        "performer": [
          {
            "display": "The Central European Lab"
          }
        ],
        "category": [
          {
            "coding": [
              {
                "system": "http://terminology.hl7.org/CodeSystem/observation-category",
                "code": "laboratory"
              }
            ]
          }
        ],
        "code": {
          "coding": [
            {
              "code": "5770-3",
              "system": "http://loinc.org",
              "display": "Bilirubin.total [Presence] in Urine by Test strip"
            }
          ],
          "text": "Bilirubin.total [Presence] in Urine by Test strip"
        },
        "text": {
          "status": "generated",
          "div": "<div xmlns=\"http://www.w3.org/1999/xhtml\"><table class=\"hl7__eu__lab__report\"><tr><th>Test</th><th>03-Apr-2025</th><th>Reference&#xA0;Range</th><th>Unit</th></tr><tr><td>Bilirubin.total [Presence] in Urine by Test strip</td></tr></table></div>"
        },
        "status": "final",
        "subject": {
          "reference": "urn:uuid:7d3a2b0c-5be9-4a3e-8adf-29f1d009836c",
          "display": "Pelayo Casal"
        },
        "effectiveDateTime": "2025-04-03T05:38:59Z",
        "specimen": {
          "reference": "urn:uuid:3aa775eb-3b5e-4757-b7a8-7b28bbe89696"
        }
      }
    },
    {
      "fullUrl": "urn:uuid:38b4815a-e9c2-4fb5-801e-b7075020260c",
      "resource": {
        "resourceType": "Observation",
        "id": "38b4815a-e9c2-4fb5-801e-b7075020260c",
        "meta": {
          "profile": [
            "http://hl7.eu/fhir/laboratory/StructureDefinition/Observation-resultslab-eu-lab"
          ]
        },
        "performer": [
          {
            "display": "The Central European Lab"
          }
        ],
        "category": [
          {
            "coding": [
              {
                "system": "http://terminology.hl7.org/CodeSystem/observation-category",
                "code": "laboratory"
              }
            ]
          }
        ],
        "code": {
          "coding": [
            {
              "code": "5797-6",
              "system": "http://loinc.org",
              "display": "Ketones [Mass/volume] in Urine by Test strip"
            }
          ],
          "text": "Ketones [Mass/volume] in Urine by Test strip"
        },
        "valueQuantity": {
          "system": "http://unitsofmeasure.org",
          "value": 5.9,
          "unit": "mg/dL",
          "code": "mg/dL"
        },
        "referenceRange": [
          {
            "low": {
              "value": 0,
              "code": "mg/dL",
              "system": "http://unitsofmeasure.org"
            }
          },
          {
            "high": {
              "value": 4,
              "code": "mg/dL",
              "system": "http://unitsofmeasure.org"
            }
          }
        ],
        "interpretation": [
          {
            "coding": [
              {
                "code": "H",
                "system": "http://terminology.hl7.org/CodeSystem/v3-ObservationInterpretation",
                "display": "High"
              }
            ]
          }
        ],
        "text": {
          "status": "generated",
          "div": "<div xmlns=\"http://www.w3.org/1999/xhtml\"><table class=\"hl7__eu__lab__report\"><tr><th>Test</th><th>03-Apr-2025</th><th>Reference&#xA0;Range</th><th>Unit</th></tr><tr><td>Ketones [Mass/volume] in Urine by Test strip</td><td>5.9</td><td>0 - 4</td><td>H</td><td>mg/dL</td></tr></table></div>"
        },
        "status": "final",
        "subject": {
          "reference": "urn:uuid:7d3a2b0c-5be9-4a3e-8adf-29f1d009836c",
          "display": "Pelayo Casal"
        },
        "effectiveDateTime": "2025-04-03T05:38:59Z",
        "specimen": {
          "reference": "urn:uuid:3aa775eb-3b5e-4757-b7a8-7b28bbe89696"
        }
      }
    },
    {
      "fullUrl": "urn:uuid:cf805aa3-05b6-4862-99c2-f9b82243b24a",
      "resource": {
        "resourceType": "Observation",
        "id": "cf805aa3-05b6-4862-99c2-f9b82243b24a",
        "meta": {
          "profile": [
            "http://hl7.eu/fhir/laboratory/StructureDefinition/Observation-resultslab-eu-lab"
          ]
        },
        "performer": [
          {
            "display": "The Central European Lab"
          }
        ],
        "category": [
          {
            "coding": [
              {
                "system": "http://terminology.hl7.org/CodeSystem/observation-category",
                "code": "laboratory"
              }
            ]
          }
        ],
        "code": {
          "coding": [
            {
              "code": "2514-8",
              "system": "http://loinc.org",
              "display": "Ketones [Presence] in Urine by Test strip"
            }
          ],
          "text": "Ketones [Presence] in Urine by Test strip"
        },
        "text": {
          "status": "generated",
          "div": "<div xmlns=\"http://www.w3.org/1999/xhtml\"><table class=\"hl7__eu__lab__report\"><tr><th>Test</th><th>03-Apr-2025</th><th>Reference&#xA0;Range</th><th>Unit</th></tr><tr><td>Ketones [Presence] in Urine by Test strip</td></tr></table></div>"
        },
        "status": "final",
        "subject": {
          "reference": "urn:uuid:7d3a2b0c-5be9-4a3e-8adf-29f1d009836c",
          "display": "Pelayo Casal"
        },
        "effectiveDateTime": "2025-04-03T05:38:59Z",
        "specimen": {
          "reference": "urn:uuid:3aa775eb-3b5e-4757-b7a8-7b28bbe89696"
        }
      }
    },
    {
      "fullUrl": "urn:uuid:e5b2f070-fb5f-472c-893f-8b7bc32d9344",
      "resource": {
        "resourceType": "Observation",
        "id": "e5b2f070-fb5f-472c-893f-8b7bc32d9344",
        "meta": {
          "profile": [
            "http://hl7.eu/fhir/laboratory/StructureDefinition/Observation-resultslab-eu-lab"
          ]
        },
        "performer": [
          {
            "display": "The Central European Lab"
          }
        ],
        "category": [
          {
            "coding": [
              {
                "system": "http://terminology.hl7.org/CodeSystem/observation-category",
                "code": "laboratory"
              }
            ]
          }
        ],
        "code": {
          "coding": [
            {
              "code": "5811-5",
              "system": "http://loinc.org",
              "display": "Specific gravity of Urine by Test strip"
            }
          ],
          "text": "Specific gravity of Urine by Test strip"
        },
        "valueQuantity": {
          "system": "http://unitsofmeasure.org",
          "value": 1,
          "unit": "{nominal}",
          "code": "{nominal}"
        },
        "referenceRange": [
          {
            "low": {
              "value": 1.01,
              "code": "g/mL",
              "system": "http://unitsofmeasure.org"
            }
          },
          {
            "high": {
              "value": 1.03,
              "code": "g/mL",
              "system": "http://unitsofmeasure.org"
            }
          }
        ],
        "interpretation": [
          {
            "coding": [
              {
                "code": "L",
                "system": "http://terminology.hl7.org/CodeSystem/v3-ObservationInterpretation",
                "display": "Low"
              }
            ]
          }
        ],
        "text": {
          "status": "generated",
          "div": "<div xmlns=\"http://www.w3.org/1999/xhtml\"><table class=\"hl7__eu__lab__report\"><tr><th>Test</th><th>03-Apr-2025</th><th>Reference&#xA0;Range</th><th>Unit</th></tr><tr><td>Specific gravity of Urine by Test strip</td><td>1.0</td><td>1.01 - 1.03</td><td>L</td><td>{nominal}</td></tr></table></div>"
        },
        "status": "final",
        "subject": {
          "reference": "urn:uuid:7d3a2b0c-5be9-4a3e-8adf-29f1d009836c",
          "display": "Pelayo Casal"
        },
        "effectiveDateTime": "2025-04-03T05:38:59Z",
        "specimen": {
          "reference": "urn:uuid:3aa775eb-3b5e-4757-b7a8-7b28bbe89696"
        }
      }
    },
    {
      "fullUrl": "urn:uuid:f34af5cc-3484-4382-afde-1c6b5953e966",
      "resource": {
        "resourceType": "Observation",
        "id": "f34af5cc-3484-4382-afde-1c6b5953e966",
        "meta": {
          "profile": [
            "http://hl7.eu/fhir/laboratory/StructureDefinition/Observation-resultslab-eu-lab"
          ]
        },
        "performer": [
          {
            "display": "The Central European Lab"
          }
        ],
        "category": [
          {
            "coding": [
              {
                "system": "http://terminology.hl7.org/CodeSystem/observation-category",
                "code": "laboratory"
              }
            ]
          }
        ],
        "code": {
          "coding": [
            {
              "code": "5803-2",
              "system": "http://loinc.org",
              "display": "pH of Urine by Test strip"
            }
          ],
          "text": "pH of Urine by Test strip"
        },
        "valueQuantity": {
          "system": "http://unitsofmeasure.org",
          "value": 7,
          "unit": "pH",
          "code": "pH"
        },
        "referenceRange": [
          {
            "low": {
              "value": 4.5,
              "code": "pH",
              "system": "http://unitsofmeasure.org"
            }
          },
          {
            "high": {
              "value": 7.5,
              "code": "pH",
              "system": "http://unitsofmeasure.org"
            }
          }
        ],
        "text": {
          "status": "generated",
          "div": "<div xmlns=\"http://www.w3.org/1999/xhtml\"><table class=\"hl7__eu__lab__report\"><tr><th>Test</th><th>03-Apr-2025</th><th>Reference&#xA0;Range</th><th>Unit</th></tr><tr><td>pH of Urine by Test strip</td><td>7.0</td><td>4.5 - 7.5</td><td></td><td>pH</td></tr></table></div>"
        },
        "status": "final",
        "subject": {
          "reference": "urn:uuid:7d3a2b0c-5be9-4a3e-8adf-29f1d009836c",
          "display": "Pelayo Casal"
        },
        "effectiveDateTime": "2025-04-03T05:38:59Z",
        "specimen": {
          "reference": "urn:uuid:3aa775eb-3b5e-4757-b7a8-7b28bbe89696"
        }
      }
    },
    {
      "fullUrl": "urn:uuid:6f661c3b-e22c-4d55-a1e0-30957a352de7",
      "resource": {
        "resourceType": "Observation",
        "id": "6f661c3b-e22c-4d55-a1e0-30957a352de7",
        "meta": {
          "profile": [
            "http://hl7.eu/fhir/laboratory/StructureDefinition/Observation-resultslab-eu-lab"
          ]
        },
        "performer": [
          {
            "display": "The Central European Lab"
          }
        ],
        "category": [
          {
            "coding": [
              {
                "system": "http://terminology.hl7.org/CodeSystem/observation-category",
                "code": "laboratory"
              }
            ]
          }
        ],
        "code": {
          "coding": [
            {
              "code": "5804-0",
              "system": "http://loinc.org",
              "display": "Protein [Mass/volume] in Urine by Test strip"
            }
          ],
          "text": "Protein [Mass/volume] in Urine by Test strip"
        },
        "valueQuantity": {
          "system": "http://unitsofmeasure.org",
          "value": 307.9,
          "unit": "mg/dL",
          "code": "mg/dL"
        },
        "referenceRange": [
          {
            "low": {
              "value": 0,
              "code": "mg/dL",
              "system": "http://unitsofmeasure.org"
            }
          },
          {
            "high": {
              "value": 150,
              "code": "mg/dL",
              "system": "http://unitsofmeasure.org"
            }
          }
        ],
        "interpretation": [
          {
            "coding": [
              {
                "code": "H",
                "system": "http://terminology.hl7.org/CodeSystem/v3-ObservationInterpretation",
                "display": "High"
              }
            ]
          }
        ],
        "text": {
          "status": "generated",
          "div": "<div xmlns=\"http://www.w3.org/1999/xhtml\"><table class=\"hl7__eu__lab__report\"><tr><th>Test</th><th>03-Apr-2025</th><th>Reference&#xA0;Range</th><th>Unit</th></tr><tr><td>Protein [Mass/volume] in Urine by Test strip</td><td>307.9</td><td>0 - 150</td><td>H</td><td>mg/dL</td></tr></table></div>"
        },
        "status": "final",
        "subject": {
          "reference": "urn:uuid:7d3a2b0c-5be9-4a3e-8adf-29f1d009836c",
          "display": "Pelayo Casal"
        },
        "effectiveDateTime": "2025-04-03T05:38:59Z",
        "specimen": {
          "reference": "urn:uuid:3aa775eb-3b5e-4757-b7a8-7b28bbe89696"
        }
      }
    },
    {
      "fullUrl": "urn:uuid:f5c141ab-a43c-43cc-9426-fe88508a1f18",
      "resource": {
        "resourceType": "Observation",
        "id": "f5c141ab-a43c-43cc-9426-fe88508a1f18",
        "meta": {
          "profile": [
            "http://hl7.eu/fhir/laboratory/StructureDefinition/Observation-resultslab-eu-lab"
          ]
        },
        "performer": [
          {
            "display": "The Central European Lab"
          }
        ],
        "category": [
          {
            "coding": [
              {
                "system": "http://terminology.hl7.org/CodeSystem/observation-category",
                "code": "laboratory"
              }
            ]
          }
        ],
        "code": {
          "coding": [
            {
              "code": "20454-5",
              "system": "http://loinc.org",
              "display": "Protein [Presence] in Urine by Test strip"
            }
          ],
          "text": "Protein [Presence] in Urine by Test strip"
        },
        "text": {
          "status": "generated",
          "div": "<div xmlns=\"http://www.w3.org/1999/xhtml\"><table class=\"hl7__eu__lab__report\"><tr><th>Test</th><th>03-Apr-2025</th><th>Reference&#xA0;Range</th><th>Unit</th></tr><tr><td>Protein [Presence] in Urine by Test strip</td></tr></table></div>"
        },
        "status": "final",
        "subject": {
          "reference": "urn:uuid:7d3a2b0c-5be9-4a3e-8adf-29f1d009836c",
          "display": "Pelayo Casal"
        },
        "effectiveDateTime": "2025-04-03T05:38:59Z",
        "specimen": {
          "reference": "urn:uuid:3aa775eb-3b5e-4757-b7a8-7b28bbe89696"
        }
      }
    },
    {
      "fullUrl": "urn:uuid:2648e85d-8edc-4d71-a4d6-50a1bba00eb5",
      "resource": {
        "resourceType": "Observation",
        "id": "2648e85d-8edc-4d71-a4d6-50a1bba00eb5",
        "meta": {
          "profile": [
            "http://hl7.eu/fhir/laboratory/StructureDefinition/Observation-resultslab-eu-lab"
          ]
        },
        "performer": [
          {
            "display": "The Central European Lab"
          }
        ],
        "category": [
          {
            "coding": [
              {
                "system": "http://terminology.hl7.org/CodeSystem/observation-category",
                "code": "laboratory"
              }
            ]
          }
        ],
        "code": {
          "coding": [
            {
              "code": "5802-4",
              "system": "http://loinc.org",
              "display": "Nitrite [Presence] in Urine by Test strip"
            }
          ],
          "text": "Nitrite [Presence] in Urine by Test strip"
        },
        "text": {
          "status": "generated",
          "div": "<div xmlns=\"http://www.w3.org/1999/xhtml\"><table class=\"hl7__eu__lab__report\"><tr><th>Test</th><th>03-Apr-2025</th><th>Reference&#xA0;Range</th><th>Unit</th></tr><tr><td>Nitrite [Presence] in Urine by Test strip</td></tr></table></div>"
        },
        "status": "final",
        "subject": {
          "reference": "urn:uuid:7d3a2b0c-5be9-4a3e-8adf-29f1d009836c",
          "display": "Pelayo Casal"
        },
        "effectiveDateTime": "2025-04-03T05:38:59Z",
        "specimen": {
          "reference": "urn:uuid:3aa775eb-3b5e-4757-b7a8-7b28bbe89696"
        }
      }
    },
    {
      "fullUrl": "urn:uuid:c323eef7-5e79-4758-aae2-642cb73fdf5c",
      "resource": {
        "resourceType": "Observation",
        "id": "c323eef7-5e79-4758-aae2-642cb73fdf5c",
        "meta": {
          "profile": [
            "http://hl7.eu/fhir/laboratory/StructureDefinition/Observation-resultslab-eu-lab"
          ]
        },
        "performer": [
          {
            "display": "The Central European Lab"
          }
        ],
        "category": [
          {
            "coding": [
              {
                "system": "http://terminology.hl7.org/CodeSystem/observation-category",
                "code": "laboratory"
              }
            ]
          }
        ],
        "code": {
          "coding": [
            {
              "code": "5794-3",
              "system": "http://loinc.org",
              "display": "Hemoglobin [Presence] in Urine by Test strip"
            }
          ],
          "text": "Hemoglobin [Presence] in Urine by Test strip"
        },
        "text": {
          "status": "generated",
          "div": "<div xmlns=\"http://www.w3.org/1999/xhtml\"><table class=\"hl7__eu__lab__report\"><tr><th>Test</th><th>03-Apr-2025</th><th>Reference&#xA0;Range</th><th>Unit</th></tr><tr><td>Hemoglobin [Presence] in Urine by Test strip</td></tr></table></div>"
        },
        "status": "final",
        "subject": {
          "reference": "urn:uuid:7d3a2b0c-5be9-4a3e-8adf-29f1d009836c",
          "display": "Pelayo Casal"
        },
        "effectiveDateTime": "2025-04-03T05:38:59Z",
        "specimen": {
          "reference": "urn:uuid:3aa775eb-3b5e-4757-b7a8-7b28bbe89696"
        }
      }
    },
    {
      "fullUrl": "urn:uuid:8fed7528-d640-470d-9e8e-02721ac3f42f",
      "resource": {
        "resourceType": "Observation",
        "id": "8fed7528-d640-470d-9e8e-02721ac3f42f",
        "meta": {
          "profile": [
            "http://hl7.eu/fhir/laboratory/StructureDefinition/Observation-resultslab-eu-lab"
          ]
        },
        "performer": [
          {
            "display": "The Central European Lab"
          }
        ],
        "category": [
          {
            "coding": [
              {
                "system": "http://terminology.hl7.org/CodeSystem/observation-category",
                "code": "laboratory"
              }
            ]
          }
        ],
        "code": {
          "coding": [
            {
              "code": "5799-2",
              "system": "http://loinc.org",
              "display": "Leukocyte esterase [Presence] in Urine by Test strip"
            }
          ],
          "text": "Leukocyte esterase [Presence] in Urine by Test strip"
        },
        "text": {
          "status": "generated",
          "div": "<div xmlns=\"http://www.w3.org/1999/xhtml\"><table class=\"hl7__eu__lab__report\"><tr><th>Test</th><th>03-Apr-2025</th><th>Reference&#xA0;Range</th><th>Unit</th></tr><tr><td>Leukocyte esterase [Presence] in Urine by Test strip</td></tr></table></div>"
        },
        "status": "final",
        "subject": {
          "reference": "urn:uuid:7d3a2b0c-5be9-4a3e-8adf-29f1d009836c",
          "display": "Pelayo Casal"
        },
        "effectiveDateTime": "2025-04-03T05:38:59Z",
        "specimen": {
          "reference": "urn:uuid:3aa775eb-3b5e-4757-b7a8-7b28bbe89696"
        }
      }
    },
    {
      "fullUrl": "urn:uuid:d78a1ca8-8d92-40c6-b478-12fedbc4c3b7",
      "resource": {
        "resourceType": "Observation",
        "id": "d78a1ca8-8d92-40c6-b478-12fedbc4c3b7",
        "meta": {
          "profile": [
            "http://hl7.eu/fhir/laboratory/StructureDefinition/Observation-resultslab-eu-lab"
          ]
        },
        "performer": [
          {
            "display": "The Central European Lab"
          }
        ],
        "category": [
          {
            "coding": [
              {
                "system": "http://terminology.hl7.org/CodeSystem/observation-category",
                "code": "laboratory"
              }
            ]
          }
        ],
        "code": {
          "coding": [
            {
              "code": "4548-4",
              "system": "http://loinc.org",
              "display": "Hemoglobin A1c/Hemoglobin.total in Blood"
            }
          ],
          "text": "Hemoglobin A1c/Hemoglobin.total in Blood"
        },
        "valueQuantity": {
          "system": "http://unitsofmeasure.org",
          "value": 3.4,
          "unit": "%",
          "code": "%"
        },
        "referenceRange": [
          {
            "low": {
              "value": 4.5,
              "code": "%",
              "system": "http://unitsofmeasure.org"
            }
          },
          {
            "high": {
              "value": 6.4,
              "code": "%",
              "system": "http://unitsofmeasure.org"
            }
          }
        ],
        "interpretation": [
          {
            "coding": [
              {
                "code": "L",
                "system": "http://terminology.hl7.org/CodeSystem/v3-ObservationInterpretation",
                "display": "Low"
              }
            ]
          }
        ],
        "text": {
          "status": "generated",
          "div": "<div xmlns=\"http://www.w3.org/1999/xhtml\"><table class=\"hl7__eu__lab__report\"><tr><th>Test</th><th>03-Apr-2025</th><th>Reference&#xA0;Range</th><th>Unit</th></tr><tr><td>Hemoglobin A1c/Hemoglobin.total in Blood</td><td>3.4</td><td>4.5 - 6.4</td><td>L</td><td>%</td></tr></table></div>"
        },
        "status": "final",
        "subject": {
          "reference": "urn:uuid:7d3a2b0c-5be9-4a3e-8adf-29f1d009836c",
          "display": "Pelayo Casal"
        },
        "effectiveDateTime": "2025-04-03T05:38:59Z",
        "specimen": {
          "reference": "urn:uuid:9912add1-ce41-48d4-928d-b946c622f6f3"
        }
      }
    },
    {
      "fullUrl": "urn:uuid:4d7519b3-185d-4a96-b964-2a6c3909a5fc",
      "resource": {
        "resourceType": "Observation",
        "id": "4d7519b3-185d-4a96-b964-2a6c3909a5fc",
        "meta": {
          "profile": [
            "http://hl7.eu/fhir/laboratory/StructureDefinition/Observation-resultslab-eu-lab"
          ]
        },
        "performer": [
          {
            "display": "The Central European Lab"
          }
        ],
        "category": [
          {
            "coding": [
              {
                "system": "http://terminology.hl7.org/CodeSystem/observation-category",
                "code": "laboratory"
              }
            ]
          }
        ],
        "code": {
          "coding": [
            {
              "code": "2339-0",
              "system": "http://loinc.org",
              "display": "Glucose [Mass/volume] in Blood"
            }
          ],
          "text": "Glucose [Mass/volume] in Blood"
        },
        "valueQuantity": {
          "system": "http://unitsofmeasure.org",
          "value": 88.6,
          "unit": "mg/dL",
          "code": "mg/dL"
        },
        "referenceRange": [
          {
            "low": {
              "value": 70,
              "code": "mg/dL",
              "system": "http://unitsofmeasure.org"
            }
          },
          {
            "high": {
              "value": 140,
              "code": "mg/dL",
              "system": "http://unitsofmeasure.org"
            }
          }
        ],
        "text": {
          "status": "generated",
          "div": "<div xmlns=\"http://www.w3.org/1999/xhtml\"><table class=\"hl7__eu__lab__report\"><tr><th>Test</th><th>03-Apr-2025</th><th>Reference&#xA0;Range</th><th>Unit</th></tr><tr><td>Glucose [Mass/volume] in Blood</td><td>88.6</td><td>70 - 140</td><td></td><td>mg/dL</td></tr></table></div>"
        },
        "status": "final",
        "subject": {
          "reference": "urn:uuid:7d3a2b0c-5be9-4a3e-8adf-29f1d009836c",
          "display": "Pelayo Casal"
        },
        "effectiveDateTime": "2025-04-03T05:38:59Z",
        "specimen": {
          "reference": "urn:uuid:9912add1-ce41-48d4-928d-b946c622f6f3"
        }
      }
    },
    {
      "fullUrl": "urn:uuid:41f054ac-f745-48b1-9b91-50a4b942f6fd",
      "resource": {
        "resourceType": "Observation",
        "id": "41f054ac-f745-48b1-9b91-50a4b942f6fd",
        "meta": {
          "profile": [
            "http://hl7.eu/fhir/laboratory/StructureDefinition/Observation-resultslab-eu-lab"
          ]
        },
        "performer": [
          {
            "display": "The Central European Lab"
          }
        ],
        "category": [
          {
            "coding": [
              {
                "system": "http://terminology.hl7.org/CodeSystem/observation-category",
                "code": "laboratory"
              }
            ]
          }
        ],
        "code": {
          "coding": [
            {
              "code": "6299-2",
              "system": "http://loinc.org",
              "display": "Urea nitrogen [Mass/volume] in Blood"
            }
          ],
          "text": "Urea nitrogen [Mass/volume] in Blood"
        },
        "valueQuantity": {
          "system": "http://unitsofmeasure.org",
          "value": 11.9,
          "unit": "mg/dL",
          "code": "mg/dL"
        },
        "referenceRange": [
          {
            "low": {
              "value": 7,
              "code": "mg/dL",
              "system": "http://unitsofmeasure.org"
            }
          },
          {
            "high": {
              "value": 25,
              "code": "mg/dL",
              "system": "http://unitsofmeasure.org"
            }
          }
        ],
        "text": {
          "status": "generated",
          "div": "<div xmlns=\"http://www.w3.org/1999/xhtml\"><table class=\"hl7__eu__lab__report\"><tr><th>Test</th><th>03-Apr-2025</th><th>Reference&#xA0;Range</th><th>Unit</th></tr><tr><td>Urea nitrogen [Mass/volume] in Blood</td><td>11.9</td><td>7 - 25</td><td></td><td>mg/dL</td></tr></table></div>"
        },
        "status": "final",
        "subject": {
          "reference": "urn:uuid:7d3a2b0c-5be9-4a3e-8adf-29f1d009836c",
          "display": "Pelayo Casal"
        },
        "effectiveDateTime": "2025-04-03T05:38:59Z",
        "specimen": {
          "reference": "urn:uuid:9912add1-ce41-48d4-928d-b946c622f6f3"
        }
      }
    },
    {
      "fullUrl": "urn:uuid:6ef280a2-26cf-483e-aa8f-17fb28c64d74",
      "resource": {
        "resourceType": "Observation",
        "id": "6ef280a2-26cf-483e-aa8f-17fb28c64d74",
        "meta": {
          "profile": [
            "http://hl7.eu/fhir/laboratory/StructureDefinition/Observation-resultslab-eu-lab"
          ]
        },
        "performer": [
          {
            "display": "The Central European Lab"
          }
        ],
        "category": [
          {
            "coding": [
              {
                "system": "http://terminology.hl7.org/CodeSystem/observation-category",
                "code": "laboratory"
              }
            ]
          }
        ],
        "code": {
          "coding": [
            {
              "code": "38483-4",
              "system": "http://loinc.org",
              "display": "Creatinine [Mass/volume] in Blood"
            }
          ],
          "text": "Creatinine [Mass/volume] in Blood"
        },
        "valueQuantity": {
          "system": "http://unitsofmeasure.org",
          "value": 2.1,
          "unit": "mg/dL",
          "code": "mg/dL"
        },
        "referenceRange": [
          {
            "low": {
              "value": 0.9,
              "code": "mg/dL",
              "system": "http://unitsofmeasure.org"
            }
          },
          {
            "high": {
              "value": 1.3,
              "code": "mg/dL",
              "system": "http://unitsofmeasure.org"
            }
          }
        ],
        "interpretation": [
          {
            "coding": [
              {
                "code": "H",
                "system": "http://terminology.hl7.org/CodeSystem/v3-ObservationInterpretation",
                "display": "High"
              }
            ]
          }
        ],
        "text": {
          "status": "generated",
          "div": "<div xmlns=\"http://www.w3.org/1999/xhtml\"><table class=\"hl7__eu__lab__report\"><tr><th>Test</th><th>03-Apr-2025</th><th>Reference&#xA0;Range</th><th>Unit</th></tr><tr><td>Creatinine [Mass/volume] in Blood</td><td>2.1</td><td>0.9 - 1.3</td><td>H</td><td>mg/dL</td></tr></table></div>"
        },
        "status": "final",
        "subject": {
          "reference": "urn:uuid:7d3a2b0c-5be9-4a3e-8adf-29f1d009836c",
          "display": "Pelayo Casal"
        },
        "effectiveDateTime": "2025-04-03T05:38:59Z",
        "specimen": {
          "reference": "urn:uuid:9912add1-ce41-48d4-928d-b946c622f6f3"
        }
      }
    },
    {
      "fullUrl": "urn:uuid:9759b4eb-29c9-48b1-8414-400ad640ce8a",
      "resource": {
        "resourceType": "Observation",
        "id": "9759b4eb-29c9-48b1-8414-400ad640ce8a",
        "meta": {
          "profile": [
            "http://hl7.eu/fhir/laboratory/StructureDefinition/Observation-resultslab-eu-lab"
          ]
        },
        "performer": [
          {
            "display": "The Central European Lab"
          }
        ],
        "category": [
          {
            "coding": [
              {
                "system": "http://terminology.hl7.org/CodeSystem/observation-category",
                "code": "laboratory"
              }
            ]
          }
        ],
        "code": {
          "coding": [
            {
              "code": "49765-1",
              "system": "http://loinc.org",
              "display": "Calcium [Mass/volume] in Blood"
            }
          ],
          "text": "Calcium [Mass/volume] in Blood"
        },
        "valueQuantity": {
          "system": "http://unitsofmeasure.org",
          "value": 8.8,
          "unit": "mg/dL",
          "code": "mg/dL"
        },
        "referenceRange": [
          {
            "low": {
              "value": 8.6,
              "code": "mg/dL",
              "system": "http://unitsofmeasure.org"
            }
          },
          {
            "high": {
              "value": 10.2,
              "code": "mg/dL",
              "system": "http://unitsofmeasure.org"
            }
          }
        ],
        "text": {
          "status": "generated",
          "div": "<div xmlns=\"http://www.w3.org/1999/xhtml\"><table class=\"hl7__eu__lab__report\"><tr><th>Test</th><th>03-Apr-2025</th><th>Reference&#xA0;Range</th><th>Unit</th></tr><tr><td>Calcium [Mass/volume] in Blood</td><td>8.8</td><td>8.6 - 10.2</td><td></td><td>mg/dL</td></tr></table></div>"
        },
        "status": "final",
        "subject": {
          "reference": "urn:uuid:7d3a2b0c-5be9-4a3e-8adf-29f1d009836c",
          "display": "Pelayo Casal"
        },
        "effectiveDateTime": "2025-04-03T05:38:59Z",
        "specimen": {
          "reference": "urn:uuid:9912add1-ce41-48d4-928d-b946c622f6f3"
        }
      }
    },
    {
      "fullUrl": "urn:uuid:e5dc0a20-9648-4510-97eb-c2e742b9b027",
      "resource": {
        "resourceType": "Observation",
        "id": "e5dc0a20-9648-4510-97eb-c2e742b9b027",
        "meta": {
          "profile": [
            "http://hl7.eu/fhir/laboratory/StructureDefinition/Observation-resultslab-eu-lab"
          ]
        },
        "performer": [
          {
            "display": "The Central European Lab"
          }
        ],
        "category": [
          {
            "coding": [
              {
                "system": "http://terminology.hl7.org/CodeSystem/observation-category",
                "code": "laboratory"
              }
            ]
          }
        ],
        "code": {
          "coding": [
            {
              "code": "2947-0",
              "system": "http://loinc.org",
              "display": "Sodium [Moles/volume] in Blood"
            }
          ],
          "text": "Sodium [Moles/volume] in Blood"
        },
        "valueQuantity": {
          "system": "http://unitsofmeasure.org",
          "value": 139.8,
          "unit": "mmol/L",
          "code": "mmol/L"
        },
        "referenceRange": [
          {
            "low": {
              "value": 135,
              "code": "mmol/L",
              "system": "http://unitsofmeasure.org"
            }
          },
          {
            "high": {
              "value": 145,
              "code": "mmol/L",
              "system": "http://unitsofmeasure.org"
            }
          }
        ],
        "text": {
          "status": "generated",
          "div": "<div xmlns=\"http://www.w3.org/1999/xhtml\"><table class=\"hl7__eu__lab__report\"><tr><th>Test</th><th>03-Apr-2025</th><th>Reference&#xA0;Range</th><th>Unit</th></tr><tr><td>Sodium [Moles/volume] in Blood</td><td>139.8</td><td>135 - 145</td><td></td><td>mmol/L</td></tr></table></div>"
        },
        "status": "final",
        "subject": {
          "reference": "urn:uuid:7d3a2b0c-5be9-4a3e-8adf-29f1d009836c",
          "display": "Pelayo Casal"
        },
        "effectiveDateTime": "2025-04-03T05:38:59Z",
        "specimen": {
          "reference": "urn:uuid:9912add1-ce41-48d4-928d-b946c622f6f3"
        }
      }
    },
    {
      "fullUrl": "urn:uuid:c7b571fc-bfb6-4af6-86ce-32ab865b8a71",
      "resource": {
        "resourceType": "Observation",
        "id": "c7b571fc-bfb6-4af6-86ce-32ab865b8a71",
        "meta": {
          "profile": [
            "http://hl7.eu/fhir/laboratory/StructureDefinition/Observation-resultslab-eu-lab"
          ]
        },
        "performer": [
          {
            "display": "The Central European Lab"
          }
        ],
        "category": [
          {
            "coding": [
              {
                "system": "http://terminology.hl7.org/CodeSystem/observation-category",
                "code": "laboratory"
              }
            ]
          }
        ],
        "code": {
          "coding": [
            {
              "code": "6298-4",
              "system": "http://loinc.org",
              "display": "Potassium [Moles/volume] in Blood"
            }
          ],
          "text": "Potassium [Moles/volume] in Blood"
        },
        "valueQuantity": {
          "system": "http://unitsofmeasure.org",
          "value": 3.7,
          "unit": "mmol/L",
          "code": "mmol/L"
        },
        "referenceRange": [
          {
            "low": {
              "value": 3.5,
              "code": "mmol/L",
              "system": "http://unitsofmeasure.org"
            }
          },
          {
            "high": {
              "value": 5.1,
              "code": "mmol/L",
              "system": "http://unitsofmeasure.org"
            }
          }
        ],
        "text": {
          "status": "generated",
          "div": "<div xmlns=\"http://www.w3.org/1999/xhtml\"><table class=\"hl7__eu__lab__report\"><tr><th>Test</th><th>03-Apr-2025</th><th>Reference&#xA0;Range</th><th>Unit</th></tr><tr><td>Potassium [Moles/volume] in Blood</td><td>3.7</td><td>3.5 - 5.1</td><td></td><td>mmol/L</td></tr></table></div>"
        },
        "status": "final",
        "subject": {
          "reference": "urn:uuid:7d3a2b0c-5be9-4a3e-8adf-29f1d009836c",
          "display": "Pelayo Casal"
        },
        "effectiveDateTime": "2025-04-03T05:38:59Z",
        "specimen": {
          "reference": "urn:uuid:9912add1-ce41-48d4-928d-b946c622f6f3"
        }
      }
    },
    {
      "fullUrl": "urn:uuid:77bc7952-e652-40aa-bfb3-7c4246458675",
      "resource": {
        "resourceType": "Observation",
        "id": "77bc7952-e652-40aa-bfb3-7c4246458675",
        "meta": {
          "profile": [
            "http://hl7.eu/fhir/laboratory/StructureDefinition/Observation-resultslab-eu-lab"
          ]
        },
        "performer": [
          {
            "display": "The Central European Lab"
          }
        ],
        "category": [
          {
            "coding": [
              {
                "system": "http://terminology.hl7.org/CodeSystem/observation-category",
                "code": "laboratory"
              }
            ]
          }
        ],
        "code": {
          "coding": [
            {
              "code": "2069-3",
              "system": "http://loinc.org",
              "display": "Chloride [Moles/volume] in Blood"
            }
          ],
          "text": "Chloride [Moles/volume] in Blood"
        },
        "valueQuantity": {
          "system": "http://unitsofmeasure.org",
          "value": 108.7,
          "unit": "mmol/L",
          "code": "mmol/L"
        },
        "referenceRange": [
          {
            "low": {
              "value": 98,
              "code": "mmol/L",
              "system": "http://unitsofmeasure.org"
            }
          },
          {
            "high": {
              "value": 108,
              "code": "mmol/L",
              "system": "http://unitsofmeasure.org"
            }
          }
        ],
        "interpretation": [
          {
            "coding": [
              {
                "code": "H",
                "system": "http://terminology.hl7.org/CodeSystem/v3-ObservationInterpretation",
                "display": "High"
              }
            ]
          }
        ],
        "text": {
          "status": "generated",
          "div": "<div xmlns=\"http://www.w3.org/1999/xhtml\"><table class=\"hl7__eu__lab__report\"><tr><th>Test</th><th>03-Apr-2025</th><th>Reference&#xA0;Range</th><th>Unit</th></tr><tr><td>Chloride [Moles/volume] in Blood</td><td>108.7</td><td>98 - 108</td><td>H</td><td>mmol/L</td></tr></table></div>"
        },
        "status": "final",
        "subject": {
          "reference": "urn:uuid:7d3a2b0c-5be9-4a3e-8adf-29f1d009836c",
          "display": "Pelayo Casal"
        },
        "effectiveDateTime": "2025-04-03T05:38:59Z",
        "specimen": {
          "reference": "urn:uuid:9912add1-ce41-48d4-928d-b946c622f6f3"
        }
      }
    },
    {
      "fullUrl": "urn:uuid:30130b5b-e970-4a80-956b-a42ecf086a84",
      "resource": {
        "resourceType": "Observation",
        "id": "30130b5b-e970-4a80-956b-a42ecf086a84",
        "meta": {
          "profile": [
            "http://hl7.eu/fhir/laboratory/StructureDefinition/Observation-resultslab-eu-lab"
          ]
        },
        "performer": [
          {
            "display": "The Central European Lab"
          }
        ],
        "category": [
          {
            "coding": [
              {
                "system": "http://terminology.hl7.org/CodeSystem/observation-category",
                "code": "laboratory"
              }
            ]
          }
        ],
        "code": {
          "coding": [
            {
              "code": "20565-8",
              "system": "http://loinc.org",
              "display": "Carbon dioxide, total [Moles/volume] in Blood"
            }
          ],
          "text": "Carbon dioxide, total [Moles/volume] in Blood"
        },
        "valueQuantity": {
          "system": "http://unitsofmeasure.org",
          "value": 21.9,
          "unit": "mmol/L",
          "code": "mmol/L"
        },
        "referenceRange": [
          {
            "low": {
              "value": 22,
              "code": "mmol/L",
              "system": "http://unitsofmeasure.org"
            }
          },
          {
            "high": {
              "value": 32,
              "code": "mmol/L",
              "system": "http://unitsofmeasure.org"
            }
          }
        ],
        "interpretation": [
          {
            "coding": [
              {
                "code": "L",
                "system": "http://terminology.hl7.org/CodeSystem/v3-ObservationInterpretation",
                "display": "Low"
              }
            ]
          }
        ],
        "text": {
          "status": "generated",
          "div": "<div xmlns=\"http://www.w3.org/1999/xhtml\"><table class=\"hl7__eu__lab__report\"><tr><th>Test</th><th>03-Apr-2025</th><th>Reference&#xA0;Range</th><th>Unit</th></tr><tr><td>Carbon dioxide, total [Moles/volume] in Blood</td><td>21.9</td><td>22 - 32</td><td>L</td><td>mmol/L</td></tr></table></div>"
        },
        "status": "final",
        "subject": {
          "reference": "urn:uuid:7d3a2b0c-5be9-4a3e-8adf-29f1d009836c",
          "display": "Pelayo Casal"
        },
        "effectiveDateTime": "2025-04-03T05:38:59Z",
        "specimen": {
          "reference": "urn:uuid:9912add1-ce41-48d4-928d-b946c622f6f3"
        }
      }
    },
    {
      "fullUrl": "urn:uuid:48df9720-0ab9-44a6-9223-405c9f53cac1",
      "resource": {
        "resourceType": "Device",
        "id": "48df9720-0ab9-44a6-9223-405c9f53cac1",
        "deviceName": [
          {
            "name": "SYNDERAI Synthetic Generator",
            "type": "manufacturer-name"
          }
        ],
        "version": [
          {
            "value": "5.0"
          }
        ],
        "text": {
          "status": "generated",
          "div": "<div xmlns=\"http://www.w3.org/1999/xhtml\">SYNDERAI Synthetic Generator v5.0</div>"
        },
        "status": "active\"",
        "distinctIdentifier": "synderai-generator-50",
        "manufacturer": "SYNDERAI Project"
      }
    },
    {
      "fullUrl": "urn:uuid:9d80269d-ddab-4b26-8d6a-223fe8c06a18",
      "resource": {
        "resourceType": "Provenance",
        "id": "9d80269d-ddab-4b26-8d6a-223fe8c06a18",
        "target": [
          {
            "reference": "Patient/7d3a2b0c-5be9-4a3e-8adf-29f1d009836c"
          },
          {
            "reference": "Bundle/4e118ef6-552d-4e0d-b85a-630d95a56473"
          },
          {
            "reference": "Composition/b2cc58ec-17f8-4aba-a1fb-ad327ca5bc91"
          },
          {
            "reference": "PractitionerRole/64849b56-fd00-4c1a-9e52-0cd906e9ce56"
          },
          {
            "reference": "Practitioner/59688c5b-b04f-4f4f-ab69-21c393df2542"
          },
          {
            "reference": "PractitionerRole/5d043239-9c26-4dfe-b00c-d3aad771c6ac"
          },
          {
            "reference": "Organization/23577095-7883-4bb5-9e1a-d773144c91ef"
          }
        ],
        "activity": {
          "text": "Synthetic Example Data Generation"
        },
        "policy": [
          "https://synderai.net/synderai-synthetic-data-policy"
        ],
        "agent": [
          {
            "type": {
              "text": "author"
            },
            "who": {
              "reference": "Device/48df9720-0ab9-44a6-9223-405c9f53cac1"
            }
          }
        ],
        "reason": [
          {
            "text": "Interoperability Testing and Training (non-clinical use)"
          }
        ],
        "text": {
          "status": "generated",
          "div": "<div xmlns=\"http://www.w3.org/1999/xhtml\">Provenance for SYNDERAI Synthetic Example Data Resource</div>"
        },
        "recorded": "2025-04-03T07:38:59Z"
      }
    },
    {
      "fullUrl": "urn:uuid:64849b56-fd00-4c1a-9e52-0cd906e9ce56",
      "resource": {
        "resourceType": "PractitionerRole",
        "id": "64849b56-fd00-4c1a-9e52-0cd906e9ce56",
        "meta": {
          "profile": [
            "http://hl7.eu/fhir/base/StructureDefinition/practitionerRole-eu"
          ]
        },
        "text": {
          "status": "generated",
          "div": "<div xmlns=\"http://www.w3.org/1999/xhtml\">Laboratory Role Id: 64849b56-fd00-4c1a-9e52-0cd906e9ce56</div>"
        },
        "practitioner": {
          "reference": "urn:uuid:59688c5b-b04f-4f4f-ab69-21c393df2542"
        }
      }
    },
    {
      "fullUrl": "urn:uuid:59688c5b-b04f-4f4f-ab69-21c393df2542",
      "resource": {
        "resourceType": "Practitioner",
        "id": "59688c5b-b04f-4f4f-ab69-21c393df2542",
        "meta": {
          "profile": [
            "http://hl7.eu/fhir/base/StructureDefinition/practitioner-eu"
          ]
        },
        "identifier": [
          {
            "assigner": {
              "display": "HL7 Europe"
            },
            "system": "urn:oid:2.16.840.1.113883.2.51.999",
            "value": "55d75915-d7c8-448f-b4bb-6cfb86aaf2c1"
          }
        ],
        "name": [
          {
            "prefix": [
              "dr"
            ],
            "given": [
              "Ex"
            ],
            "family": "Ample"
          }
        ],
        "address": [
          {
            "line": [
              "Laboratoire Central Européenne",
              "Boulevard du Jardin Botanique 32"
            ],
            "postalCode": "1000",
            "city": "Brussels",
            "country": "Belgium"
          }
        ],
        "text": {
          "status": "generated",
          "div": "<div xmlns=\"http://www.w3.org/1999/xhtml\">Laboratory: Laboratoire Central Européenne, 1000 Brussels, Belgium</div>"
        }
      }
    }
  ],
  "type": "document",
  "timestamp": "2025-04-03T07:38:59Z"
}
