{
  "resourceType": "Bundle",
  "id": "ca73d9c9-102e-4441-b30e-d008aa48d51e",
  "meta": {
    "profile": [
      "http://hl7.eu/fhir/laboratory/StructureDefinition/Bundle-eu-lab"
    ]
  },
  "identifier": {
    "assigner": {
      "display": "HL7 Europe"
    },
    "system": "urn:oid:2.16.840.1.113883.2.51.999",
    "value": "6da5051f-24fd-4948-b89c-07869c7e7b27"
  },
  "entry": [
    {
      "fullUrl": "urn:uuid:1e33f006-482b-47a4-bdd0-e06bc2e65bdd",
      "resource": {
        "resourceType": "Composition",
        "id": "1e33f006-482b-47a4-bdd0-e06bc2e65bdd",
        "meta": {
          "profile": [
            "http://hl7.eu/fhir/laboratory/StructureDefinition/Composition-eu-lab"
          ]
        },
        "identifier": {
          "assigner": {
            "display": "HL7 Europe"
          },
          "system": "urn:oid:2.16.840.1.113883.2.51.999",
          "value": "9589a795-b25c-4466-ba7d-d91b358af6e8"
        },
        "author": [
          {
            "reference": "urn:uuid:9cb8769c-b068-4b8b-8749-f16846027e0b"
          }
        ],
        "category": [
          {
            "coding": [
              {
                "code": "26436-6",
                "system": "http://loinc.org",
                "display": "Laboratory studies (set)"
              }
            ]
          }
        ],
        "type": {
          "coding": [
            {
              "code": "11502-2",
              "system": "http://loinc.org",
              "display": "Laboratory report"
            }
          ],
          "text": "Laboratory Report"
        },
        "section": [
          {
            "code": {
              "coding": [
                {
                  "code": "26436-6",
                  "system": "http://loinc.org",
                  "display": "Laboratory studies (set)"
                }
              ],
              "text": "Laboratory studies"
            },
            "section": [
              {
                "code": {
                  "coding": [
                    {
                      "code": "$18719-5",
                      "system": "http://loinc.org",
                      "display": "Chemistry studies (set)"
                    }
                  ],
                  "text": "Chemistry"
                },
                "entry": [
                  {
                    "reference": "urn:uuid:748952d7-1cdc-4a48-94f2-ff050330a991"
                  },
                  {
                    "reference": "urn:uuid:85e0f49e-c25e-458a-987e-009e8fb246a5"
                  },
                  {
                    "reference": "urn:uuid:8bce38cf-c4ff-44e8-9f41-24a503b91fc1"
                  },
                  {
                    "reference": "urn:uuid:0009c429-27f8-4626-a779-cd5e1e7d9117"
                  },
                  {
                    "reference": "urn:uuid:6b8b4bf6-19e2-465a-bcf7-e0898fdada4f"
                  },
                  {
                    "reference": "urn:uuid:b15b5763-e15a-4a0b-9902-7490731caf2d"
                  },
                  {
                    "reference": "urn:uuid:3baffb7f-cf95-415b-81d7-99f7c3e8e546"
                  },
                  {
                    "reference": "urn:uuid:9213edfe-7d8b-4faa-84b3-b2fd3b60cfe2"
                  },
                  {
                    "reference": "urn:uuid:51b7102b-badc-42fd-bca4-63da127d7782"
                  },
                  {
                    "reference": "urn:uuid:80e231ca-de34-4504-84f7-1d3e6503b82b"
                  },
                  {
                    "reference": "urn:uuid:3c0d26ed-4acf-46b8-b4b7-95bf5192f965"
                  },
                  {
                    "reference": "urn:uuid:69431401-56e5-4634-9366-f9694c55fc6d"
                  },
                  {
                    "reference": "urn:uuid:094d9a19-848d-483e-9807-a28afa842a44"
                  },
                  {
                    "reference": "urn:uuid:4adfb9d6-fac4-43b0-8a24-e0d087ca8380"
                  },
                  {
                    "reference": "urn:uuid:88b4ca90-95b9-4359-94af-09ade9b73d64"
                  },
                  {
                    "reference": "urn:uuid:cf495dc1-a01c-40b1-9c82-8071e881f9b4"
                  },
                  {
                    "reference": "urn:uuid:e8fe6262-0a5d-4bcf-8240-59d7aae0bb36"
                  },
                  {
                    "reference": "urn:uuid:23618666-da76-4fa5-88c3-2ba862a36f31"
                  },
                  {
                    "reference": "urn:uuid:cc3de1f9-8035-4076-9227-81b7ba21e2e4"
                  },
                  {
                    "reference": "urn:uuid:e7f4f088-a6d8-4a67-bb1f-bb3d370bb79c"
                  },
                  {
                    "reference": "urn:uuid:ce22c333-9be6-4faa-9130-eeab8f6a8b1a"
                  },
                  {
                    "reference": "urn:uuid:c646218f-c679-4efc-9d4d-1bd83dd9d7da"
                  }
                ],
                "text": {
                  "status": "generated",
                  "div": "<div xmlns=\"http://www.w3.org/1999/xhtml\"><h3>Chemistry</h3><table class=\"hl7__eu__lab__report\"><thead><tr><th>Test</th><th>06-MAR-2022</th><th>Reference&#xA0;Range</th><th>Unit</th></tr></thead><tbody><tr><td>Glucose [Mass/volume] in Serum or Plasma</td><td>82.0</td><td>70 - 99</td><td>mg/dL</td></tr><tr><td>Urea nitrogen [Mass/volume] in Serum or Plasma</td><td>7.5</td><td>7 - 20</td><td>mg/dL</td></tr><tr><td>Creatinine [Mass/volume] in Serum or Plasma</td><td><strong>1.8 H</strong></td><td>0.6 - 1.3</td><td>mg/dL</td></tr><tr><td>Calcium [Mass/volume] in Serum or Plasma</td><td>8.6</td><td>8.6 - 10.4</td><td>mg/dL</td></tr><tr><td>Sodium [Moles/volume] in Serum or Plasma</td><td>138.0</td><td>135 - 145</td><td>mmol/L</td></tr><tr><td>Potassium [Moles/volume] in Serum or Plasma</td><td>4.7</td><td>3.5 - 5</td><td>mmol/L</td></tr><tr><td>Chloride [Moles/volume] in Serum or Plasma</td><td><strong>110.8 H</strong></td><td>98 - 106</td><td>mmol/L</td></tr><tr><td>Carbon dioxide, total [Moles/volume] in Serum or Plasma</td><td>28.7</td><td>22 - 29</td><td>mmol/L</td></tr><tr><td>Ketones [Presence] in Urine by Test strip</td><td>Urine ketone test = trace</td><td></td><td></td></tr><tr><td>Hemoglobin A1c/Hemoglobin.total in Blood</td><td><strong>3.1 L</strong></td><td>4 - 6</td><td>%</td></tr><tr><td>Glucose [Mass/volume] in Blood</td><td>82.0</td><td>70 - 140</td><td>mg/dL</td></tr><tr><td>Urea nitrogen [Mass/volume] in Blood</td><td>7.5</td><td>7 - 25</td><td>mg/dL</td></tr><tr><td>Creatinine [Mass/volume] in Blood</td><td><strong>1.3 H</strong></td><td>0.6 - 1.1</td><td>mg/dL</td></tr><tr><td>Calcium [Mass/volume] in Blood</td><td>8.6</td><td>8.6 - 10.4</td><td>mg/dL</td></tr><tr><td>Sodium [Moles/volume] in Blood</td><td>138.0</td><td>135 - 145</td><td>mmol/L</td></tr><tr><td>Potassium [Moles/volume] in Blood</td><td>4.7</td><td>3.5 - 5.1</td><td>mmol/L</td></tr><tr><td>Chloride [Moles/volume] in Blood</td><td><strong>110.8 H</strong></td><td>98 - 110</td><td>mmol/L</td></tr><tr><td>Carbon dioxide, total [Moles/volume] in Blood</td><td>28.7</td><td>22 - 29</td><td>mmol/L</td></tr><tr><td>Cholesterol [Mass/volume] in Serum or Plasma</td><td>176.6</td><td>130 - 200</td><td>mg/dL</td></tr><tr><td>Triglyceride [Mass/volume] in Serum or Plasma</td><td>126.6</td><td>35 - 150</td><td>mg/dL</td></tr><tr><td>Cholesterol in LDL [Mass/volume] in Serum or Plasma by Direct assay</td><td>104.8</td><td>0 - 130</td><td>mg/dL</td></tr><tr><td>Cholesterol in HDL [Mass/volume] in Serum or Plasma</td><td><strong>46.4 L</strong></td><td>50 - 100</td><td>mg/dL</td></tr></tbody></table></div>"
                },
                "title": "Chemistry"
              },
              {
                "code": {
                  "coding": [
                    {
                      "code": "$18729-4",
                      "system": "http://loinc.org",
                      "display": "Urinalysis studies (set)"
                    }
                  ],
                  "text": "Urinalysis"
                },
                "entry": [
                  {
                    "reference": "urn:uuid:b3915576-3770-40b0-8198-68a2595708bd"
                  },
                  {
                    "reference": "urn:uuid:16161c12-90d6-440e-aedc-28087c88b6bd"
                  },
                  {
                    "reference": "urn:uuid:74f5afcb-2ee6-4139-aa38-7c6aaece9223"
                  },
                  {
                    "reference": "urn:uuid:6e221f55-e23f-47de-88c9-ef81a656d30d"
                  },
                  {
                    "reference": "urn:uuid:996aafe7-8481-42d3-b31c-1a227f8fed36"
                  },
                  {
                    "reference": "urn:uuid:1d628b71-a847-499d-8726-3a80e91e1aff"
                  },
                  {
                    "reference": "urn:uuid:aa9561ce-6f1a-477e-a5d2-7f4d7100516b"
                  },
                  {
                    "reference": "urn:uuid:569b86d3-47a0-4969-9d3d-cc74dd38fc00"
                  },
                  {
                    "reference": "urn:uuid:3138c71a-faf4-42f2-a8fd-59c5c7aee9f5"
                  },
                  {
                    "reference": "urn:uuid:0141f4bc-f9ea-484b-8a4f-a123284f14ff"
                  },
                  {
                    "reference": "urn:uuid:d8d5f4c4-946c-4662-8d31-15f6bc514fc2"
                  },
                  {
                    "reference": "urn:uuid:25247848-3fad-456f-a960-9015b83c5455"
                  }
                ],
                "text": {
                  "status": "generated",
                  "div": "<div xmlns=\"http://www.w3.org/1999/xhtml\"><h3>Urinalysis</h3><table class=\"hl7__eu__lab__report\"><thead><tr><th>Test</th><th>06-MAR-2022</th><th>Reference&#xA0;Range</th><th>Unit</th></tr></thead><tbody><tr><td>Glucose [Mass/volume] in Urine by Test strip</td><td><strong>0.9 H</strong></td><td>0 - 0.8</td><td>mg/dL</td></tr><tr><td>Glucose [Presence] in Urine by Test strip</td><td>++</td><td></td><td></td></tr><tr><td>Bilirubin.total [Mass/volume] in Urine by Test strip</td><td>0.7</td><td>0 - 1</td><td>mg/dL</td></tr><tr><td>Bilirubin.total [Presence] in Urine by Test strip</td><td>Finding of bilirubin in urine</td><td></td><td></td></tr><tr><td>Ketones [Mass/volume] in Urine by Test strip</td><td><strong>17.3 H</strong></td><td>0 - 4</td><td>mg/dL</td></tr><tr><td>Specific gravity of Urine by Test strip</td><td><strong>1.0 L</strong></td><td>1.005 - 1.03</td><td>{nominal}</td></tr><tr><td>pH of Urine by Test strip</td><td>5.6</td><td>4.5 - 7</td><td>pH</td></tr><tr><td>Protein [Mass/volume] in Urine by Test strip</td><td>129.7</td><td>0 - 145</td><td>mg/dL</td></tr><tr><td>Protein [Presence] in Urine by Test strip</td><td>Urine protein test = +</td><td></td><td></td></tr><tr><td>Nitrite [Presence] in Urine by Test strip</td><td>Urine nitrite negative</td><td></td><td></td></tr><tr><td>Hemoglobin [Presence] in Urine by Test strip</td><td>Urine blood test = negative</td><td></td><td></td></tr><tr><td>Leukocyte esterase [Presence] in Urine by Test strip</td><td>Urine leukocyte test negative</td><td></td><td></td></tr></tbody></table></div>"
                },
                "title": "Urinalysis"
              },
              {
                "code": {
                  "coding": [
                    {
                      "code": "$LP7846-1",
                      "system": "http://loinc.org",
                      "display": "Specimen information"
                    }
                  ],
                  "text": "Specimen information"
                },
                "entry": [
                  {
                    "reference": "urn:uuid:a4e345f1-06ed-48cd-a18a-5e75914ca4be"
                  },
                  {
                    "reference": "urn:uuid:9bbc5e1b-889f-4954-b1f4-8ab9f8a7f60a"
                  },
                  {
                    "reference": "urn:uuid:ee80b6b6-673c-4ab0-9cfd-fca29fa65aa8"
                  },
                  {
                    "reference": "urn:uuid:47698e1d-21d3-4d79-9274-66509829796b"
                  }
                ],
                "text": {
                  "status": "generated",
                  "div": "<div xmlns=\"http://www.w3.org/1999/xhtml\"><h3>Specimen information</h3><table class=\"hl7__eu__lab__report\"><thead><tr><th>Test</th><th>06-MAR-2022</th><th>Specimen</th><th></th></tr></thead><tbody><tr><td>Appearance of Urine</td><td>Cloudy urine</td><td>Urine</td><td></td></tr><tr><td>Odor of Urine</td><td>Urine smell ammoniacal</td><td>Urine</td><td></td></tr><tr><td>Clarity of Urine</td><td>Translucent</td><td>Urine</td><td></td></tr><tr><td>Color of Urine</td><td>Brown color</td><td>Urine</td><td></td></tr></tbody></table></div>"
                },
                "title": "Specimen information"
              }
            ],
            "title": "Laboratory Report"
          },
          {
            "text": {
              "status": "generated",
              "div": "<div xmlns=\"http://www.w3.org/1999/xhtml\"><h3>Annotation</h3><table class=\"hl7__eu__lab__report\"><tr><th>Conclusion and Recommendations based on this report and previous findings known to us</th></tr><tr><td>The patient shows mildly elevated creatinine and chloride, suggesting possible renal impairment or dehydration. Urine findings (cloudy, brown, low specific gravity, glucosuria, ketonuria, proteinuria) may indicate renal dysfunction, metabolic disturbance, or possible infection, though nitrites and leukocytes are negative. Low HbA1c with normal glucose is unusual and may warrant further investigation. HDL cholesterol is slightly low. Recommend clinical correlation and further renal and metabolic assessment.</td></tr></table></div>"
            },
            "code": {
              "coding": [
                {
                  "system": "http://loinc.org",
                  "code": "48767-8",
                  "display": "Annotation comment"
                }
              ]
            },
            "title": "Annotation comment"
          }
        ],
        "status": "final",
        "subject": {
          "reference": "urn:uuid:a1581a91-ee43-4672-81e5-cd3a4469f9ef",
          "display": "Iva Kratochvílová"
        },
        "date": "2022-03-06T17:10:29Z",
        "title": "Laboratory Report",
        "confidentiality": "N"
      }
    },
    {
      "fullUrl": "urn:uuid:6a2fe39a-0246-49d4-9d86-4581164543d6",
      "resource": {
        "resourceType": "DiagnosticReport",
        "id": "6a2fe39a-0246-49d4-9d86-4581164543d6",
        "meta": {
          "profile": [
            "http://hl7.eu/fhir/laboratory/StructureDefinition/DiagnosticReport-eu-lab"
          ]
        },
        "identifier": [
          {
            "assigner": {
              "display": "HL7 Europe"
            },
            "system": "urn:oid:2.16.840.1.113883.2.51.999",
            "value": "ded09972-59a9-400d-9cfd-56bc1094560e"
          }
        ],
        "extension": [
          {
            "url": "http://hl7.org/fhir/5.0/StructureDefinition/extension-DiagnosticReport.composition",
            "valueReference": {
              "reference": "urn:uuid:9589a795-b25c-4466-ba7d-d91b358af6e8"
            }
          }
        ],
        "category": [
          {
            "coding": [
              {
                "code": "26436-6",
                "system": "http://loinc.org",
                "display": "Laboratory studies (set)"
              }
            ]
          }
        ],
        "specimen": [
          {
            "reference": "urn:uuid:6db9601b-b00f-42c4-a493-518b64c65310"
          },
          {
            "reference": "urn:uuid:cbd4c956-2579-4223-b8a2-7e4b19eba4be"
          },
          {
            "reference": "urn:uuid:7379b979-4eb4-45bb-91df-2f38a4146deb"
          }
        ],
        "result": [
          {
            "reference": "urn:uuid:748952d7-1cdc-4a48-94f2-ff050330a991"
          },
          {
            "reference": "urn:uuid:85e0f49e-c25e-458a-987e-009e8fb246a5"
          },
          {
            "reference": "urn:uuid:8bce38cf-c4ff-44e8-9f41-24a503b91fc1"
          },
          {
            "reference": "urn:uuid:0009c429-27f8-4626-a779-cd5e1e7d9117"
          },
          {
            "reference": "urn:uuid:6b8b4bf6-19e2-465a-bcf7-e0898fdada4f"
          },
          {
            "reference": "urn:uuid:b15b5763-e15a-4a0b-9902-7490731caf2d"
          },
          {
            "reference": "urn:uuid:3baffb7f-cf95-415b-81d7-99f7c3e8e546"
          },
          {
            "reference": "urn:uuid:9213edfe-7d8b-4faa-84b3-b2fd3b60cfe2"
          },
          {
            "reference": "urn:uuid:a4e345f1-06ed-48cd-a18a-5e75914ca4be"
          },
          {
            "reference": "urn:uuid:9bbc5e1b-889f-4954-b1f4-8ab9f8a7f60a"
          },
          {
            "reference": "urn:uuid:ee80b6b6-673c-4ab0-9cfd-fca29fa65aa8"
          },
          {
            "reference": "urn:uuid:47698e1d-21d3-4d79-9274-66509829796b"
          },
          {
            "reference": "urn:uuid:b3915576-3770-40b0-8198-68a2595708bd"
          },
          {
            "reference": "urn:uuid:16161c12-90d6-440e-aedc-28087c88b6bd"
          },
          {
            "reference": "urn:uuid:74f5afcb-2ee6-4139-aa38-7c6aaece9223"
          },
          {
            "reference": "urn:uuid:6e221f55-e23f-47de-88c9-ef81a656d30d"
          },
          {
            "reference": "urn:uuid:996aafe7-8481-42d3-b31c-1a227f8fed36"
          },
          {
            "reference": "urn:uuid:51b7102b-badc-42fd-bca4-63da127d7782"
          },
          {
            "reference": "urn:uuid:1d628b71-a847-499d-8726-3a80e91e1aff"
          },
          {
            "reference": "urn:uuid:aa9561ce-6f1a-477e-a5d2-7f4d7100516b"
          },
          {
            "reference": "urn:uuid:569b86d3-47a0-4969-9d3d-cc74dd38fc00"
          },
          {
            "reference": "urn:uuid:3138c71a-faf4-42f2-a8fd-59c5c7aee9f5"
          },
          {
            "reference": "urn:uuid:0141f4bc-f9ea-484b-8a4f-a123284f14ff"
          },
          {
            "reference": "urn:uuid:d8d5f4c4-946c-4662-8d31-15f6bc514fc2"
          },
          {
            "reference": "urn:uuid:25247848-3fad-456f-a960-9015b83c5455"
          },
          {
            "reference": "urn:uuid:80e231ca-de34-4504-84f7-1d3e6503b82b"
          },
          {
            "reference": "urn:uuid:3c0d26ed-4acf-46b8-b4b7-95bf5192f965"
          },
          {
            "reference": "urn:uuid:69431401-56e5-4634-9366-f9694c55fc6d"
          },
          {
            "reference": "urn:uuid:094d9a19-848d-483e-9807-a28afa842a44"
          },
          {
            "reference": "urn:uuid:4adfb9d6-fac4-43b0-8a24-e0d087ca8380"
          },
          {
            "reference": "urn:uuid:88b4ca90-95b9-4359-94af-09ade9b73d64"
          },
          {
            "reference": "urn:uuid:cf495dc1-a01c-40b1-9c82-8071e881f9b4"
          },
          {
            "reference": "urn:uuid:e8fe6262-0a5d-4bcf-8240-59d7aae0bb36"
          },
          {
            "reference": "urn:uuid:23618666-da76-4fa5-88c3-2ba862a36f31"
          },
          {
            "reference": "urn:uuid:cc3de1f9-8035-4076-9227-81b7ba21e2e4"
          },
          {
            "reference": "urn:uuid:e7f4f088-a6d8-4a67-bb1f-bb3d370bb79c"
          },
          {
            "reference": "urn:uuid:ce22c333-9be6-4faa-9130-eeab8f6a8b1a"
          },
          {
            "reference": "urn:uuid:c646218f-c679-4efc-9d4d-1bd83dd9d7da"
          }
        ],
        "status": "registered",
        "code": {
          "coding": [
            {
              "code": "11502-2",
              "system": "http://loinc.org",
              "display": "Laboratory report"
            }
          ]
        },
        "subject": {
          "reference": "urn:uuid:a1581a91-ee43-4672-81e5-cd3a4469f9ef",
          "display": "Iva Kratochvílová"
        }
      }
    },
    {
      "fullUrl": "urn:uuid:a1581a91-ee43-4672-81e5-cd3a4469f9ef",
      "resource": {
        "resourceType": "Patient",
        "id": "a1581a91-ee43-4672-81e5-cd3a4469f9ef",
        "meta": {
          "security": [
            {
              "system": "http://terminology.hl7.org/CodeSystem/v3-ActReason",
              "code": "HTEST"
            },
            {
              "system": "http://terminology.hl7.org/CodeSystem/v3-ActReason",
              "code": "TRAIN"
            }
          ],
          "tag": [
            {
              "system": "https://synderai.net/fhir/CodeSystem/tags",
              "code": "synthetic",
              "display": "SYNDERAI Synthetic data"
            }
          ],
          "profile": [
            "http://hl7.eu/fhir/base/StructureDefinition/patient-eu-core"
          ]
        },
        "identifier": [
          {
            "type": {
              "coding": [
                {
                  "code": "PT",
                  "system": "http://terminology.hl7.org/CodeSystem/v2-0203"
                }
              ]
            },
            "system": "http://ec.europa.eu/identifier/eci",
            "value": "4380-389488-0"
          },
          {
            "type": {
              "coding": [
                {
                  "code": "MR",
                  "system": "http://terminology.hl7.org/CodeSystem/v2-0203"
                }
              ]
            },
            "system": "http://local.setting.eu/identifier",
            "value": "f8f9ebdc-03dd-2fc0-819c-affa4ffd7f67"
          }
        ],
        "name": [
          {
            "family": "Kratochvílová"
          },
          {
            "given": [
              "Iva"
            ]
          },
          {
            "text": "Iva Kratochvílová"
          }
        ],
        "address": [
          {
            "line": [
              "Žofie Podlipské 4"
            ],
            "use": "home",
            "type": "physical",
            "postalCode": "27324",
            "city": "Postoloprty",
            "country": "Czechia"
          }
        ],
        "telecom": [
          {
            "system": "phone",
            "value": "00420 607 985 072"
          }
        ],
        "extension": [
          {
            "url": "http://hl7.org/fhir/StructureDefinition/patient-nationality",
            "valueCodeableConcept": {
              "coding": [
                {
                  "code": "CZ",
                  "system": "http://hl7.org/fhir/ValueSet/country"
                }
              ]
            }
          }
        ],
        "text": {
          "status": "generated",
          "div": "<div xmlns=\"http://www.w3.org/1999/xhtml\"><table class=\"hl7__ips\"><tr><td>Iva Kratochvílová</td><td>female</td><td>17-Sep-1964</td></tr></table></div>"
        },
        "gender": "female",
        "birthDate": "1964-09-17"
      }
    },
    {
      "fullUrl": "urn:uuid:a095f335-3fb5-499b-8edc-362d69eb057e",
      "resource": {
        "resourceType": "ServiceRequest",
        "id": "a095f335-3fb5-499b-8edc-362d69eb057e",
        "meta": {
          "profile": [
            "http://hl7.eu/fhir/laboratory/StructureDefinition/ServiceRequest-eu-lab"
          ]
        },
        "identifier": [
          {
            "system": "http://example.org",
            "value": "67f68a96-edc6-4c4d-b8e1-6ef0b1fa6b09"
          }
        ],
        "specimen": [
          {
            "reference": "urn:uuid:6db9601b-b00f-42c4-a493-518b64c65310"
          },
          {
            "reference": "urn:uuid:cbd4c956-2579-4223-b8a2-7e4b19eba4be"
          },
          {
            "reference": "urn:uuid:7379b979-4eb4-45bb-91df-2f38a4146deb"
          }
        ],
        "reasonCode": [
          {
            "coding": [
              {
                "code": "431856006",
                "system": "http://snomed.info/sct",
                "display": "Chronic kidney disease stage 2"
              }
            ]
          },
          {
            "coding": [
              {
                "code": "431855005",
                "system": "http://snomed.info/sct",
                "display": "Chronic kidney disease stage 1"
              }
            ]
          },
          {
            "coding": [
              {
                "code": "237602007",
                "system": "http://snomed.info/sct",
                "display": "Metabolic syndrome X"
              }
            ]
          },
          {
            "coding": [
              {
                "code": "91302008",
                "system": "http://snomed.info/sct",
                "display": "Sepsis"
              }
            ]
          },
          {
            "coding": [
              {
                "code": "271737000",
                "system": "http://snomed.info/sct",
                "display": "Anemia"
              }
            ]
          },
          {
            "coding": [
              {
                "code": "15777000",
                "system": "http://snomed.info/sct",
                "display": "Prediabetes"
              }
            ]
          },
          {
            "coding": [
              {
                "code": "157141000119108",
                "system": "http://snomed.info/sct",
                "display": "Proteinuria due to type 2 diabetes mellitus"
              }
            ]
          },
          {
            "coding": [
              {
                "code": "90781000119102",
                "system": "http://snomed.info/sct",
                "display": "Microalbuminuria due to type 2 diabetes mellitus"
              }
            ]
          },
          {
            "coding": [
              {
                "code": "239872002",
                "system": "http://snomed.info/sct",
                "display": "Osteoarthritis of hip"
              }
            ]
          },
          {
            "coding": [
              {
                "code": "40055000",
                "system": "http://snomed.info/sct",
                "display": "Chronic sinusitis"
              }
            ]
          },
          {
            "coding": [
              {
                "code": "127013003",
                "system": "http://snomed.info/sct",
                "display": "Disorder of kidney due to diabetes mellitus"
              }
            ]
          },
          {
            "coding": [
              {
                "code": "59621000",
                "system": "http://snomed.info/sct",
                "display": "Essential hypertension"
              }
            ]
          }
        ],
        "status": "active",
        "intent": "order",
        "code": {
          "coding": [
            {
              "code": "108252007",
              "system": "http://snomed.info/sct",
              "display": "Laboratory procedure"
            }
          ]
        },
        "subject": {
          "reference": "urn:uuid:a1581a91-ee43-4672-81e5-cd3a4469f9ef",
          "display": "Iva Kratochvílová"
        },
        "requester": {
          "reference": "urn:uuid:71ed6e1d-b77b-49db-aaaf-00beac3b139c"
        }
      }
    },
    {
      "fullUrl": "urn:uuid:71ed6e1d-b77b-49db-aaaf-00beac3b139c",
      "resource": {
        "resourceType": "PractitionerRole",
        "id": "71ed6e1d-b77b-49db-aaaf-00beac3b139c",
        "meta": {
          "profile": [
            "http://hl7.eu/fhir/base/StructureDefinition/practitionerRole-eu"
          ]
        },
        "text": {
          "status": "generated",
          "div": "<div xmlns=\"http://www.w3.org/1999/xhtml\">Provider Role Id: 71ed6e1d-b77b-49db-aaaf-00beac3b139c</div>"
        },
        "organization": {
          "reference": "urn:uuid:e5bed464-332f-4726-847c-269851818e4a"
        }
      }
    },
    {
      "fullUrl": "urn:uuid:e5bed464-332f-4726-847c-269851818e4a",
      "resource": {
        "resourceType": "Organization",
        "id": "e5bed464-332f-4726-847c-269851818e4a",
        "meta": {
          "profile": [
            "http://hl7.eu/fhir/base/StructureDefinition/organization-eu"
          ]
        },
        "identifier": [
          {
            "assigner": {
              "display": "HL7 Europe"
            },
            "system": "urn:oid:2.16.840.1.113883.2.51.999",
            "value": "82259b0e-57d7-4084-9721-6296e79a4cc2"
          }
        ],
        "address": [
          {
            "city": "Kadaň",
            "postalCode": "432 01",
            "country": "Czechia"
          }
        ],
        "text": {
          "status": "generated",
          "div": "<div xmlns=\"http://www.w3.org/1999/xhtml\">Provider Organization: Nemocnice s poliklinikou Kadaň</div>"
        },
        "name": "Nemocnice s poliklinikou Kadaň"
      }
    },
    {
      "fullUrl": "urn:uuid:6db9601b-b00f-42c4-a493-518b64c65310",
      "resource": {
        "resourceType": "Specimen",
        "id": "6db9601b-b00f-42c4-a493-518b64c65310",
        "meta": {
          "profile": [
            "http://hl7.eu/fhir/laboratory/StructureDefinition/Specimen-eu-lab"
          ]
        },
        "collection": {
          "collectedDateTime": "2022-03-06"
        },
        "text": {
          "status": "generated",
          "div": "<div xmlns=\"http://www.w3.org/1999/xhtml\"><table class=\"hl7__eu__lab__report\"><tr><th>Specimen</th><th>Collection Date</th></tr><tr><td>Acellular blood (serum or plasma) specimen</td><td><span class=\"nb\">06-Mar-2022</span></td></tr></table></div>"
        },
        "type": {
          "coding": [
            {
              "code": "122592007",
              "system": "http://snomed.info/sct",
              "display": "Acellular blood (serum or plasma) specimen"
            }
          ]
        }
      }
    },
    {
      "fullUrl": "urn:uuid:cbd4c956-2579-4223-b8a2-7e4b19eba4be",
      "resource": {
        "resourceType": "Specimen",
        "id": "cbd4c956-2579-4223-b8a2-7e4b19eba4be",
        "meta": {
          "profile": [
            "http://hl7.eu/fhir/laboratory/StructureDefinition/Specimen-eu-lab"
          ]
        },
        "collection": {
          "collectedDateTime": "2022-03-06"
        },
        "text": {
          "status": "generated",
          "div": "<div xmlns=\"http://www.w3.org/1999/xhtml\"><table class=\"hl7__eu__lab__report\"><tr><th>Specimen</th><th>Collection Date</th></tr><tr><td>Urine specimen</td><td><span class=\"nb\">06-Mar-2022</span></td></tr></table></div>"
        },
        "type": {
          "coding": [
            {
              "code": "122575003",
              "system": "http://snomed.info/sct",
              "display": "Urine specimen"
            }
          ]
        }
      }
    },
    {
      "fullUrl": "urn:uuid:7379b979-4eb4-45bb-91df-2f38a4146deb",
      "resource": {
        "resourceType": "Specimen",
        "id": "7379b979-4eb4-45bb-91df-2f38a4146deb",
        "meta": {
          "profile": [
            "http://hl7.eu/fhir/laboratory/StructureDefinition/Specimen-eu-lab"
          ]
        },
        "collection": {
          "collectedDateTime": "2022-03-06"
        },
        "text": {
          "status": "generated",
          "div": "<div xmlns=\"http://www.w3.org/1999/xhtml\"><table class=\"hl7__eu__lab__report\"><tr><th>Specimen</th><th>Collection Date</th></tr><tr><td>Whole blood specimen (specimen)</td><td><span class=\"nb\">06-Mar-2022</span></td></tr></table></div>"
        },
        "type": {
          "coding": [
            {
              "code": "258580003",
              "system": "http://snomed.info/sct",
              "display": "Whole blood specimen (specimen)"
            }
          ]
        }
      }
    },
    {
      "fullUrl": "urn:uuid:748952d7-1cdc-4a48-94f2-ff050330a991",
      "resource": {
        "resourceType": "Observation",
        "id": "748952d7-1cdc-4a48-94f2-ff050330a991",
        "meta": {
          "profile": [
            "http://hl7.eu/fhir/laboratory/StructureDefinition/Observation-resultslab-eu-lab"
          ]
        },
        "performer": [
          {
            "display": "The Central European Lab"
          }
        ],
        "category": [
          {
            "coding": [
              {
                "system": "http://terminology.hl7.org/CodeSystem/observation-category",
                "code": "laboratory"
              }
            ]
          }
        ],
        "code": {
          "coding": [
            {
              "code": "2345-7",
              "system": "http://loinc.org",
              "display": "Glucose [Mass/volume] in Serum or Plasma"
            }
          ],
          "text": "Glucose [Mass/volume] in Serum or Plasma"
        },
        "valueQuantity": {
          "system": "http://unitsofmeasure.org",
          "value": 82,
          "unit": "mg/dL",
          "code": "mg/dL"
        },
        "referenceRange": [
          {
            "low": {
              "value": 70,
              "code": "mg/dL",
              "system": "http://unitsofmeasure.org"
            }
          },
          {
            "high": {
              "value": 99,
              "code": "mg/dL",
              "system": "http://unitsofmeasure.org"
            }
          }
        ],
        "text": {
          "status": "generated",
          "div": "<div xmlns=\"http://www.w3.org/1999/xhtml\"><table class=\"hl7__eu__lab__report\"><tr><th>Test</th><th>06-Mar-2022</th><th>Reference&#xA0;Range</th><th>Unit</th></tr><tr><td>Glucose [Mass/volume] in Serum or Plasma</td><td>82.0</td><td>70 - 99</td><td></td><td>mg/dL</td></tr></table></div>"
        },
        "status": "final",
        "subject": {
          "reference": "urn:uuid:a1581a91-ee43-4672-81e5-cd3a4469f9ef",
          "display": "Iva Kratochvílová"
        },
        "effectiveDateTime": "2022-03-06T16:10:29Z",
        "specimen": {
          "reference": "urn:uuid:6db9601b-b00f-42c4-a493-518b64c65310"
        }
      }
    },
    {
      "fullUrl": "urn:uuid:85e0f49e-c25e-458a-987e-009e8fb246a5",
      "resource": {
        "resourceType": "Observation",
        "id": "85e0f49e-c25e-458a-987e-009e8fb246a5",
        "meta": {
          "profile": [
            "http://hl7.eu/fhir/laboratory/StructureDefinition/Observation-resultslab-eu-lab"
          ]
        },
        "performer": [
          {
            "display": "The Central European Lab"
          }
        ],
        "category": [
          {
            "coding": [
              {
                "system": "http://terminology.hl7.org/CodeSystem/observation-category",
                "code": "laboratory"
              }
            ]
          }
        ],
        "code": {
          "coding": [
            {
              "code": "3094-0",
              "system": "http://loinc.org",
              "display": "Urea nitrogen [Mass/volume] in Serum or Plasma"
            }
          ],
          "text": "Urea nitrogen [Mass/volume] in Serum or Plasma"
        },
        "valueQuantity": {
          "system": "http://unitsofmeasure.org",
          "value": 7.5,
          "unit": "mg/dL",
          "code": "mg/dL"
        },
        "referenceRange": [
          {
            "low": {
              "value": 7,
              "code": "mg/dL",
              "system": "http://unitsofmeasure.org"
            }
          },
          {
            "high": {
              "value": 20,
              "code": "mg/dL",
              "system": "http://unitsofmeasure.org"
            }
          }
        ],
        "text": {
          "status": "generated",
          "div": "<div xmlns=\"http://www.w3.org/1999/xhtml\"><table class=\"hl7__eu__lab__report\"><tr><th>Test</th><th>06-Mar-2022</th><th>Reference&#xA0;Range</th><th>Unit</th></tr><tr><td>Urea nitrogen [Mass/volume] in Serum or Plasma</td><td>7.5</td><td>7 - 20</td><td></td><td>mg/dL</td></tr></table></div>"
        },
        "status": "final",
        "subject": {
          "reference": "urn:uuid:a1581a91-ee43-4672-81e5-cd3a4469f9ef",
          "display": "Iva Kratochvílová"
        },
        "effectiveDateTime": "2022-03-06T16:10:29Z",
        "specimen": {
          "reference": "urn:uuid:6db9601b-b00f-42c4-a493-518b64c65310"
        }
      }
    },
    {
      "fullUrl": "urn:uuid:8bce38cf-c4ff-44e8-9f41-24a503b91fc1",
      "resource": {
        "resourceType": "Observation",
        "id": "8bce38cf-c4ff-44e8-9f41-24a503b91fc1",
        "meta": {
          "profile": [
            "http://hl7.eu/fhir/laboratory/StructureDefinition/Observation-resultslab-eu-lab"
          ]
        },
        "performer": [
          {
            "display": "The Central European Lab"
          }
        ],
        "category": [
          {
            "coding": [
              {
                "system": "http://terminology.hl7.org/CodeSystem/observation-category",
                "code": "laboratory"
              }
            ]
          }
        ],
        "code": {
          "coding": [
            {
              "code": "2160-0",
              "system": "http://loinc.org",
              "display": "Creatinine [Mass/volume] in Serum or Plasma"
            }
          ],
          "text": "Creatinine [Mass/volume] in Serum or Plasma"
        },
        "valueQuantity": {
          "system": "http://unitsofmeasure.org",
          "value": 1.8,
          "unit": "mg/dL",
          "code": "mg/dL"
        },
        "referenceRange": [
          {
            "low": {
              "value": 0.6,
              "code": "mg/dL",
              "system": "http://unitsofmeasure.org"
            }
          },
          {
            "high": {
              "value": 1.3,
              "code": "mg/dL",
              "system": "http://unitsofmeasure.org"
            }
          }
        ],
        "interpretation": [
          {
            "coding": [
              {
                "code": "H",
                "system": "http://terminology.hl7.org/CodeSystem/v3-ObservationInterpretation",
                "display": "High"
              }
            ]
          }
        ],
        "text": {
          "status": "generated",
          "div": "<div xmlns=\"http://www.w3.org/1999/xhtml\"><table class=\"hl7__eu__lab__report\"><tr><th>Test</th><th>06-Mar-2022</th><th>Reference&#xA0;Range</th><th>Unit</th></tr><tr><td>Creatinine [Mass/volume] in Serum or Plasma</td><td>1.8</td><td>0.6 - 1.3</td><td>H</td><td>mg/dL</td></tr></table></div>"
        },
        "status": "final",
        "subject": {
          "reference": "urn:uuid:a1581a91-ee43-4672-81e5-cd3a4469f9ef",
          "display": "Iva Kratochvílová"
        },
        "effectiveDateTime": "2022-03-06T16:10:29Z",
        "specimen": {
          "reference": "urn:uuid:6db9601b-b00f-42c4-a493-518b64c65310"
        }
      }
    },
    {
      "fullUrl": "urn:uuid:0009c429-27f8-4626-a779-cd5e1e7d9117",
      "resource": {
        "resourceType": "Observation",
        "id": "0009c429-27f8-4626-a779-cd5e1e7d9117",
        "meta": {
          "profile": [
            "http://hl7.eu/fhir/laboratory/StructureDefinition/Observation-resultslab-eu-lab"
          ]
        },
        "performer": [
          {
            "display": "The Central European Lab"
          }
        ],
        "category": [
          {
            "coding": [
              {
                "system": "http://terminology.hl7.org/CodeSystem/observation-category",
                "code": "laboratory"
              }
            ]
          }
        ],
        "code": {
          "coding": [
            {
              "code": "17861-6",
              "system": "http://loinc.org",
              "display": "Calcium [Mass/volume] in Serum or Plasma"
            }
          ],
          "text": "Calcium [Mass/volume] in Serum or Plasma"
        },
        "valueQuantity": {
          "system": "http://unitsofmeasure.org",
          "value": 8.6,
          "unit": "mg/dL",
          "code": "mg/dL"
        },
        "referenceRange": [
          {
            "low": {
              "value": 8.6,
              "code": "mg/dL",
              "system": "http://unitsofmeasure.org"
            }
          },
          {
            "high": {
              "value": 10.4,
              "code": "mg/dL",
              "system": "http://unitsofmeasure.org"
            }
          }
        ],
        "text": {
          "status": "generated",
          "div": "<div xmlns=\"http://www.w3.org/1999/xhtml\"><table class=\"hl7__eu__lab__report\"><tr><th>Test</th><th>06-Mar-2022</th><th>Reference&#xA0;Range</th><th>Unit</th></tr><tr><td>Calcium [Mass/volume] in Serum or Plasma</td><td>8.6</td><td>8.6 - 10.4</td><td></td><td>mg/dL</td></tr></table></div>"
        },
        "status": "final",
        "subject": {
          "reference": "urn:uuid:a1581a91-ee43-4672-81e5-cd3a4469f9ef",
          "display": "Iva Kratochvílová"
        },
        "effectiveDateTime": "2022-03-06T16:10:29Z",
        "specimen": {
          "reference": "urn:uuid:6db9601b-b00f-42c4-a493-518b64c65310"
        }
      }
    },
    {
      "fullUrl": "urn:uuid:6b8b4bf6-19e2-465a-bcf7-e0898fdada4f",
      "resource": {
        "resourceType": "Observation",
        "id": "6b8b4bf6-19e2-465a-bcf7-e0898fdada4f",
        "meta": {
          "profile": [
            "http://hl7.eu/fhir/laboratory/StructureDefinition/Observation-resultslab-eu-lab"
          ]
        },
        "performer": [
          {
            "display": "The Central European Lab"
          }
        ],
        "category": [
          {
            "coding": [
              {
                "system": "http://terminology.hl7.org/CodeSystem/observation-category",
                "code": "laboratory"
              }
            ]
          }
        ],
        "code": {
          "coding": [
            {
              "code": "2951-2",
              "system": "http://loinc.org",
              "display": "Sodium [Moles/volume] in Serum or Plasma"
            }
          ],
          "text": "Sodium [Moles/volume] in Serum or Plasma"
        },
        "valueQuantity": {
          "system": "http://unitsofmeasure.org",
          "value": 138,
          "unit": "mmol/L",
          "code": "mmol/L"
        },
        "referenceRange": [
          {
            "low": {
              "value": 135,
              "code": "mmol/L",
              "system": "http://unitsofmeasure.org"
            }
          },
          {
            "high": {
              "value": 145,
              "code": "mmol/L",
              "system": "http://unitsofmeasure.org"
            }
          }
        ],
        "text": {
          "status": "generated",
          "div": "<div xmlns=\"http://www.w3.org/1999/xhtml\"><table class=\"hl7__eu__lab__report\"><tr><th>Test</th><th>06-Mar-2022</th><th>Reference&#xA0;Range</th><th>Unit</th></tr><tr><td>Sodium [Moles/volume] in Serum or Plasma</td><td>138.0</td><td>135 - 145</td><td></td><td>mmol/L</td></tr></table></div>"
        },
        "status": "final",
        "subject": {
          "reference": "urn:uuid:a1581a91-ee43-4672-81e5-cd3a4469f9ef",
          "display": "Iva Kratochvílová"
        },
        "effectiveDateTime": "2022-03-06T16:10:29Z",
        "specimen": {
          "reference": "urn:uuid:6db9601b-b00f-42c4-a493-518b64c65310"
        }
      }
    },
    {
      "fullUrl": "urn:uuid:b15b5763-e15a-4a0b-9902-7490731caf2d",
      "resource": {
        "resourceType": "Observation",
        "id": "b15b5763-e15a-4a0b-9902-7490731caf2d",
        "meta": {
          "profile": [
            "http://hl7.eu/fhir/laboratory/StructureDefinition/Observation-resultslab-eu-lab"
          ]
        },
        "performer": [
          {
            "display": "The Central European Lab"
          }
        ],
        "category": [
          {
            "coding": [
              {
                "system": "http://terminology.hl7.org/CodeSystem/observation-category",
                "code": "laboratory"
              }
            ]
          }
        ],
        "code": {
          "coding": [
            {
              "code": "2823-3",
              "system": "http://loinc.org",
              "display": "Potassium [Moles/volume] in Serum or Plasma"
            }
          ],
          "text": "Potassium [Moles/volume] in Serum or Plasma"
        },
        "valueQuantity": {
          "system": "http://unitsofmeasure.org",
          "value": 4.7,
          "unit": "mmol/L",
          "code": "mmol/L"
        },
        "referenceRange": [
          {
            "low": {
              "value": 3.5,
              "code": "mmol/L",
              "system": "http://unitsofmeasure.org"
            }
          },
          {
            "high": {
              "value": 5,
              "code": "mmol/L",
              "system": "http://unitsofmeasure.org"
            }
          }
        ],
        "text": {
          "status": "generated",
          "div": "<div xmlns=\"http://www.w3.org/1999/xhtml\"><table class=\"hl7__eu__lab__report\"><tr><th>Test</th><th>06-Mar-2022</th><th>Reference&#xA0;Range</th><th>Unit</th></tr><tr><td>Potassium [Moles/volume] in Serum or Plasma</td><td>4.7</td><td>3.5 - 5</td><td></td><td>mmol/L</td></tr></table></div>"
        },
        "status": "final",
        "subject": {
          "reference": "urn:uuid:a1581a91-ee43-4672-81e5-cd3a4469f9ef",
          "display": "Iva Kratochvílová"
        },
        "effectiveDateTime": "2022-03-06T16:10:29Z",
        "specimen": {
          "reference": "urn:uuid:6db9601b-b00f-42c4-a493-518b64c65310"
        }
      }
    },
    {
      "fullUrl": "urn:uuid:3baffb7f-cf95-415b-81d7-99f7c3e8e546",
      "resource": {
        "resourceType": "Observation",
        "id": "3baffb7f-cf95-415b-81d7-99f7c3e8e546",
        "meta": {
          "profile": [
            "http://hl7.eu/fhir/laboratory/StructureDefinition/Observation-resultslab-eu-lab"
          ]
        },
        "performer": [
          {
            "display": "The Central European Lab"
          }
        ],
        "category": [
          {
            "coding": [
              {
                "system": "http://terminology.hl7.org/CodeSystem/observation-category",
                "code": "laboratory"
              }
            ]
          }
        ],
        "code": {
          "coding": [
            {
              "code": "2075-0",
              "system": "http://loinc.org",
              "display": "Chloride [Moles/volume] in Serum or Plasma"
            }
          ],
          "text": "Chloride [Moles/volume] in Serum or Plasma"
        },
        "valueQuantity": {
          "system": "http://unitsofmeasure.org",
          "value": 110.8,
          "unit": "mmol/L",
          "code": "mmol/L"
        },
        "referenceRange": [
          {
            "low": {
              "value": 98,
              "code": "mmol/L",
              "system": "http://unitsofmeasure.org"
            }
          },
          {
            "high": {
              "value": 106,
              "code": "mmol/L",
              "system": "http://unitsofmeasure.org"
            }
          }
        ],
        "interpretation": [
          {
            "coding": [
              {
                "code": "H",
                "system": "http://terminology.hl7.org/CodeSystem/v3-ObservationInterpretation",
                "display": "High"
              }
            ]
          }
        ],
        "text": {
          "status": "generated",
          "div": "<div xmlns=\"http://www.w3.org/1999/xhtml\"><table class=\"hl7__eu__lab__report\"><tr><th>Test</th><th>06-Mar-2022</th><th>Reference&#xA0;Range</th><th>Unit</th></tr><tr><td>Chloride [Moles/volume] in Serum or Plasma</td><td>110.8</td><td>98 - 106</td><td>H</td><td>mmol/L</td></tr></table></div>"
        },
        "status": "final",
        "subject": {
          "reference": "urn:uuid:a1581a91-ee43-4672-81e5-cd3a4469f9ef",
          "display": "Iva Kratochvílová"
        },
        "effectiveDateTime": "2022-03-06T16:10:29Z",
        "specimen": {
          "reference": "urn:uuid:6db9601b-b00f-42c4-a493-518b64c65310"
        }
      }
    },
    {
      "fullUrl": "urn:uuid:9213edfe-7d8b-4faa-84b3-b2fd3b60cfe2",
      "resource": {
        "resourceType": "Observation",
        "id": "9213edfe-7d8b-4faa-84b3-b2fd3b60cfe2",
        "meta": {
          "profile": [
            "http://hl7.eu/fhir/laboratory/StructureDefinition/Observation-resultslab-eu-lab"
          ]
        },
        "performer": [
          {
            "display": "The Central European Lab"
          }
        ],
        "category": [
          {
            "coding": [
              {
                "system": "http://terminology.hl7.org/CodeSystem/observation-category",
                "code": "laboratory"
              }
            ]
          }
        ],
        "code": {
          "coding": [
            {
              "code": "2028-9",
              "system": "http://loinc.org",
              "display": "Carbon dioxide, total [Moles/volume] in Serum or Plasma"
            }
          ],
          "text": "Carbon dioxide, total [Moles/volume] in Serum or Plasma"
        },
        "valueQuantity": {
          "system": "http://unitsofmeasure.org",
          "value": 28.7,
          "unit": "mmol/L",
          "code": "mmol/L"
        },
        "referenceRange": [
          {
            "low": {
              "value": 22,
              "code": "mmol/L",
              "system": "http://unitsofmeasure.org"
            }
          },
          {
            "high": {
              "value": 29,
              "code": "mmol/L",
              "system": "http://unitsofmeasure.org"
            }
          }
        ],
        "text": {
          "status": "generated",
          "div": "<div xmlns=\"http://www.w3.org/1999/xhtml\"><table class=\"hl7__eu__lab__report\"><tr><th>Test</th><th>06-Mar-2022</th><th>Reference&#xA0;Range</th><th>Unit</th></tr><tr><td>Carbon dioxide, total [Moles/volume] in Serum or Plasma</td><td>28.7</td><td>22 - 29</td><td></td><td>mmol/L</td></tr></table></div>"
        },
        "status": "final",
        "subject": {
          "reference": "urn:uuid:a1581a91-ee43-4672-81e5-cd3a4469f9ef",
          "display": "Iva Kratochvílová"
        },
        "effectiveDateTime": "2022-03-06T16:10:29Z",
        "specimen": {
          "reference": "urn:uuid:6db9601b-b00f-42c4-a493-518b64c65310"
        }
      }
    },
    {
      "fullUrl": "urn:uuid:a4e345f1-06ed-48cd-a18a-5e75914ca4be",
      "resource": {
        "resourceType": "Observation",
        "id": "a4e345f1-06ed-48cd-a18a-5e75914ca4be",
        "meta": {
          "profile": [
            "http://hl7.eu/fhir/laboratory/StructureDefinition/Observation-resultslab-eu-lab"
          ]
        },
        "performer": [
          {
            "display": "The Central European Lab"
          }
        ],
        "category": [
          {
            "coding": [
              {
                "system": "http://terminology.hl7.org/CodeSystem/observation-category",
                "code": "laboratory"
              }
            ]
          }
        ],
        "code": {
          "coding": [
            {
              "code": "5767-9",
              "system": "http://loinc.org",
              "display": "Appearance of Urine"
            }
          ],
          "text": "Appearance of Urine"
        },
        "text": {
          "status": "generated",
          "div": "<div xmlns=\"http://www.w3.org/1999/xhtml\"><table class=\"hl7__eu__lab__report\"><tr><th>Test</th><th>06-Mar-2022</th><th>Reference&#xA0;Range</th><th>Unit</th></tr><tr><td>Appearance of Urine</td></tr></table></div>"
        },
        "status": "final",
        "subject": {
          "reference": "urn:uuid:a1581a91-ee43-4672-81e5-cd3a4469f9ef",
          "display": "Iva Kratochvílová"
        },
        "effectiveDateTime": "2022-03-06T16:10:29Z",
        "specimen": {
          "reference": "urn:uuid:cbd4c956-2579-4223-b8a2-7e4b19eba4be"
        }
      }
    },
    {
      "fullUrl": "urn:uuid:9bbc5e1b-889f-4954-b1f4-8ab9f8a7f60a",
      "resource": {
        "resourceType": "Observation",
        "id": "9bbc5e1b-889f-4954-b1f4-8ab9f8a7f60a",
        "meta": {
          "profile": [
            "http://hl7.eu/fhir/laboratory/StructureDefinition/Observation-resultslab-eu-lab"
          ]
        },
        "performer": [
          {
            "display": "The Central European Lab"
          }
        ],
        "category": [
          {
            "coding": [
              {
                "system": "http://terminology.hl7.org/CodeSystem/observation-category",
                "code": "laboratory"
              }
            ]
          }
        ],
        "code": {
          "coding": [
            {
              "code": "34533-0",
              "system": "http://loinc.org",
              "display": "Odor of Urine"
            }
          ],
          "text": "Odor of Urine"
        },
        "text": {
          "status": "generated",
          "div": "<div xmlns=\"http://www.w3.org/1999/xhtml\"><table class=\"hl7__eu__lab__report\"><tr><th>Test</th><th>06-Mar-2022</th><th>Reference&#xA0;Range</th><th>Unit</th></tr><tr><td>Odor of Urine</td></tr></table></div>"
        },
        "status": "final",
        "subject": {
          "reference": "urn:uuid:a1581a91-ee43-4672-81e5-cd3a4469f9ef",
          "display": "Iva Kratochvílová"
        },
        "effectiveDateTime": "2022-03-06T16:10:29Z",
        "specimen": {
          "reference": "urn:uuid:cbd4c956-2579-4223-b8a2-7e4b19eba4be"
        }
      }
    },
    {
      "fullUrl": "urn:uuid:ee80b6b6-673c-4ab0-9cfd-fca29fa65aa8",
      "resource": {
        "resourceType": "Observation",
        "id": "ee80b6b6-673c-4ab0-9cfd-fca29fa65aa8",
        "meta": {
          "profile": [
            "http://hl7.eu/fhir/laboratory/StructureDefinition/Observation-resultslab-eu-lab"
          ]
        },
        "performer": [
          {
            "display": "The Central European Lab"
          }
        ],
        "category": [
          {
            "coding": [
              {
                "system": "http://terminology.hl7.org/CodeSystem/observation-category",
                "code": "laboratory"
              }
            ]
          }
        ],
        "code": {
          "coding": [
            {
              "code": "32167-9",
              "system": "http://loinc.org",
              "display": "Clarity of Urine"
            }
          ],
          "text": "Clarity of Urine"
        },
        "text": {
          "status": "generated",
          "div": "<div xmlns=\"http://www.w3.org/1999/xhtml\"><table class=\"hl7__eu__lab__report\"><tr><th>Test</th><th>06-Mar-2022</th><th>Reference&#xA0;Range</th><th>Unit</th></tr><tr><td>Clarity of Urine</td></tr></table></div>"
        },
        "status": "final",
        "subject": {
          "reference": "urn:uuid:a1581a91-ee43-4672-81e5-cd3a4469f9ef",
          "display": "Iva Kratochvílová"
        },
        "effectiveDateTime": "2022-03-06T16:10:29Z",
        "specimen": {
          "reference": "urn:uuid:cbd4c956-2579-4223-b8a2-7e4b19eba4be"
        }
      }
    },
    {
      "fullUrl": "urn:uuid:47698e1d-21d3-4d79-9274-66509829796b",
      "resource": {
        "resourceType": "Observation",
        "id": "47698e1d-21d3-4d79-9274-66509829796b",
        "meta": {
          "profile": [
            "http://hl7.eu/fhir/laboratory/StructureDefinition/Observation-resultslab-eu-lab"
          ]
        },
        "performer": [
          {
            "display": "The Central European Lab"
          }
        ],
        "category": [
          {
            "coding": [
              {
                "system": "http://terminology.hl7.org/CodeSystem/observation-category",
                "code": "laboratory"
              }
            ]
          }
        ],
        "code": {
          "coding": [
            {
              "code": "5778-6",
              "system": "http://loinc.org",
              "display": "Color of Urine"
            }
          ],
          "text": "Color of Urine"
        },
        "text": {
          "status": "generated",
          "div": "<div xmlns=\"http://www.w3.org/1999/xhtml\"><table class=\"hl7__eu__lab__report\"><tr><th>Test</th><th>06-Mar-2022</th><th>Reference&#xA0;Range</th><th>Unit</th></tr><tr><td>Color of Urine</td></tr></table></div>"
        },
        "status": "final",
        "subject": {
          "reference": "urn:uuid:a1581a91-ee43-4672-81e5-cd3a4469f9ef",
          "display": "Iva Kratochvílová"
        },
        "effectiveDateTime": "2022-03-06T16:10:29Z",
        "specimen": {
          "reference": "urn:uuid:cbd4c956-2579-4223-b8a2-7e4b19eba4be"
        }
      }
    },
    {
      "fullUrl": "urn:uuid:b3915576-3770-40b0-8198-68a2595708bd",
      "resource": {
        "resourceType": "Observation",
        "id": "b3915576-3770-40b0-8198-68a2595708bd",
        "meta": {
          "profile": [
            "http://hl7.eu/fhir/laboratory/StructureDefinition/Observation-resultslab-eu-lab"
          ]
        },
        "performer": [
          {
            "display": "The Central European Lab"
          }
        ],
        "category": [
          {
            "coding": [
              {
                "system": "http://terminology.hl7.org/CodeSystem/observation-category",
                "code": "laboratory"
              }
            ]
          }
        ],
        "code": {
          "coding": [
            {
              "code": "5792-7",
              "system": "http://loinc.org",
              "display": "Glucose [Mass/volume] in Urine by Test strip"
            }
          ],
          "text": "Glucose [Mass/volume] in Urine by Test strip"
        },
        "valueQuantity": {
          "system": "http://unitsofmeasure.org",
          "value": 0.9,
          "unit": "mg/dL",
          "code": "mg/dL"
        },
        "referenceRange": [
          {
            "low": {
              "value": 0,
              "code": "mg/dL",
              "system": "http://unitsofmeasure.org"
            }
          },
          {
            "high": {
              "value": 0.8,
              "code": "mg/dL",
              "system": "http://unitsofmeasure.org"
            }
          }
        ],
        "interpretation": [
          {
            "coding": [
              {
                "code": "H",
                "system": "http://terminology.hl7.org/CodeSystem/v3-ObservationInterpretation",
                "display": "High"
              }
            ]
          }
        ],
        "text": {
          "status": "generated",
          "div": "<div xmlns=\"http://www.w3.org/1999/xhtml\"><table class=\"hl7__eu__lab__report\"><tr><th>Test</th><th>06-Mar-2022</th><th>Reference&#xA0;Range</th><th>Unit</th></tr><tr><td>Glucose [Mass/volume] in Urine by Test strip</td><td>0.9</td><td>0 - 0.8</td><td>H</td><td>mg/dL</td></tr></table></div>"
        },
        "status": "final",
        "subject": {
          "reference": "urn:uuid:a1581a91-ee43-4672-81e5-cd3a4469f9ef",
          "display": "Iva Kratochvílová"
        },
        "effectiveDateTime": "2022-03-06T16:10:29Z",
        "specimen": {
          "reference": "urn:uuid:cbd4c956-2579-4223-b8a2-7e4b19eba4be"
        }
      }
    },
    {
      "fullUrl": "urn:uuid:16161c12-90d6-440e-aedc-28087c88b6bd",
      "resource": {
        "resourceType": "Observation",
        "id": "16161c12-90d6-440e-aedc-28087c88b6bd",
        "meta": {
          "profile": [
            "http://hl7.eu/fhir/laboratory/StructureDefinition/Observation-resultslab-eu-lab"
          ]
        },
        "performer": [
          {
            "display": "The Central European Lab"
          }
        ],
        "category": [
          {
            "coding": [
              {
                "system": "http://terminology.hl7.org/CodeSystem/observation-category",
                "code": "laboratory"
              }
            ]
          }
        ],
        "code": {
          "coding": [
            {
              "code": "25428-4",
              "system": "http://loinc.org",
              "display": "Glucose [Presence] in Urine by Test strip"
            }
          ],
          "text": "Glucose [Presence] in Urine by Test strip"
        },
        "text": {
          "status": "generated",
          "div": "<div xmlns=\"http://www.w3.org/1999/xhtml\"><table class=\"hl7__eu__lab__report\"><tr><th>Test</th><th>06-Mar-2022</th><th>Reference&#xA0;Range</th><th>Unit</th></tr><tr><td>Glucose [Presence] in Urine by Test strip</td></tr></table></div>"
        },
        "status": "final",
        "subject": {
          "reference": "urn:uuid:a1581a91-ee43-4672-81e5-cd3a4469f9ef",
          "display": "Iva Kratochvílová"
        },
        "effectiveDateTime": "2022-03-06T16:10:29Z",
        "specimen": {
          "reference": "urn:uuid:cbd4c956-2579-4223-b8a2-7e4b19eba4be"
        }
      }
    },
    {
      "fullUrl": "urn:uuid:74f5afcb-2ee6-4139-aa38-7c6aaece9223",
      "resource": {
        "resourceType": "Observation",
        "id": "74f5afcb-2ee6-4139-aa38-7c6aaece9223",
        "meta": {
          "profile": [
            "http://hl7.eu/fhir/laboratory/StructureDefinition/Observation-resultslab-eu-lab"
          ]
        },
        "performer": [
          {
            "display": "The Central European Lab"
          }
        ],
        "category": [
          {
            "coding": [
              {
                "system": "http://terminology.hl7.org/CodeSystem/observation-category",
                "code": "laboratory"
              }
            ]
          }
        ],
        "code": {
          "coding": [
            {
              "code": "20505-4",
              "system": "http://loinc.org",
              "display": "Bilirubin.total [Mass/volume] in Urine by Test strip"
            }
          ],
          "text": "Bilirubin.total [Mass/volume] in Urine by Test strip"
        },
        "valueQuantity": {
          "system": "http://unitsofmeasure.org",
          "value": 0.7,
          "unit": "mg/dL",
          "code": "mg/dL"
        },
        "referenceRange": [
          {
            "low": {
              "value": 0,
              "code": "mg/dL",
              "system": "http://unitsofmeasure.org"
            }
          },
          {
            "high": {
              "value": 1,
              "code": "mg/dL",
              "system": "http://unitsofmeasure.org"
            }
          }
        ],
        "text": {
          "status": "generated",
          "div": "<div xmlns=\"http://www.w3.org/1999/xhtml\"><table class=\"hl7__eu__lab__report\"><tr><th>Test</th><th>06-Mar-2022</th><th>Reference&#xA0;Range</th><th>Unit</th></tr><tr><td>Bilirubin.total [Mass/volume] in Urine by Test strip</td><td>0.7</td><td>0 - 1</td><td></td><td>mg/dL</td></tr></table></div>"
        },
        "status": "final",
        "subject": {
          "reference": "urn:uuid:a1581a91-ee43-4672-81e5-cd3a4469f9ef",
          "display": "Iva Kratochvílová"
        },
        "effectiveDateTime": "2022-03-06T16:10:29Z",
        "specimen": {
          "reference": "urn:uuid:cbd4c956-2579-4223-b8a2-7e4b19eba4be"
        }
      }
    },
    {
      "fullUrl": "urn:uuid:6e221f55-e23f-47de-88c9-ef81a656d30d",
      "resource": {
        "resourceType": "Observation",
        "id": "6e221f55-e23f-47de-88c9-ef81a656d30d",
        "meta": {
          "profile": [
            "http://hl7.eu/fhir/laboratory/StructureDefinition/Observation-resultslab-eu-lab"
          ]
        },
        "performer": [
          {
            "display": "The Central European Lab"
          }
        ],
        "category": [
          {
            "coding": [
              {
                "system": "http://terminology.hl7.org/CodeSystem/observation-category",
                "code": "laboratory"
              }
            ]
          }
        ],
        "code": {
          "coding": [
            {
              "code": "5770-3",
              "system": "http://loinc.org",
              "display": "Bilirubin.total [Presence] in Urine by Test strip"
            }
          ],
          "text": "Bilirubin.total [Presence] in Urine by Test strip"
        },
        "text": {
          "status": "generated",
          "div": "<div xmlns=\"http://www.w3.org/1999/xhtml\"><table class=\"hl7__eu__lab__report\"><tr><th>Test</th><th>06-Mar-2022</th><th>Reference&#xA0;Range</th><th>Unit</th></tr><tr><td>Bilirubin.total [Presence] in Urine by Test strip</td></tr></table></div>"
        },
        "status": "final",
        "subject": {
          "reference": "urn:uuid:a1581a91-ee43-4672-81e5-cd3a4469f9ef",
          "display": "Iva Kratochvílová"
        },
        "effectiveDateTime": "2022-03-06T16:10:29Z",
        "specimen": {
          "reference": "urn:uuid:cbd4c956-2579-4223-b8a2-7e4b19eba4be"
        }
      }
    },
    {
      "fullUrl": "urn:uuid:996aafe7-8481-42d3-b31c-1a227f8fed36",
      "resource": {
        "resourceType": "Observation",
        "id": "996aafe7-8481-42d3-b31c-1a227f8fed36",
        "meta": {
          "profile": [
            "http://hl7.eu/fhir/laboratory/StructureDefinition/Observation-resultslab-eu-lab"
          ]
        },
        "performer": [
          {
            "display": "The Central European Lab"
          }
        ],
        "category": [
          {
            "coding": [
              {
                "system": "http://terminology.hl7.org/CodeSystem/observation-category",
                "code": "laboratory"
              }
            ]
          }
        ],
        "code": {
          "coding": [
            {
              "code": "5797-6",
              "system": "http://loinc.org",
              "display": "Ketones [Mass/volume] in Urine by Test strip"
            }
          ],
          "text": "Ketones [Mass/volume] in Urine by Test strip"
        },
        "valueQuantity": {
          "system": "http://unitsofmeasure.org",
          "value": 17.3,
          "unit": "mg/dL",
          "code": "mg/dL"
        },
        "referenceRange": [
          {
            "low": {
              "value": 0,
              "code": "mg/dL",
              "system": "http://unitsofmeasure.org"
            }
          },
          {
            "high": {
              "value": 4,
              "code": "mg/dL",
              "system": "http://unitsofmeasure.org"
            }
          }
        ],
        "interpretation": [
          {
            "coding": [
              {
                "code": "H",
                "system": "http://terminology.hl7.org/CodeSystem/v3-ObservationInterpretation",
                "display": "High"
              }
            ]
          }
        ],
        "text": {
          "status": "generated",
          "div": "<div xmlns=\"http://www.w3.org/1999/xhtml\"><table class=\"hl7__eu__lab__report\"><tr><th>Test</th><th>06-Mar-2022</th><th>Reference&#xA0;Range</th><th>Unit</th></tr><tr><td>Ketones [Mass/volume] in Urine by Test strip</td><td>17.3</td><td>0 - 4</td><td>H</td><td>mg/dL</td></tr></table></div>"
        },
        "status": "final",
        "subject": {
          "reference": "urn:uuid:a1581a91-ee43-4672-81e5-cd3a4469f9ef",
          "display": "Iva Kratochvílová"
        },
        "effectiveDateTime": "2022-03-06T16:10:29Z",
        "specimen": {
          "reference": "urn:uuid:cbd4c956-2579-4223-b8a2-7e4b19eba4be"
        }
      }
    },
    {
      "fullUrl": "urn:uuid:51b7102b-badc-42fd-bca4-63da127d7782",
      "resource": {
        "resourceType": "Observation",
        "id": "51b7102b-badc-42fd-bca4-63da127d7782",
        "meta": {
          "profile": [
            "http://hl7.eu/fhir/laboratory/StructureDefinition/Observation-resultslab-eu-lab"
          ]
        },
        "performer": [
          {
            "display": "The Central European Lab"
          }
        ],
        "category": [
          {
            "coding": [
              {
                "system": "http://terminology.hl7.org/CodeSystem/observation-category",
                "code": "laboratory"
              }
            ]
          }
        ],
        "code": {
          "coding": [
            {
              "code": "2514-8",
              "system": "http://loinc.org",
              "display": "Ketones [Presence] in Urine by Test strip"
            }
          ],
          "text": "Ketones [Presence] in Urine by Test strip"
        },
        "text": {
          "status": "generated",
          "div": "<div xmlns=\"http://www.w3.org/1999/xhtml\"><table class=\"hl7__eu__lab__report\"><tr><th>Test</th><th>06-Mar-2022</th><th>Reference&#xA0;Range</th><th>Unit</th></tr><tr><td>Ketones [Presence] in Urine by Test strip</td></tr></table></div>"
        },
        "status": "final",
        "subject": {
          "reference": "urn:uuid:a1581a91-ee43-4672-81e5-cd3a4469f9ef",
          "display": "Iva Kratochvílová"
        },
        "effectiveDateTime": "2022-03-06T16:10:29Z",
        "specimen": {
          "reference": "urn:uuid:cbd4c956-2579-4223-b8a2-7e4b19eba4be"
        }
      }
    },
    {
      "fullUrl": "urn:uuid:1d628b71-a847-499d-8726-3a80e91e1aff",
      "resource": {
        "resourceType": "Observation",
        "id": "1d628b71-a847-499d-8726-3a80e91e1aff",
        "meta": {
          "profile": [
            "http://hl7.eu/fhir/laboratory/StructureDefinition/Observation-resultslab-eu-lab"
          ]
        },
        "performer": [
          {
            "display": "The Central European Lab"
          }
        ],
        "category": [
          {
            "coding": [
              {
                "system": "http://terminology.hl7.org/CodeSystem/observation-category",
                "code": "laboratory"
              }
            ]
          }
        ],
        "code": {
          "coding": [
            {
              "code": "5811-5",
              "system": "http://loinc.org",
              "display": "Specific gravity of Urine by Test strip"
            }
          ],
          "text": "Specific gravity of Urine by Test strip"
        },
        "valueQuantity": {
          "system": "http://unitsofmeasure.org",
          "value": 1,
          "unit": "{nominal}",
          "code": "{nominal}"
        },
        "referenceRange": [
          {
            "low": {
              "value": 1.005,
              "code": "g/mL",
              "system": "http://unitsofmeasure.org"
            }
          },
          {
            "high": {
              "value": 1.03,
              "code": "g/mL",
              "system": "http://unitsofmeasure.org"
            }
          }
        ],
        "interpretation": [
          {
            "coding": [
              {
                "code": "L",
                "system": "http://terminology.hl7.org/CodeSystem/v3-ObservationInterpretation",
                "display": "Low"
              }
            ]
          }
        ],
        "text": {
          "status": "generated",
          "div": "<div xmlns=\"http://www.w3.org/1999/xhtml\"><table class=\"hl7__eu__lab__report\"><tr><th>Test</th><th>06-Mar-2022</th><th>Reference&#xA0;Range</th><th>Unit</th></tr><tr><td>Specific gravity of Urine by Test strip</td><td>1.0</td><td>1.005 - 1.03</td><td>L</td><td>{nominal}</td></tr></table></div>"
        },
        "status": "final",
        "subject": {
          "reference": "urn:uuid:a1581a91-ee43-4672-81e5-cd3a4469f9ef",
          "display": "Iva Kratochvílová"
        },
        "effectiveDateTime": "2022-03-06T16:10:29Z",
        "specimen": {
          "reference": "urn:uuid:cbd4c956-2579-4223-b8a2-7e4b19eba4be"
        }
      }
    },
    {
      "fullUrl": "urn:uuid:aa9561ce-6f1a-477e-a5d2-7f4d7100516b",
      "resource": {
        "resourceType": "Observation",
        "id": "aa9561ce-6f1a-477e-a5d2-7f4d7100516b",
        "meta": {
          "profile": [
            "http://hl7.eu/fhir/laboratory/StructureDefinition/Observation-resultslab-eu-lab"
          ]
        },
        "performer": [
          {
            "display": "The Central European Lab"
          }
        ],
        "category": [
          {
            "coding": [
              {
                "system": "http://terminology.hl7.org/CodeSystem/observation-category",
                "code": "laboratory"
              }
            ]
          }
        ],
        "code": {
          "coding": [
            {
              "code": "5803-2",
              "system": "http://loinc.org",
              "display": "pH of Urine by Test strip"
            }
          ],
          "text": "pH of Urine by Test strip"
        },
        "valueQuantity": {
          "system": "http://unitsofmeasure.org",
          "value": 5.6,
          "unit": "pH",
          "code": "pH"
        },
        "referenceRange": [
          {
            "low": {
              "value": 4.5,
              "code": "pH",
              "system": "http://unitsofmeasure.org"
            }
          },
          {
            "high": {
              "value": 7,
              "code": "pH",
              "system": "http://unitsofmeasure.org"
            }
          }
        ],
        "text": {
          "status": "generated",
          "div": "<div xmlns=\"http://www.w3.org/1999/xhtml\"><table class=\"hl7__eu__lab__report\"><tr><th>Test</th><th>06-Mar-2022</th><th>Reference&#xA0;Range</th><th>Unit</th></tr><tr><td>pH of Urine by Test strip</td><td>5.6</td><td>4.5 - 7</td><td></td><td>pH</td></tr></table></div>"
        },
        "status": "final",
        "subject": {
          "reference": "urn:uuid:a1581a91-ee43-4672-81e5-cd3a4469f9ef",
          "display": "Iva Kratochvílová"
        },
        "effectiveDateTime": "2022-03-06T16:10:29Z",
        "specimen": {
          "reference": "urn:uuid:cbd4c956-2579-4223-b8a2-7e4b19eba4be"
        }
      }
    },
    {
      "fullUrl": "urn:uuid:569b86d3-47a0-4969-9d3d-cc74dd38fc00",
      "resource": {
        "resourceType": "Observation",
        "id": "569b86d3-47a0-4969-9d3d-cc74dd38fc00",
        "meta": {
          "profile": [
            "http://hl7.eu/fhir/laboratory/StructureDefinition/Observation-resultslab-eu-lab"
          ]
        },
        "performer": [
          {
            "display": "The Central European Lab"
          }
        ],
        "category": [
          {
            "coding": [
              {
                "system": "http://terminology.hl7.org/CodeSystem/observation-category",
                "code": "laboratory"
              }
            ]
          }
        ],
        "code": {
          "coding": [
            {
              "code": "5804-0",
              "system": "http://loinc.org",
              "display": "Protein [Mass/volume] in Urine by Test strip"
            }
          ],
          "text": "Protein [Mass/volume] in Urine by Test strip"
        },
        "valueQuantity": {
          "system": "http://unitsofmeasure.org",
          "value": 129.7,
          "unit": "mg/dL",
          "code": "mg/dL"
        },
        "referenceRange": [
          {
            "low": {
              "value": 0,
              "code": "mg/dL",
              "system": "http://unitsofmeasure.org"
            }
          },
          {
            "high": {
              "value": 145,
              "code": "mg/dL",
              "system": "http://unitsofmeasure.org"
            }
          }
        ],
        "text": {
          "status": "generated",
          "div": "<div xmlns=\"http://www.w3.org/1999/xhtml\"><table class=\"hl7__eu__lab__report\"><tr><th>Test</th><th>06-Mar-2022</th><th>Reference&#xA0;Range</th><th>Unit</th></tr><tr><td>Protein [Mass/volume] in Urine by Test strip</td><td>129.7</td><td>0 - 145</td><td></td><td>mg/dL</td></tr></table></div>"
        },
        "status": "final",
        "subject": {
          "reference": "urn:uuid:a1581a91-ee43-4672-81e5-cd3a4469f9ef",
          "display": "Iva Kratochvílová"
        },
        "effectiveDateTime": "2022-03-06T16:10:29Z",
        "specimen": {
          "reference": "urn:uuid:cbd4c956-2579-4223-b8a2-7e4b19eba4be"
        }
      }
    },
    {
      "fullUrl": "urn:uuid:3138c71a-faf4-42f2-a8fd-59c5c7aee9f5",
      "resource": {
        "resourceType": "Observation",
        "id": "3138c71a-faf4-42f2-a8fd-59c5c7aee9f5",
        "meta": {
          "profile": [
            "http://hl7.eu/fhir/laboratory/StructureDefinition/Observation-resultslab-eu-lab"
          ]
        },
        "performer": [
          {
            "display": "The Central European Lab"
          }
        ],
        "category": [
          {
            "coding": [
              {
                "system": "http://terminology.hl7.org/CodeSystem/observation-category",
                "code": "laboratory"
              }
            ]
          }
        ],
        "code": {
          "coding": [
            {
              "code": "20454-5",
              "system": "http://loinc.org",
              "display": "Protein [Presence] in Urine by Test strip"
            }
          ],
          "text": "Protein [Presence] in Urine by Test strip"
        },
        "text": {
          "status": "generated",
          "div": "<div xmlns=\"http://www.w3.org/1999/xhtml\"><table class=\"hl7__eu__lab__report\"><tr><th>Test</th><th>06-Mar-2022</th><th>Reference&#xA0;Range</th><th>Unit</th></tr><tr><td>Protein [Presence] in Urine by Test strip</td></tr></table></div>"
        },
        "status": "final",
        "subject": {
          "reference": "urn:uuid:a1581a91-ee43-4672-81e5-cd3a4469f9ef",
          "display": "Iva Kratochvílová"
        },
        "effectiveDateTime": "2022-03-06T16:10:29Z",
        "specimen": {
          "reference": "urn:uuid:cbd4c956-2579-4223-b8a2-7e4b19eba4be"
        }
      }
    },
    {
      "fullUrl": "urn:uuid:0141f4bc-f9ea-484b-8a4f-a123284f14ff",
      "resource": {
        "resourceType": "Observation",
        "id": "0141f4bc-f9ea-484b-8a4f-a123284f14ff",
        "meta": {
          "profile": [
            "http://hl7.eu/fhir/laboratory/StructureDefinition/Observation-resultslab-eu-lab"
          ]
        },
        "performer": [
          {
            "display": "The Central European Lab"
          }
        ],
        "category": [
          {
            "coding": [
              {
                "system": "http://terminology.hl7.org/CodeSystem/observation-category",
                "code": "laboratory"
              }
            ]
          }
        ],
        "code": {
          "coding": [
            {
              "code": "5802-4",
              "system": "http://loinc.org",
              "display": "Nitrite [Presence] in Urine by Test strip"
            }
          ],
          "text": "Nitrite [Presence] in Urine by Test strip"
        },
        "text": {
          "status": "generated",
          "div": "<div xmlns=\"http://www.w3.org/1999/xhtml\"><table class=\"hl7__eu__lab__report\"><tr><th>Test</th><th>06-Mar-2022</th><th>Reference&#xA0;Range</th><th>Unit</th></tr><tr><td>Nitrite [Presence] in Urine by Test strip</td></tr></table></div>"
        },
        "status": "final",
        "subject": {
          "reference": "urn:uuid:a1581a91-ee43-4672-81e5-cd3a4469f9ef",
          "display": "Iva Kratochvílová"
        },
        "effectiveDateTime": "2022-03-06T16:10:29Z",
        "specimen": {
          "reference": "urn:uuid:cbd4c956-2579-4223-b8a2-7e4b19eba4be"
        }
      }
    },
    {
      "fullUrl": "urn:uuid:d8d5f4c4-946c-4662-8d31-15f6bc514fc2",
      "resource": {
        "resourceType": "Observation",
        "id": "d8d5f4c4-946c-4662-8d31-15f6bc514fc2",
        "meta": {
          "profile": [
            "http://hl7.eu/fhir/laboratory/StructureDefinition/Observation-resultslab-eu-lab"
          ]
        },
        "performer": [
          {
            "display": "The Central European Lab"
          }
        ],
        "category": [
          {
            "coding": [
              {
                "system": "http://terminology.hl7.org/CodeSystem/observation-category",
                "code": "laboratory"
              }
            ]
          }
        ],
        "code": {
          "coding": [
            {
              "code": "5794-3",
              "system": "http://loinc.org",
              "display": "Hemoglobin [Presence] in Urine by Test strip"
            }
          ],
          "text": "Hemoglobin [Presence] in Urine by Test strip"
        },
        "text": {
          "status": "generated",
          "div": "<div xmlns=\"http://www.w3.org/1999/xhtml\"><table class=\"hl7__eu__lab__report\"><tr><th>Test</th><th>06-Mar-2022</th><th>Reference&#xA0;Range</th><th>Unit</th></tr><tr><td>Hemoglobin [Presence] in Urine by Test strip</td></tr></table></div>"
        },
        "status": "final",
        "subject": {
          "reference": "urn:uuid:a1581a91-ee43-4672-81e5-cd3a4469f9ef",
          "display": "Iva Kratochvílová"
        },
        "effectiveDateTime": "2022-03-06T16:10:29Z",
        "specimen": {
          "reference": "urn:uuid:cbd4c956-2579-4223-b8a2-7e4b19eba4be"
        }
      }
    },
    {
      "fullUrl": "urn:uuid:25247848-3fad-456f-a960-9015b83c5455",
      "resource": {
        "resourceType": "Observation",
        "id": "25247848-3fad-456f-a960-9015b83c5455",
        "meta": {
          "profile": [
            "http://hl7.eu/fhir/laboratory/StructureDefinition/Observation-resultslab-eu-lab"
          ]
        },
        "performer": [
          {
            "display": "The Central European Lab"
          }
        ],
        "category": [
          {
            "coding": [
              {
                "system": "http://terminology.hl7.org/CodeSystem/observation-category",
                "code": "laboratory"
              }
            ]
          }
        ],
        "code": {
          "coding": [
            {
              "code": "5799-2",
              "system": "http://loinc.org",
              "display": "Leukocyte esterase [Presence] in Urine by Test strip"
            }
          ],
          "text": "Leukocyte esterase [Presence] in Urine by Test strip"
        },
        "text": {
          "status": "generated",
          "div": "<div xmlns=\"http://www.w3.org/1999/xhtml\"><table class=\"hl7__eu__lab__report\"><tr><th>Test</th><th>06-Mar-2022</th><th>Reference&#xA0;Range</th><th>Unit</th></tr><tr><td>Leukocyte esterase [Presence] in Urine by Test strip</td></tr></table></div>"
        },
        "status": "final",
        "subject": {
          "reference": "urn:uuid:a1581a91-ee43-4672-81e5-cd3a4469f9ef",
          "display": "Iva Kratochvílová"
        },
        "effectiveDateTime": "2022-03-06T16:10:29Z",
        "specimen": {
          "reference": "urn:uuid:cbd4c956-2579-4223-b8a2-7e4b19eba4be"
        }
      }
    },
    {
      "fullUrl": "urn:uuid:80e231ca-de34-4504-84f7-1d3e6503b82b",
      "resource": {
        "resourceType": "Observation",
        "id": "80e231ca-de34-4504-84f7-1d3e6503b82b",
        "meta": {
          "profile": [
            "http://hl7.eu/fhir/laboratory/StructureDefinition/Observation-resultslab-eu-lab"
          ]
        },
        "performer": [
          {
            "display": "The Central European Lab"
          }
        ],
        "category": [
          {
            "coding": [
              {
                "system": "http://terminology.hl7.org/CodeSystem/observation-category",
                "code": "laboratory"
              }
            ]
          }
        ],
        "code": {
          "coding": [
            {
              "code": "4548-4",
              "system": "http://loinc.org",
              "display": "Hemoglobin A1c/Hemoglobin.total in Blood"
            }
          ],
          "text": "Hemoglobin A1c/Hemoglobin.total in Blood"
        },
        "valueQuantity": {
          "system": "http://unitsofmeasure.org",
          "value": 3.1,
          "unit": "%",
          "code": "%"
        },
        "referenceRange": [
          {
            "low": {
              "value": 4,
              "code": "%",
              "system": "http://unitsofmeasure.org"
            }
          },
          {
            "high": {
              "value": 6,
              "code": "%",
              "system": "http://unitsofmeasure.org"
            }
          }
        ],
        "interpretation": [
          {
            "coding": [
              {
                "code": "L",
                "system": "http://terminology.hl7.org/CodeSystem/v3-ObservationInterpretation",
                "display": "Low"
              }
            ]
          }
        ],
        "text": {
          "status": "generated",
          "div": "<div xmlns=\"http://www.w3.org/1999/xhtml\"><table class=\"hl7__eu__lab__report\"><tr><th>Test</th><th>06-Mar-2022</th><th>Reference&#xA0;Range</th><th>Unit</th></tr><tr><td>Hemoglobin A1c/Hemoglobin.total in Blood</td><td>3.1</td><td>4 - 6</td><td>L</td><td>%</td></tr></table></div>"
        },
        "status": "final",
        "subject": {
          "reference": "urn:uuid:a1581a91-ee43-4672-81e5-cd3a4469f9ef",
          "display": "Iva Kratochvílová"
        },
        "effectiveDateTime": "2022-03-06T16:10:29Z",
        "specimen": {
          "reference": "urn:uuid:7379b979-4eb4-45bb-91df-2f38a4146deb"
        }
      }
    },
    {
      "fullUrl": "urn:uuid:3c0d26ed-4acf-46b8-b4b7-95bf5192f965",
      "resource": {
        "resourceType": "Observation",
        "id": "3c0d26ed-4acf-46b8-b4b7-95bf5192f965",
        "meta": {
          "profile": [
            "http://hl7.eu/fhir/laboratory/StructureDefinition/Observation-resultslab-eu-lab"
          ]
        },
        "performer": [
          {
            "display": "The Central European Lab"
          }
        ],
        "category": [
          {
            "coding": [
              {
                "system": "http://terminology.hl7.org/CodeSystem/observation-category",
                "code": "laboratory"
              }
            ]
          }
        ],
        "code": {
          "coding": [
            {
              "code": "2339-0",
              "system": "http://loinc.org",
              "display": "Glucose [Mass/volume] in Blood"
            }
          ],
          "text": "Glucose [Mass/volume] in Blood"
        },
        "valueQuantity": {
          "system": "http://unitsofmeasure.org",
          "value": 82,
          "unit": "mg/dL",
          "code": "mg/dL"
        },
        "referenceRange": [
          {
            "low": {
              "value": 70,
              "code": "mg/dL",
              "system": "http://unitsofmeasure.org"
            }
          },
          {
            "high": {
              "value": 140,
              "code": "mg/dL",
              "system": "http://unitsofmeasure.org"
            }
          }
        ],
        "text": {
          "status": "generated",
          "div": "<div xmlns=\"http://www.w3.org/1999/xhtml\"><table class=\"hl7__eu__lab__report\"><tr><th>Test</th><th>06-Mar-2022</th><th>Reference&#xA0;Range</th><th>Unit</th></tr><tr><td>Glucose [Mass/volume] in Blood</td><td>82.0</td><td>70 - 140</td><td></td><td>mg/dL</td></tr></table></div>"
        },
        "status": "final",
        "subject": {
          "reference": "urn:uuid:a1581a91-ee43-4672-81e5-cd3a4469f9ef",
          "display": "Iva Kratochvílová"
        },
        "effectiveDateTime": "2022-03-06T16:10:29Z",
        "specimen": {
          "reference": "urn:uuid:7379b979-4eb4-45bb-91df-2f38a4146deb"
        }
      }
    },
    {
      "fullUrl": "urn:uuid:69431401-56e5-4634-9366-f9694c55fc6d",
      "resource": {
        "resourceType": "Observation",
        "id": "69431401-56e5-4634-9366-f9694c55fc6d",
        "meta": {
          "profile": [
            "http://hl7.eu/fhir/laboratory/StructureDefinition/Observation-resultslab-eu-lab"
          ]
        },
        "performer": [
          {
            "display": "The Central European Lab"
          }
        ],
        "category": [
          {
            "coding": [
              {
                "system": "http://terminology.hl7.org/CodeSystem/observation-category",
                "code": "laboratory"
              }
            ]
          }
        ],
        "code": {
          "coding": [
            {
              "code": "6299-2",
              "system": "http://loinc.org",
              "display": "Urea nitrogen [Mass/volume] in Blood"
            }
          ],
          "text": "Urea nitrogen [Mass/volume] in Blood"
        },
        "valueQuantity": {
          "system": "http://unitsofmeasure.org",
          "value": 7.5,
          "unit": "mg/dL",
          "code": "mg/dL"
        },
        "referenceRange": [
          {
            "low": {
              "value": 7,
              "code": "mg/dL",
              "system": "http://unitsofmeasure.org"
            }
          },
          {
            "high": {
              "value": 25,
              "code": "mg/dL",
              "system": "http://unitsofmeasure.org"
            }
          }
        ],
        "text": {
          "status": "generated",
          "div": "<div xmlns=\"http://www.w3.org/1999/xhtml\"><table class=\"hl7__eu__lab__report\"><tr><th>Test</th><th>06-Mar-2022</th><th>Reference&#xA0;Range</th><th>Unit</th></tr><tr><td>Urea nitrogen [Mass/volume] in Blood</td><td>7.5</td><td>7 - 25</td><td></td><td>mg/dL</td></tr></table></div>"
        },
        "status": "final",
        "subject": {
          "reference": "urn:uuid:a1581a91-ee43-4672-81e5-cd3a4469f9ef",
          "display": "Iva Kratochvílová"
        },
        "effectiveDateTime": "2022-03-06T16:10:29Z",
        "specimen": {
          "reference": "urn:uuid:7379b979-4eb4-45bb-91df-2f38a4146deb"
        }
      }
    },
    {
      "fullUrl": "urn:uuid:094d9a19-848d-483e-9807-a28afa842a44",
      "resource": {
        "resourceType": "Observation",
        "id": "094d9a19-848d-483e-9807-a28afa842a44",
        "meta": {
          "profile": [
            "http://hl7.eu/fhir/laboratory/StructureDefinition/Observation-resultslab-eu-lab"
          ]
        },
        "performer": [
          {
            "display": "The Central European Lab"
          }
        ],
        "category": [
          {
            "coding": [
              {
                "system": "http://terminology.hl7.org/CodeSystem/observation-category",
                "code": "laboratory"
              }
            ]
          }
        ],
        "code": {
          "coding": [
            {
              "code": "38483-4",
              "system": "http://loinc.org",
              "display": "Creatinine [Mass/volume] in Blood"
            }
          ],
          "text": "Creatinine [Mass/volume] in Blood"
        },
        "valueQuantity": {
          "system": "http://unitsofmeasure.org",
          "value": 1.3,
          "unit": "mg/dL",
          "code": "mg/dL"
        },
        "referenceRange": [
          {
            "low": {
              "value": 0.6,
              "code": "mg/dL",
              "system": "http://unitsofmeasure.org"
            }
          },
          {
            "high": {
              "value": 1.1,
              "code": "mg/dL",
              "system": "http://unitsofmeasure.org"
            }
          }
        ],
        "interpretation": [
          {
            "coding": [
              {
                "code": "H",
                "system": "http://terminology.hl7.org/CodeSystem/v3-ObservationInterpretation",
                "display": "High"
              }
            ]
          }
        ],
        "text": {
          "status": "generated",
          "div": "<div xmlns=\"http://www.w3.org/1999/xhtml\"><table class=\"hl7__eu__lab__report\"><tr><th>Test</th><th>06-Mar-2022</th><th>Reference&#xA0;Range</th><th>Unit</th></tr><tr><td>Creatinine [Mass/volume] in Blood</td><td>1.3</td><td>0.6 - 1.1</td><td>H</td><td>mg/dL</td></tr></table></div>"
        },
        "status": "final",
        "subject": {
          "reference": "urn:uuid:a1581a91-ee43-4672-81e5-cd3a4469f9ef",
          "display": "Iva Kratochvílová"
        },
        "effectiveDateTime": "2022-03-06T16:10:29Z",
        "specimen": {
          "reference": "urn:uuid:7379b979-4eb4-45bb-91df-2f38a4146deb"
        }
      }
    },
    {
      "fullUrl": "urn:uuid:4adfb9d6-fac4-43b0-8a24-e0d087ca8380",
      "resource": {
        "resourceType": "Observation",
        "id": "4adfb9d6-fac4-43b0-8a24-e0d087ca8380",
        "meta": {
          "profile": [
            "http://hl7.eu/fhir/laboratory/StructureDefinition/Observation-resultslab-eu-lab"
          ]
        },
        "performer": [
          {
            "display": "The Central European Lab"
          }
        ],
        "category": [
          {
            "coding": [
              {
                "system": "http://terminology.hl7.org/CodeSystem/observation-category",
                "code": "laboratory"
              }
            ]
          }
        ],
        "code": {
          "coding": [
            {
              "code": "49765-1",
              "system": "http://loinc.org",
              "display": "Calcium [Mass/volume] in Blood"
            }
          ],
          "text": "Calcium [Mass/volume] in Blood"
        },
        "valueQuantity": {
          "system": "http://unitsofmeasure.org",
          "value": 8.6,
          "unit": "mg/dL",
          "code": "mg/dL"
        },
        "referenceRange": [
          {
            "low": {
              "value": 8.6,
              "code": "mg/dL",
              "system": "http://unitsofmeasure.org"
            }
          },
          {
            "high": {
              "value": 10.4,
              "code": "mg/dL",
              "system": "http://unitsofmeasure.org"
            }
          }
        ],
        "text": {
          "status": "generated",
          "div": "<div xmlns=\"http://www.w3.org/1999/xhtml\"><table class=\"hl7__eu__lab__report\"><tr><th>Test</th><th>06-Mar-2022</th><th>Reference&#xA0;Range</th><th>Unit</th></tr><tr><td>Calcium [Mass/volume] in Blood</td><td>8.6</td><td>8.6 - 10.4</td><td></td><td>mg/dL</td></tr></table></div>"
        },
        "status": "final",
        "subject": {
          "reference": "urn:uuid:a1581a91-ee43-4672-81e5-cd3a4469f9ef",
          "display": "Iva Kratochvílová"
        },
        "effectiveDateTime": "2022-03-06T16:10:29Z",
        "specimen": {
          "reference": "urn:uuid:7379b979-4eb4-45bb-91df-2f38a4146deb"
        }
      }
    },
    {
      "fullUrl": "urn:uuid:88b4ca90-95b9-4359-94af-09ade9b73d64",
      "resource": {
        "resourceType": "Observation",
        "id": "88b4ca90-95b9-4359-94af-09ade9b73d64",
        "meta": {
          "profile": [
            "http://hl7.eu/fhir/laboratory/StructureDefinition/Observation-resultslab-eu-lab"
          ]
        },
        "performer": [
          {
            "display": "The Central European Lab"
          }
        ],
        "category": [
          {
            "coding": [
              {
                "system": "http://terminology.hl7.org/CodeSystem/observation-category",
                "code": "laboratory"
              }
            ]
          }
        ],
        "code": {
          "coding": [
            {
              "code": "2947-0",
              "system": "http://loinc.org",
              "display": "Sodium [Moles/volume] in Blood"
            }
          ],
          "text": "Sodium [Moles/volume] in Blood"
        },
        "valueQuantity": {
          "system": "http://unitsofmeasure.org",
          "value": 138,
          "unit": "mmol/L",
          "code": "mmol/L"
        },
        "referenceRange": [
          {
            "low": {
              "value": 135,
              "code": "mmol/L",
              "system": "http://unitsofmeasure.org"
            }
          },
          {
            "high": {
              "value": 145,
              "code": "mmol/L",
              "system": "http://unitsofmeasure.org"
            }
          }
        ],
        "text": {
          "status": "generated",
          "div": "<div xmlns=\"http://www.w3.org/1999/xhtml\"><table class=\"hl7__eu__lab__report\"><tr><th>Test</th><th>06-Mar-2022</th><th>Reference&#xA0;Range</th><th>Unit</th></tr><tr><td>Sodium [Moles/volume] in Blood</td><td>138.0</td><td>135 - 145</td><td></td><td>mmol/L</td></tr></table></div>"
        },
        "status": "final",
        "subject": {
          "reference": "urn:uuid:a1581a91-ee43-4672-81e5-cd3a4469f9ef",
          "display": "Iva Kratochvílová"
        },
        "effectiveDateTime": "2022-03-06T16:10:29Z",
        "specimen": {
          "reference": "urn:uuid:7379b979-4eb4-45bb-91df-2f38a4146deb"
        }
      }
    },
    {
      "fullUrl": "urn:uuid:cf495dc1-a01c-40b1-9c82-8071e881f9b4",
      "resource": {
        "resourceType": "Observation",
        "id": "cf495dc1-a01c-40b1-9c82-8071e881f9b4",
        "meta": {
          "profile": [
            "http://hl7.eu/fhir/laboratory/StructureDefinition/Observation-resultslab-eu-lab"
          ]
        },
        "performer": [
          {
            "display": "The Central European Lab"
          }
        ],
        "category": [
          {
            "coding": [
              {
                "system": "http://terminology.hl7.org/CodeSystem/observation-category",
                "code": "laboratory"
              }
            ]
          }
        ],
        "code": {
          "coding": [
            {
              "code": "6298-4",
              "system": "http://loinc.org",
              "display": "Potassium [Moles/volume] in Blood"
            }
          ],
          "text": "Potassium [Moles/volume] in Blood"
        },
        "valueQuantity": {
          "system": "http://unitsofmeasure.org",
          "value": 4.7,
          "unit": "mmol/L",
          "code": "mmol/L"
        },
        "referenceRange": [
          {
            "low": {
              "value": 3.5,
              "code": "mmol/L",
              "system": "http://unitsofmeasure.org"
            }
          },
          {
            "high": {
              "value": 5.1,
              "code": "mmol/L",
              "system": "http://unitsofmeasure.org"
            }
          }
        ],
        "text": {
          "status": "generated",
          "div": "<div xmlns=\"http://www.w3.org/1999/xhtml\"><table class=\"hl7__eu__lab__report\"><tr><th>Test</th><th>06-Mar-2022</th><th>Reference&#xA0;Range</th><th>Unit</th></tr><tr><td>Potassium [Moles/volume] in Blood</td><td>4.7</td><td>3.5 - 5.1</td><td></td><td>mmol/L</td></tr></table></div>"
        },
        "status": "final",
        "subject": {
          "reference": "urn:uuid:a1581a91-ee43-4672-81e5-cd3a4469f9ef",
          "display": "Iva Kratochvílová"
        },
        "effectiveDateTime": "2022-03-06T16:10:29Z",
        "specimen": {
          "reference": "urn:uuid:7379b979-4eb4-45bb-91df-2f38a4146deb"
        }
      }
    },
    {
      "fullUrl": "urn:uuid:e8fe6262-0a5d-4bcf-8240-59d7aae0bb36",
      "resource": {
        "resourceType": "Observation",
        "id": "e8fe6262-0a5d-4bcf-8240-59d7aae0bb36",
        "meta": {
          "profile": [
            "http://hl7.eu/fhir/laboratory/StructureDefinition/Observation-resultslab-eu-lab"
          ]
        },
        "performer": [
          {
            "display": "The Central European Lab"
          }
        ],
        "category": [
          {
            "coding": [
              {
                "system": "http://terminology.hl7.org/CodeSystem/observation-category",
                "code": "laboratory"
              }
            ]
          }
        ],
        "code": {
          "coding": [
            {
              "code": "2069-3",
              "system": "http://loinc.org",
              "display": "Chloride [Moles/volume] in Blood"
            }
          ],
          "text": "Chloride [Moles/volume] in Blood"
        },
        "valueQuantity": {
          "system": "http://unitsofmeasure.org",
          "value": 110.8,
          "unit": "mmol/L",
          "code": "mmol/L"
        },
        "referenceRange": [
          {
            "low": {
              "value": 98,
              "code": "mmol/L",
              "system": "http://unitsofmeasure.org"
            }
          },
          {
            "high": {
              "value": 110,
              "code": "mmol/L",
              "system": "http://unitsofmeasure.org"
            }
          }
        ],
        "interpretation": [
          {
            "coding": [
              {
                "code": "H",
                "system": "http://terminology.hl7.org/CodeSystem/v3-ObservationInterpretation",
                "display": "High"
              }
            ]
          }
        ],
        "text": {
          "status": "generated",
          "div": "<div xmlns=\"http://www.w3.org/1999/xhtml\"><table class=\"hl7__eu__lab__report\"><tr><th>Test</th><th>06-Mar-2022</th><th>Reference&#xA0;Range</th><th>Unit</th></tr><tr><td>Chloride [Moles/volume] in Blood</td><td>110.8</td><td>98 - 110</td><td>H</td><td>mmol/L</td></tr></table></div>"
        },
        "status": "final",
        "subject": {
          "reference": "urn:uuid:a1581a91-ee43-4672-81e5-cd3a4469f9ef",
          "display": "Iva Kratochvílová"
        },
        "effectiveDateTime": "2022-03-06T16:10:29Z",
        "specimen": {
          "reference": "urn:uuid:7379b979-4eb4-45bb-91df-2f38a4146deb"
        }
      }
    },
    {
      "fullUrl": "urn:uuid:23618666-da76-4fa5-88c3-2ba862a36f31",
      "resource": {
        "resourceType": "Observation",
        "id": "23618666-da76-4fa5-88c3-2ba862a36f31",
        "meta": {
          "profile": [
            "http://hl7.eu/fhir/laboratory/StructureDefinition/Observation-resultslab-eu-lab"
          ]
        },
        "performer": [
          {
            "display": "The Central European Lab"
          }
        ],
        "category": [
          {
            "coding": [
              {
                "system": "http://terminology.hl7.org/CodeSystem/observation-category",
                "code": "laboratory"
              }
            ]
          }
        ],
        "code": {
          "coding": [
            {
              "code": "20565-8",
              "system": "http://loinc.org",
              "display": "Carbon dioxide, total [Moles/volume] in Blood"
            }
          ],
          "text": "Carbon dioxide, total [Moles/volume] in Blood"
        },
        "valueQuantity": {
          "system": "http://unitsofmeasure.org",
          "value": 28.7,
          "unit": "mmol/L",
          "code": "mmol/L"
        },
        "referenceRange": [
          {
            "low": {
              "value": 22,
              "code": "mmol/L",
              "system": "http://unitsofmeasure.org"
            }
          },
          {
            "high": {
              "value": 29,
              "code": "mmol/L",
              "system": "http://unitsofmeasure.org"
            }
          }
        ],
        "text": {
          "status": "generated",
          "div": "<div xmlns=\"http://www.w3.org/1999/xhtml\"><table class=\"hl7__eu__lab__report\"><tr><th>Test</th><th>06-Mar-2022</th><th>Reference&#xA0;Range</th><th>Unit</th></tr><tr><td>Carbon dioxide, total [Moles/volume] in Blood</td><td>28.7</td><td>22 - 29</td><td></td><td>mmol/L</td></tr></table></div>"
        },
        "status": "final",
        "subject": {
          "reference": "urn:uuid:a1581a91-ee43-4672-81e5-cd3a4469f9ef",
          "display": "Iva Kratochvílová"
        },
        "effectiveDateTime": "2022-03-06T16:10:29Z",
        "specimen": {
          "reference": "urn:uuid:7379b979-4eb4-45bb-91df-2f38a4146deb"
        }
      }
    },
    {
      "fullUrl": "urn:uuid:cc3de1f9-8035-4076-9227-81b7ba21e2e4",
      "resource": {
        "resourceType": "Observation",
        "id": "cc3de1f9-8035-4076-9227-81b7ba21e2e4",
        "meta": {
          "profile": [
            "http://hl7.eu/fhir/laboratory/StructureDefinition/Observation-resultslab-eu-lab"
          ]
        },
        "performer": [
          {
            "display": "The Central European Lab"
          }
        ],
        "category": [
          {
            "coding": [
              {
                "system": "http://terminology.hl7.org/CodeSystem/observation-category",
                "code": "laboratory"
              }
            ]
          }
        ],
        "code": {
          "coding": [
            {
              "code": "2093-3",
              "system": "http://loinc.org",
              "display": "Cholesterol [Mass/volume] in Serum or Plasma"
            }
          ],
          "text": "Cholesterol [Mass/volume] in Serum or Plasma"
        },
        "valueQuantity": {
          "system": "http://unitsofmeasure.org",
          "value": 176.6,
          "unit": "mg/dL",
          "code": "mg/dL"
        },
        "referenceRange": [
          {
            "low": {
              "value": 130,
              "code": "mg/dL",
              "system": "http://unitsofmeasure.org"
            }
          },
          {
            "high": {
              "value": 200,
              "code": "mg/dL",
              "system": "http://unitsofmeasure.org"
            }
          }
        ],
        "text": {
          "status": "generated",
          "div": "<div xmlns=\"http://www.w3.org/1999/xhtml\"><table class=\"hl7__eu__lab__report\"><tr><th>Test</th><th>06-Mar-2022</th><th>Reference&#xA0;Range</th><th>Unit</th></tr><tr><td>Cholesterol [Mass/volume] in Serum or Plasma</td><td>176.6</td><td>130 - 200</td><td></td><td>mg/dL</td></tr></table></div>"
        },
        "status": "final",
        "subject": {
          "reference": "urn:uuid:a1581a91-ee43-4672-81e5-cd3a4469f9ef",
          "display": "Iva Kratochvílová"
        },
        "effectiveDateTime": "2022-03-06T16:10:29Z",
        "specimen": {
          "reference": "urn:uuid:6db9601b-b00f-42c4-a493-518b64c65310"
        }
      }
    },
    {
      "fullUrl": "urn:uuid:e7f4f088-a6d8-4a67-bb1f-bb3d370bb79c",
      "resource": {
        "resourceType": "Observation",
        "id": "e7f4f088-a6d8-4a67-bb1f-bb3d370bb79c",
        "meta": {
          "profile": [
            "http://hl7.eu/fhir/laboratory/StructureDefinition/Observation-resultslab-eu-lab"
          ]
        },
        "performer": [
          {
            "display": "The Central European Lab"
          }
        ],
        "category": [
          {
            "coding": [
              {
                "system": "http://terminology.hl7.org/CodeSystem/observation-category",
                "code": "laboratory"
              }
            ]
          }
        ],
        "code": {
          "coding": [
            {
              "code": "2571-8",
              "system": "http://loinc.org",
              "display": "Triglyceride [Mass/volume] in Serum or Plasma"
            }
          ],
          "text": "Triglyceride [Mass/volume] in Serum or Plasma"
        },
        "valueQuantity": {
          "system": "http://unitsofmeasure.org",
          "value": 126.6,
          "unit": "mg/dL",
          "code": "mg/dL"
        },
        "referenceRange": [
          {
            "low": {
              "value": 35,
              "code": "mg/dL",
              "system": "http://unitsofmeasure.org"
            }
          },
          {
            "high": {
              "value": 150,
              "code": "mg/dL",
              "system": "http://unitsofmeasure.org"
            }
          }
        ],
        "text": {
          "status": "generated",
          "div": "<div xmlns=\"http://www.w3.org/1999/xhtml\"><table class=\"hl7__eu__lab__report\"><tr><th>Test</th><th>06-Mar-2022</th><th>Reference&#xA0;Range</th><th>Unit</th></tr><tr><td>Triglyceride [Mass/volume] in Serum or Plasma</td><td>126.6</td><td>35 - 150</td><td></td><td>mg/dL</td></tr></table></div>"
        },
        "status": "final",
        "subject": {
          "reference": "urn:uuid:a1581a91-ee43-4672-81e5-cd3a4469f9ef",
          "display": "Iva Kratochvílová"
        },
        "effectiveDateTime": "2022-03-06T16:10:29Z",
        "specimen": {
          "reference": "urn:uuid:6db9601b-b00f-42c4-a493-518b64c65310"
        }
      }
    },
    {
      "fullUrl": "urn:uuid:ce22c333-9be6-4faa-9130-eeab8f6a8b1a",
      "resource": {
        "resourceType": "Observation",
        "id": "ce22c333-9be6-4faa-9130-eeab8f6a8b1a",
        "meta": {
          "profile": [
            "http://hl7.eu/fhir/laboratory/StructureDefinition/Observation-resultslab-eu-lab"
          ]
        },
        "performer": [
          {
            "display": "The Central European Lab"
          }
        ],
        "category": [
          {
            "coding": [
              {
                "system": "http://terminology.hl7.org/CodeSystem/observation-category",
                "code": "laboratory"
              }
            ]
          }
        ],
        "code": {
          "coding": [
            {
              "code": "18262-6",
              "system": "http://loinc.org",
              "display": "Cholesterol in LDL [Mass/volume] in Serum or Plasma by Direct assay"
            }
          ],
          "text": "Cholesterol in LDL [Mass/volume] in Serum or Plasma by Direct assay"
        },
        "valueQuantity": {
          "system": "http://unitsofmeasure.org",
          "value": 104.8,
          "unit": "mg/dL",
          "code": "mg/dL"
        },
        "referenceRange": [
          {
            "low": {
              "value": 0,
              "code": "mg/dL",
              "system": "http://unitsofmeasure.org"
            }
          },
          {
            "high": {
              "value": 130,
              "code": "mg/dL",
              "system": "http://unitsofmeasure.org"
            }
          }
        ],
        "text": {
          "status": "generated",
          "div": "<div xmlns=\"http://www.w3.org/1999/xhtml\"><table class=\"hl7__eu__lab__report\"><tr><th>Test</th><th>06-Mar-2022</th><th>Reference&#xA0;Range</th><th>Unit</th></tr><tr><td>Cholesterol in LDL [Mass/volume] in Serum or Plasma by Direct assay</td><td>104.8</td><td>0 - 130</td><td></td><td>mg/dL</td></tr></table></div>"
        },
        "status": "final",
        "subject": {
          "reference": "urn:uuid:a1581a91-ee43-4672-81e5-cd3a4469f9ef",
          "display": "Iva Kratochvílová"
        },
        "effectiveDateTime": "2022-03-06T16:10:29Z",
        "specimen": {
          "reference": "urn:uuid:6db9601b-b00f-42c4-a493-518b64c65310"
        }
      }
    },
    {
      "fullUrl": "urn:uuid:c646218f-c679-4efc-9d4d-1bd83dd9d7da",
      "resource": {
        "resourceType": "Observation",
        "id": "c646218f-c679-4efc-9d4d-1bd83dd9d7da",
        "meta": {
          "profile": [
            "http://hl7.eu/fhir/laboratory/StructureDefinition/Observation-resultslab-eu-lab"
          ]
        },
        "performer": [
          {
            "display": "The Central European Lab"
          }
        ],
        "category": [
          {
            "coding": [
              {
                "system": "http://terminology.hl7.org/CodeSystem/observation-category",
                "code": "laboratory"
              }
            ]
          }
        ],
        "code": {
          "coding": [
            {
              "code": "2085-9",
              "system": "http://loinc.org",
              "display": "Cholesterol in HDL [Mass/volume] in Serum or Plasma"
            }
          ],
          "text": "Cholesterol in HDL [Mass/volume] in Serum or Plasma"
        },
        "valueQuantity": {
          "system": "http://unitsofmeasure.org",
          "value": 46.4,
          "unit": "mg/dL",
          "code": "mg/dL"
        },
        "referenceRange": [
          {
            "low": {
              "value": 50,
              "code": "mg/dL",
              "system": "http://unitsofmeasure.org"
            }
          },
          {
            "high": {
              "value": 100,
              "code": "mg/dL",
              "system": "http://unitsofmeasure.org"
            }
          }
        ],
        "interpretation": [
          {
            "coding": [
              {
                "code": "L",
                "system": "http://terminology.hl7.org/CodeSystem/v3-ObservationInterpretation",
                "display": "Low"
              }
            ]
          }
        ],
        "text": {
          "status": "generated",
          "div": "<div xmlns=\"http://www.w3.org/1999/xhtml\"><table class=\"hl7__eu__lab__report\"><tr><th>Test</th><th>06-Mar-2022</th><th>Reference&#xA0;Range</th><th>Unit</th></tr><tr><td>Cholesterol in HDL [Mass/volume] in Serum or Plasma</td><td>46.4</td><td>50 - 100</td><td>L</td><td>mg/dL</td></tr></table></div>"
        },
        "status": "final",
        "subject": {
          "reference": "urn:uuid:a1581a91-ee43-4672-81e5-cd3a4469f9ef",
          "display": "Iva Kratochvílová"
        },
        "effectiveDateTime": "2022-03-06T16:10:29Z",
        "specimen": {
          "reference": "urn:uuid:6db9601b-b00f-42c4-a493-518b64c65310"
        }
      }
    },
    {
      "fullUrl": "urn:uuid:7ffda671-71c6-49e9-a403-86b7c57c3596",
      "resource": {
        "resourceType": "Device",
        "id": "7ffda671-71c6-49e9-a403-86b7c57c3596",
        "deviceName": [
          {
            "name": "SYNDERAI Synthetic Generator",
            "type": "manufacturer-name"
          }
        ],
        "version": [
          {
            "value": "5.0"
          }
        ],
        "text": {
          "status": "generated",
          "div": "<div xmlns=\"http://www.w3.org/1999/xhtml\">SYNDERAI Synthetic Generator v5.0</div>"
        },
        "status": "active\"",
        "distinctIdentifier": "synderai-generator-50",
        "manufacturer": "SYNDERAI Project"
      }
    },
    {
      "fullUrl": "urn:uuid:4f8244b9-8f16-4c0e-b12d-937aff049dac",
      "resource": {
        "resourceType": "Provenance",
        "id": "4f8244b9-8f16-4c0e-b12d-937aff049dac",
        "target": [
          {
            "reference": "Patient/a1581a91-ee43-4672-81e5-cd3a4469f9ef"
          },
          {
            "reference": "Bundle/ca73d9c9-102e-4441-b30e-d008aa48d51e"
          },
          {
            "reference": "Composition/1e33f006-482b-47a4-bdd0-e06bc2e65bdd"
          },
          {
            "reference": "PractitionerRole/9cb8769c-b068-4b8b-8749-f16846027e0b"
          },
          {
            "reference": "Practitioner/721cf592-ef54-4b78-b0e9-132cd4814e82"
          },
          {
            "reference": "PractitionerRole/71ed6e1d-b77b-49db-aaaf-00beac3b139c"
          },
          {
            "reference": "Organization/e5bed464-332f-4726-847c-269851818e4a"
          }
        ],
        "activity": {
          "text": "Synthetic Example Data Generation"
        },
        "policy": [
          "https://synderai.net/synderai-synthetic-data-policy"
        ],
        "agent": [
          {
            "type": {
              "text": "author"
            },
            "who": {
              "reference": "Device/7ffda671-71c6-49e9-a403-86b7c57c3596"
            }
          }
        ],
        "reason": [
          {
            "text": "Interoperability Testing and Training (non-clinical use)"
          }
        ],
        "text": {
          "status": "generated",
          "div": "<div xmlns=\"http://www.w3.org/1999/xhtml\">Provenance for SYNDERAI Synthetic Example Data Resource</div>"
        },
        "recorded": "2022-03-06T17:10:29Z"
      }
    },
    {
      "fullUrl": "urn:uuid:9cb8769c-b068-4b8b-8749-f16846027e0b",
      "resource": {
        "resourceType": "PractitionerRole",
        "id": "9cb8769c-b068-4b8b-8749-f16846027e0b",
        "meta": {
          "profile": [
            "http://hl7.eu/fhir/base/StructureDefinition/practitionerRole-eu"
          ]
        },
        "text": {
          "status": "generated",
          "div": "<div xmlns=\"http://www.w3.org/1999/xhtml\">Laboratory Role Id: 9cb8769c-b068-4b8b-8749-f16846027e0b</div>"
        },
        "practitioner": {
          "reference": "urn:uuid:721cf592-ef54-4b78-b0e9-132cd4814e82"
        }
      }
    },
    {
      "fullUrl": "urn:uuid:721cf592-ef54-4b78-b0e9-132cd4814e82",
      "resource": {
        "resourceType": "Practitioner",
        "id": "721cf592-ef54-4b78-b0e9-132cd4814e82",
        "meta": {
          "profile": [
            "http://hl7.eu/fhir/base/StructureDefinition/practitioner-eu"
          ]
        },
        "identifier": [
          {
            "assigner": {
              "display": "HL7 Europe"
            },
            "system": "urn:oid:2.16.840.1.113883.2.51.999",
            "value": "adadbbd7-0db2-4ff2-865c-aed447f9bf26"
          }
        ],
        "name": [
          {
            "prefix": [
              "dr"
            ],
            "given": [
              "Ex"
            ],
            "family": "Ample"
          }
        ],
        "address": [
          {
            "line": [
              "Laboratoire Central Européenne",
              "Boulevard du Jardin Botanique 32"
            ],
            "postalCode": "1000",
            "city": "Brussels",
            "country": "Belgium"
          }
        ],
        "text": {
          "status": "generated",
          "div": "<div xmlns=\"http://www.w3.org/1999/xhtml\">Laboratory: Laboratoire Central Européenne, 1000 Brussels, Belgium</div>"
        }
      }
    }
  ],
  "type": "document",
  "timestamp": "2022-03-06T17:10:29Z"
}
