{
  "resourceType": "Bundle",
  "id": "42541bd1-fe7f-4cfa-8375-034e7937a3e2",
  "meta": {
    "profile": [
      "http://hl7.eu/fhir/laboratory/StructureDefinition/Bundle-eu-lab"
    ]
  },
  "identifier": {
    "assigner": {
      "display": "HL7 Europe"
    },
    "system": "urn:oid:2.16.840.1.113883.2.51.999",
    "value": "f2965250-12f9-40db-bf8e-ea0d575158d3"
  },
  "entry": [
    {
      "fullUrl": "urn:uuid:63d6a450-43ce-4dec-9f58-38e46263af6b",
      "resource": {
        "resourceType": "Composition",
        "id": "63d6a450-43ce-4dec-9f58-38e46263af6b",
        "meta": {
          "profile": [
            "http://hl7.eu/fhir/laboratory/StructureDefinition/Composition-eu-lab"
          ]
        },
        "identifier": {
          "assigner": {
            "display": "HL7 Europe"
          },
          "system": "urn:oid:2.16.840.1.113883.2.51.999",
          "value": "02dd4e75-1a23-4307-8273-ef706553630a"
        },
        "author": [
          {
            "reference": "urn:uuid:739ed1aa-81c2-4023-8771-f97aeb35f758"
          }
        ],
        "category": [
          {
            "coding": [
              {
                "code": "26436-6",
                "system": "http://loinc.org",
                "display": "Laboratory studies (set)"
              }
            ]
          }
        ],
        "type": {
          "coding": [
            {
              "code": "11502-2",
              "system": "http://loinc.org",
              "display": "Laboratory report"
            }
          ],
          "text": "Laboratory Report"
        },
        "section": [
          {
            "code": {
              "coding": [
                {
                  "code": "26436-6",
                  "system": "http://loinc.org",
                  "display": "Laboratory studies (set)"
                }
              ],
              "text": "Laboratory studies"
            },
            "section": [
              {
                "code": {
                  "coding": [
                    {
                      "code": "$18719-5",
                      "system": "http://loinc.org",
                      "display": "Chemistry studies (set)"
                    }
                  ],
                  "text": "Chemistry"
                },
                "entry": [
                  {
                    "reference": "urn:uuid:09903081-fd96-481c-8b46-629a080828c4"
                  },
                  {
                    "reference": "urn:uuid:1104ec0b-42f6-4990-bfc3-2b36abab5bfd"
                  },
                  {
                    "reference": "urn:uuid:d5adcbcb-274a-4a14-87d3-191dbb098f22"
                  },
                  {
                    "reference": "urn:uuid:23295598-6c52-4e0e-9807-3b403634dc0c"
                  },
                  {
                    "reference": "urn:uuid:d49b417c-731e-4429-8505-aeb4c8acf286"
                  },
                  {
                    "reference": "urn:uuid:f21e946b-2ea0-4345-9466-e85ebf0cbb8f"
                  },
                  {
                    "reference": "urn:uuid:794f39df-3e30-4cb2-b0b8-9e78d65477b6"
                  },
                  {
                    "reference": "urn:uuid:2b3f48a3-836c-4a15-b762-8a9d4a8558c3"
                  },
                  {
                    "reference": "urn:uuid:b6330698-bee9-4caf-a5db-7345513a38b1"
                  },
                  {
                    "reference": "urn:uuid:3af0c63d-8cc8-42bd-980b-fed120669934"
                  }
                ],
                "text": {
                  "status": "generated",
                  "div": "<div xmlns=\"http://www.w3.org/1999/xhtml\"><h3>Chemistry</h3><table class=\"hl7__eu__lab__report\"><thead><tr><th>Test</th><th>16-NOV-2015</th><th>Reference&#xA0;Range</th><th>Unit</th></tr></thead><tbody><tr><td>Glucose [Mass/volume] in Serum or Plasma</td><td>90.6</td><td>70 - 99</td><td>mg/dL</td></tr><tr><td>Urea nitrogen [Mass/volume] in Serum or Plasma</td><td>13.7</td><td>7 - 50</td><td>mg/dL</td></tr><tr><td>Creatinine [Mass/volume] in Serum or Plasma</td><td><strong>2.0 H</strong></td><td>0.6 - 1.1</td><td>mg/dL</td></tr><tr><td>Calcium [Mass/volume] in Serum or Plasma</td><td>9.3</td><td>8.6 - 10.4</td><td>mg/dL</td></tr><tr><td>Sodium [Moles/volume] in Serum or Plasma</td><td>136.7</td><td>135 - 145</td><td>mmol/L</td></tr><tr><td>Potassium [Moles/volume] in Serum or Plasma</td><td>5.1</td><td>3.5 - 5.1</td><td>mmol/L</td></tr><tr><td>Chloride [Moles/volume] in Serum or Plasma</td><td>107.9</td><td>98 - 108</td><td>mmol/L</td></tr><tr><td>Carbon dioxide, total [Moles/volume] in Serum or Plasma</td><td>28.8</td><td>22 - 32</td><td>mmol/L</td></tr><tr><td>Ketones [Presence] in Urine by Test strip</td><td>Urine ketone test = +</td><td></td><td></td></tr><tr><td>Hemoglobin A1c/Hemoglobin.total in Blood</td><td><strong>3.1 L</strong></td><td>4 - 6.4</td><td>%</td></tr></tbody></table></div>"
                },
                "title": "Chemistry"
              },
              {
                "code": {
                  "coding": [
                    {
                      "code": "$18729-4",
                      "system": "http://loinc.org",
                      "display": "Urinalysis studies (set)"
                    }
                  ],
                  "text": "Urinalysis"
                },
                "entry": [
                  {
                    "reference": "urn:uuid:97e04e87-7531-481c-98f9-26ed032297cd"
                  },
                  {
                    "reference": "urn:uuid:9a0d9104-ab82-40c2-8820-431f9c2eb091"
                  },
                  {
                    "reference": "urn:uuid:9207ec9f-b104-43fa-aa1a-0d56823625a7"
                  },
                  {
                    "reference": "urn:uuid:e9993f75-6d0a-47f9-8ab5-780247a31b56"
                  },
                  {
                    "reference": "urn:uuid:8fcdee97-d3ba-4af9-a082-785525c1db30"
                  },
                  {
                    "reference": "urn:uuid:17076936-c3f2-42e1-9885-610f92e6bf74"
                  },
                  {
                    "reference": "urn:uuid:28c8ee66-cd90-4d89-9b39-d606e054346f"
                  },
                  {
                    "reference": "urn:uuid:1b3ad632-be62-4052-a1b1-63ec4aac433e"
                  },
                  {
                    "reference": "urn:uuid:00de3399-43c1-4a57-b524-9516c7e7172d"
                  },
                  {
                    "reference": "urn:uuid:087d14a7-fcea-4484-ac1e-97a1b203416f"
                  },
                  {
                    "reference": "urn:uuid:c1812357-31eb-434c-bc48-08811c0388ea"
                  },
                  {
                    "reference": "urn:uuid:81f2831c-af08-43f4-af79-6786e17d50d0"
                  }
                ],
                "text": {
                  "status": "generated",
                  "div": "<div xmlns=\"http://www.w3.org/1999/xhtml\"><h3>Urinalysis</h3><table class=\"hl7__eu__lab__report\"><thead><tr><th>Test</th><th>16-NOV-2015</th><th>Reference&#xA0;Range</th><th>Unit</th></tr></thead><tbody><tr><td>Glucose [Mass/volume] in Urine by Test strip</td><td><strong>2.5 H</strong></td><td>0.8 - 0</td><td>mg/dL</td></tr><tr><td>Glucose [Presence] in Urine by Test strip</td><td>++</td><td></td><td></td></tr><tr><td>Bilirubin.total [Mass/volume] in Urine by Test strip</td><td>0.8</td><td>0 - 1</td><td>mg/dL</td></tr><tr><td>Bilirubin.total [Presence] in Urine by Test strip</td><td>Finding of bilirubin in urine</td><td></td><td></td></tr><tr><td>Ketones [Mass/volume] in Urine by Test strip</td><td><strong>10.9 H</strong></td><td>0 - 4</td><td>mg/dL</td></tr><tr><td>Specific gravity of Urine by Test strip</td><td><strong>1.0 L</strong></td><td>1.005 - 1.03</td><td>{nominal}</td></tr><tr><td>pH of Urine by Test strip</td><td>5.2</td><td>4.6 - 7</td><td>pH</td></tr><tr><td>Protein [Mass/volume] in Urine by Test strip</td><td><strong>268.7 H</strong></td><td>0 - 14</td><td>mg/dL</td></tr><tr><td>Protein [Presence] in Urine by Test strip</td><td>Urine protein test = ++</td><td></td><td></td></tr><tr><td>Nitrite [Presence] in Urine by Test strip</td><td>Urine nitrite negative</td><td></td><td></td></tr><tr><td>Hemoglobin [Presence] in Urine by Test strip</td><td>Urine blood test = negative</td><td></td><td></td></tr><tr><td>Leukocyte esterase [Presence] in Urine by Test strip</td><td>Urine leukocyte test negative</td><td></td><td></td></tr></tbody></table></div>"
                },
                "title": "Urinalysis"
              },
              {
                "code": {
                  "coding": [
                    {
                      "code": "$LP7846-1",
                      "system": "http://loinc.org",
                      "display": "Specimen information"
                    }
                  ],
                  "text": "Specimen information"
                },
                "entry": [
                  {
                    "reference": "urn:uuid:7e44a255-7520-412e-a30f-c15bb16caead"
                  },
                  {
                    "reference": "urn:uuid:b2fecaf1-42b1-4bad-8a3d-b894eb8dfa57"
                  },
                  {
                    "reference": "urn:uuid:52666fff-2968-4995-b82e-ba1b40b0db27"
                  },
                  {
                    "reference": "urn:uuid:fd63dc80-c139-46bd-94d0-831495d46bd3"
                  }
                ],
                "text": {
                  "status": "generated",
                  "div": "<div xmlns=\"http://www.w3.org/1999/xhtml\"><h3>Specimen information</h3><table class=\"hl7__eu__lab__report\"><thead><tr><th>Test</th><th>16-NOV-2015</th><th>Specimen</th><th></th></tr></thead><tbody><tr><td>Appearance of Urine</td><td>Cloudy urine</td><td>Urine</td><td></td></tr><tr><td>Odor of Urine</td><td>Urine smell ammoniacal</td><td>Urine</td><td></td></tr><tr><td>Clarity of Urine</td><td>Translucent</td><td>Urine</td><td></td></tr><tr><td>Color of Urine</td><td>Brown color</td><td>Urine</td><td></td></tr></tbody></table></div>"
                },
                "title": "Specimen information"
              }
            ],
            "title": "Laboratory Report"
          },
          {
            "text": {
              "status": "generated",
              "div": "<div xmlns=\"http://www.w3.org/1999/xhtml\"><h3>Annotation</h3><table class=\"hl7__eu__lab__report\"><tr><th>Conclusion and Recommendations based on this report and previous findings known to us</th></tr><tr><td>The patient shows elevated serum creatinine, indicating impaired renal function. Urinalysis reveals significant proteinuria, glucosuria, and ketonuria, with low specific gravity, suggesting possible diabetic nephropathy or another renal pathology. Hemoglobin A1c is low, which may reflect recent hypoglycemia or anemia. No evidence of urinary tract infection is present. Recommend further nephrological evaluation and assessment of glycemic status.</td></tr></table></div>"
            },
            "code": {
              "coding": [
                {
                  "system": "http://loinc.org",
                  "code": "48767-8",
                  "display": "Annotation comment"
                }
              ]
            },
            "title": "Annotation comment"
          }
        ],
        "status": "final",
        "subject": {
          "reference": "urn:uuid:fb7b601a-97ac-4616-8adb-6a47b522bc71",
          "display": "Meaghan Neary"
        },
        "date": "2015-11-16T23:11:04Z",
        "title": "Laboratory Report",
        "confidentiality": "N"
      }
    },
    {
      "fullUrl": "urn:uuid:a27e98b5-c1f6-45a4-bcaa-a20954b7d8fb",
      "resource": {
        "resourceType": "DiagnosticReport",
        "id": "a27e98b5-c1f6-45a4-bcaa-a20954b7d8fb",
        "meta": {
          "profile": [
            "http://hl7.eu/fhir/laboratory/StructureDefinition/DiagnosticReport-eu-lab"
          ]
        },
        "identifier": [
          {
            "assigner": {
              "display": "HL7 Europe"
            },
            "system": "urn:oid:2.16.840.1.113883.2.51.999",
            "value": "48726334-5031-431e-ad5c-33d1bbbe1ed3"
          }
        ],
        "extension": [
          {
            "url": "http://hl7.org/fhir/5.0/StructureDefinition/extension-DiagnosticReport.composition",
            "valueReference": {
              "reference": "urn:uuid:02dd4e75-1a23-4307-8273-ef706553630a"
            }
          }
        ],
        "category": [
          {
            "coding": [
              {
                "code": "26436-6",
                "system": "http://loinc.org",
                "display": "Laboratory studies (set)"
              }
            ]
          }
        ],
        "specimen": [
          {
            "reference": "urn:uuid:9922f5b0-e016-42be-b576-d7f2143267ff"
          },
          {
            "reference": "urn:uuid:e5accc79-5e04-4bb2-9c1c-a9f0cad892d1"
          },
          {
            "reference": "urn:uuid:240c14c0-2cd2-4d66-9d78-ad1ac6fe99eb"
          }
        ],
        "result": [
          {
            "reference": "urn:uuid:09903081-fd96-481c-8b46-629a080828c4"
          },
          {
            "reference": "urn:uuid:1104ec0b-42f6-4990-bfc3-2b36abab5bfd"
          },
          {
            "reference": "urn:uuid:d5adcbcb-274a-4a14-87d3-191dbb098f22"
          },
          {
            "reference": "urn:uuid:23295598-6c52-4e0e-9807-3b403634dc0c"
          },
          {
            "reference": "urn:uuid:d49b417c-731e-4429-8505-aeb4c8acf286"
          },
          {
            "reference": "urn:uuid:f21e946b-2ea0-4345-9466-e85ebf0cbb8f"
          },
          {
            "reference": "urn:uuid:794f39df-3e30-4cb2-b0b8-9e78d65477b6"
          },
          {
            "reference": "urn:uuid:2b3f48a3-836c-4a15-b762-8a9d4a8558c3"
          },
          {
            "reference": "urn:uuid:7e44a255-7520-412e-a30f-c15bb16caead"
          },
          {
            "reference": "urn:uuid:b2fecaf1-42b1-4bad-8a3d-b894eb8dfa57"
          },
          {
            "reference": "urn:uuid:52666fff-2968-4995-b82e-ba1b40b0db27"
          },
          {
            "reference": "urn:uuid:fd63dc80-c139-46bd-94d0-831495d46bd3"
          },
          {
            "reference": "urn:uuid:97e04e87-7531-481c-98f9-26ed032297cd"
          },
          {
            "reference": "urn:uuid:9a0d9104-ab82-40c2-8820-431f9c2eb091"
          },
          {
            "reference": "urn:uuid:9207ec9f-b104-43fa-aa1a-0d56823625a7"
          },
          {
            "reference": "urn:uuid:e9993f75-6d0a-47f9-8ab5-780247a31b56"
          },
          {
            "reference": "urn:uuid:8fcdee97-d3ba-4af9-a082-785525c1db30"
          },
          {
            "reference": "urn:uuid:b6330698-bee9-4caf-a5db-7345513a38b1"
          },
          {
            "reference": "urn:uuid:17076936-c3f2-42e1-9885-610f92e6bf74"
          },
          {
            "reference": "urn:uuid:28c8ee66-cd90-4d89-9b39-d606e054346f"
          },
          {
            "reference": "urn:uuid:1b3ad632-be62-4052-a1b1-63ec4aac433e"
          },
          {
            "reference": "urn:uuid:00de3399-43c1-4a57-b524-9516c7e7172d"
          },
          {
            "reference": "urn:uuid:087d14a7-fcea-4484-ac1e-97a1b203416f"
          },
          {
            "reference": "urn:uuid:c1812357-31eb-434c-bc48-08811c0388ea"
          },
          {
            "reference": "urn:uuid:81f2831c-af08-43f4-af79-6786e17d50d0"
          },
          {
            "reference": "urn:uuid:3af0c63d-8cc8-42bd-980b-fed120669934"
          }
        ],
        "status": "registered",
        "code": {
          "coding": [
            {
              "code": "11502-2",
              "system": "http://loinc.org",
              "display": "Laboratory report"
            }
          ]
        },
        "subject": {
          "reference": "urn:uuid:fb7b601a-97ac-4616-8adb-6a47b522bc71",
          "display": "Meaghan Neary"
        }
      }
    },
    {
      "fullUrl": "urn:uuid:fb7b601a-97ac-4616-8adb-6a47b522bc71",
      "resource": {
        "resourceType": "Patient",
        "id": "fb7b601a-97ac-4616-8adb-6a47b522bc71",
        "meta": {
          "security": [
            {
              "system": "http://terminology.hl7.org/CodeSystem/v3-ActReason",
              "code": "HTEST"
            },
            {
              "system": "http://terminology.hl7.org/CodeSystem/v3-ActReason",
              "code": "TRAIN"
            }
          ],
          "tag": [
            {
              "system": "https://synderai.net/fhir/CodeSystem/tags",
              "code": "synthetic",
              "display": "SYNDERAI Synthetic data"
            }
          ],
          "profile": [
            "http://hl7.eu/fhir/base/StructureDefinition/patient-eu-core"
          ]
        },
        "identifier": [
          {
            "type": {
              "coding": [
                {
                  "code": "PT",
                  "system": "http://terminology.hl7.org/CodeSystem/v2-0203"
                }
              ]
            },
            "system": "http://ec.europa.eu/identifier/eci",
            "value": "1586-567257-8"
          },
          {
            "type": {
              "coding": [
                {
                  "code": "MR",
                  "system": "http://terminology.hl7.org/CodeSystem/v2-0203"
                }
              ]
            },
            "system": "http://local.setting.eu/identifier",
            "value": "443e6379-f231-b364-3ccb-644740a1aa2a"
          }
        ],
        "name": [
          {
            "family": "Neary"
          },
          {
            "given": [
              "Meaghan"
            ]
          },
          {
            "text": "Meaghan Neary"
          }
        ],
        "address": [
          {
            "line": [
              "64 Linskey Street"
            ],
            "use": "home",
            "type": "physical",
            "postalCode": "D02",
            "city": "Dublin",
            "country": "Ireland"
          }
        ],
        "telecom": [
          {
            "system": "phone",
            "value": "001-967-573-0911x465"
          }
        ],
        "extension": [
          {
            "url": "http://hl7.org/fhir/StructureDefinition/patient-nationality",
            "valueCodeableConcept": {
              "coding": [
                {
                  "code": "IE",
                  "system": "http://hl7.org/fhir/ValueSet/country"
                }
              ]
            }
          }
        ],
        "text": {
          "status": "generated",
          "div": "<div xmlns=\"http://www.w3.org/1999/xhtml\"><table class=\"hl7__ips\"><tr><td>Meaghan Neary</td><td>female</td><td>19-Dec-1960</td></tr></table></div>"
        },
        "gender": "female",
        "birthDate": "1960-12-19"
      }
    },
    {
      "fullUrl": "urn:uuid:03be0c54-940d-4237-9d6d-aabe098bb0b7",
      "resource": {
        "resourceType": "ServiceRequest",
        "id": "03be0c54-940d-4237-9d6d-aabe098bb0b7",
        "meta": {
          "profile": [
            "http://hl7.eu/fhir/laboratory/StructureDefinition/ServiceRequest-eu-lab"
          ]
        },
        "identifier": [
          {
            "system": "http://example.org",
            "value": "166338ad-d2c2-4029-996b-b42e59c016b4"
          }
        ],
        "specimen": [
          {
            "reference": "urn:uuid:9922f5b0-e016-42be-b576-d7f2143267ff"
          },
          {
            "reference": "urn:uuid:e5accc79-5e04-4bb2-9c1c-a9f0cad892d1"
          },
          {
            "reference": "urn:uuid:240c14c0-2cd2-4d66-9d78-ad1ac6fe99eb"
          }
        ],
        "reasonCode": [
          {
            "coding": [
              {
                "code": "55822004",
                "system": "http://snomed.info/sct",
                "display": "Hyperlipidemia"
              }
            ]
          },
          {
            "coding": [
              {
                "code": "433144002",
                "system": "http://snomed.info/sct",
                "display": "Chronic kidney disease stage 3"
              }
            ]
          },
          {
            "coding": [
              {
                "code": "157141000119108",
                "system": "http://snomed.info/sct",
                "display": "Proteinuria due to type 2 diabetes mellitus"
              }
            ]
          },
          {
            "coding": [
              {
                "code": "431856006",
                "system": "http://snomed.info/sct",
                "display": "Chronic kidney disease stage 2"
              }
            ]
          },
          {
            "coding": [
              {
                "code": "90781000119102",
                "system": "http://snomed.info/sct",
                "display": "Microalbuminuria due to type 2 diabetes mellitus"
              }
            ]
          },
          {
            "coding": [
              {
                "code": "127013003",
                "system": "http://snomed.info/sct",
                "display": "Disorder of kidney due to diabetes mellitus"
              }
            ]
          },
          {
            "coding": [
              {
                "code": "431855005",
                "system": "http://snomed.info/sct",
                "display": "Chronic kidney disease stage 1"
              }
            ]
          },
          {
            "coding": [
              {
                "code": "237602007",
                "system": "http://snomed.info/sct",
                "display": "Metabolic syndrome X"
              }
            ]
          },
          {
            "coding": [
              {
                "code": "271737000",
                "system": "http://snomed.info/sct",
                "display": "Anemia"
              }
            ]
          },
          {
            "coding": [
              {
                "code": "15777000",
                "system": "http://snomed.info/sct",
                "display": "Prediabetes"
              }
            ]
          },
          {
            "coding": [
              {
                "code": "59621000",
                "system": "http://snomed.info/sct",
                "display": "Essential hypertension"
              }
            ]
          }
        ],
        "status": "active",
        "intent": "order",
        "code": {
          "coding": [
            {
              "code": "108252007",
              "system": "http://snomed.info/sct",
              "display": "Laboratory procedure"
            }
          ]
        },
        "subject": {
          "reference": "urn:uuid:fb7b601a-97ac-4616-8adb-6a47b522bc71",
          "display": "Meaghan Neary"
        },
        "requester": {
          "reference": "urn:uuid:ed5e1905-828d-4527-a79f-1899c7f52faa"
        }
      }
    },
    {
      "fullUrl": "urn:uuid:ed5e1905-828d-4527-a79f-1899c7f52faa",
      "resource": {
        "resourceType": "PractitionerRole",
        "id": "ed5e1905-828d-4527-a79f-1899c7f52faa",
        "meta": {
          "profile": [
            "http://hl7.eu/fhir/base/StructureDefinition/practitionerRole-eu"
          ]
        },
        "text": {
          "status": "generated",
          "div": "<div xmlns=\"http://www.w3.org/1999/xhtml\">Provider Role Id: ed5e1905-828d-4527-a79f-1899c7f52faa</div>"
        },
        "organization": {
          "reference": "urn:uuid:2d004199-8350-4e5a-8111-c37e420fb526"
        }
      }
    },
    {
      "fullUrl": "urn:uuid:2d004199-8350-4e5a-8111-c37e420fb526",
      "resource": {
        "resourceType": "Organization",
        "id": "2d004199-8350-4e5a-8111-c37e420fb526",
        "meta": {
          "profile": [
            "http://hl7.eu/fhir/base/StructureDefinition/organization-eu"
          ]
        },
        "identifier": [
          {
            "assigner": {
              "display": "HL7 Europe"
            },
            "system": "urn:oid:2.16.840.1.113883.2.51.999",
            "value": "c5a27367-3eea-48ac-a191-e54678e1df1e"
          }
        ],
        "address": [
          {
            "line": [
              "Parnell Square West nan"
            ],
            "city": "Dublin",
            "postalCode": "D01",
            "country": "Ireland"
          }
        ],
        "text": {
          "status": "generated",
          "div": "<div xmlns=\"http://www.w3.org/1999/xhtml\">Provider Organization: Rotunda Hospital</div>"
        },
        "name": "Rotunda Hospital"
      }
    },
    {
      "fullUrl": "urn:uuid:9922f5b0-e016-42be-b576-d7f2143267ff",
      "resource": {
        "resourceType": "Specimen",
        "id": "9922f5b0-e016-42be-b576-d7f2143267ff",
        "meta": {
          "profile": [
            "http://hl7.eu/fhir/laboratory/StructureDefinition/Specimen-eu-lab"
          ]
        },
        "collection": {
          "collectedDateTime": "2015-11-16"
        },
        "text": {
          "status": "generated",
          "div": "<div xmlns=\"http://www.w3.org/1999/xhtml\"><table class=\"hl7__eu__lab__report\"><tr><th>Specimen</th><th>Collection Date</th></tr><tr><td>Acellular blood (serum or plasma) specimen</td><td><span class=\"nb\">16-Nov-2015</span></td></tr></table></div>"
        },
        "type": {
          "coding": [
            {
              "code": "122592007",
              "system": "http://snomed.info/sct",
              "display": "Acellular blood (serum or plasma) specimen"
            }
          ]
        }
      }
    },
    {
      "fullUrl": "urn:uuid:e5accc79-5e04-4bb2-9c1c-a9f0cad892d1",
      "resource": {
        "resourceType": "Specimen",
        "id": "e5accc79-5e04-4bb2-9c1c-a9f0cad892d1",
        "meta": {
          "profile": [
            "http://hl7.eu/fhir/laboratory/StructureDefinition/Specimen-eu-lab"
          ]
        },
        "collection": {
          "collectedDateTime": "2015-11-16"
        },
        "text": {
          "status": "generated",
          "div": "<div xmlns=\"http://www.w3.org/1999/xhtml\"><table class=\"hl7__eu__lab__report\"><tr><th>Specimen</th><th>Collection Date</th></tr><tr><td>Urine specimen</td><td><span class=\"nb\">16-Nov-2015</span></td></tr></table></div>"
        },
        "type": {
          "coding": [
            {
              "code": "122575003",
              "system": "http://snomed.info/sct",
              "display": "Urine specimen"
            }
          ]
        }
      }
    },
    {
      "fullUrl": "urn:uuid:240c14c0-2cd2-4d66-9d78-ad1ac6fe99eb",
      "resource": {
        "resourceType": "Specimen",
        "id": "240c14c0-2cd2-4d66-9d78-ad1ac6fe99eb",
        "meta": {
          "profile": [
            "http://hl7.eu/fhir/laboratory/StructureDefinition/Specimen-eu-lab"
          ]
        },
        "collection": {
          "collectedDateTime": "2015-11-16"
        },
        "text": {
          "status": "generated",
          "div": "<div xmlns=\"http://www.w3.org/1999/xhtml\"><table class=\"hl7__eu__lab__report\"><tr><th>Specimen</th><th>Collection Date</th></tr><tr><td>Whole blood specimen (specimen)</td><td><span class=\"nb\">16-Nov-2015</span></td></tr></table></div>"
        },
        "type": {
          "coding": [
            {
              "code": "258580003",
              "system": "http://snomed.info/sct",
              "display": "Whole blood specimen (specimen)"
            }
          ]
        }
      }
    },
    {
      "fullUrl": "urn:uuid:09903081-fd96-481c-8b46-629a080828c4",
      "resource": {
        "resourceType": "Observation",
        "id": "09903081-fd96-481c-8b46-629a080828c4",
        "meta": {
          "profile": [
            "http://hl7.eu/fhir/laboratory/StructureDefinition/Observation-resultslab-eu-lab"
          ]
        },
        "performer": [
          {
            "display": "The Central European Lab"
          }
        ],
        "category": [
          {
            "coding": [
              {
                "system": "http://terminology.hl7.org/CodeSystem/observation-category",
                "code": "laboratory"
              }
            ]
          }
        ],
        "code": {
          "coding": [
            {
              "code": "2345-7",
              "system": "http://loinc.org",
              "display": "Glucose [Mass/volume] in Serum or Plasma"
            }
          ],
          "text": "Glucose [Mass/volume] in Serum or Plasma"
        },
        "valueQuantity": {
          "system": "http://unitsofmeasure.org",
          "value": 90.6,
          "unit": "mg/dL",
          "code": "mg/dL"
        },
        "referenceRange": [
          {
            "low": {
              "value": 70,
              "code": "mg/dL",
              "system": "http://unitsofmeasure.org"
            }
          },
          {
            "high": {
              "value": 99,
              "code": "mg/dL",
              "system": "http://unitsofmeasure.org"
            }
          }
        ],
        "text": {
          "status": "generated",
          "div": "<div xmlns=\"http://www.w3.org/1999/xhtml\"><table class=\"hl7__eu__lab__report\"><tr><th>Test</th><th>16-Nov-2015</th><th>Reference&#xA0;Range</th><th>Unit</th></tr><tr><td>Glucose [Mass/volume] in Serum or Plasma</td><td>90.6</td><td>70 - 99</td><td></td><td>mg/dL</td></tr></table></div>"
        },
        "status": "final",
        "subject": {
          "reference": "urn:uuid:fb7b601a-97ac-4616-8adb-6a47b522bc71",
          "display": "Meaghan Neary"
        },
        "effectiveDateTime": "2015-11-16T22:11:04Z",
        "specimen": {
          "reference": "urn:uuid:9922f5b0-e016-42be-b576-d7f2143267ff"
        }
      }
    },
    {
      "fullUrl": "urn:uuid:1104ec0b-42f6-4990-bfc3-2b36abab5bfd",
      "resource": {
        "resourceType": "Observation",
        "id": "1104ec0b-42f6-4990-bfc3-2b36abab5bfd",
        "meta": {
          "profile": [
            "http://hl7.eu/fhir/laboratory/StructureDefinition/Observation-resultslab-eu-lab"
          ]
        },
        "performer": [
          {
            "display": "The Central European Lab"
          }
        ],
        "category": [
          {
            "coding": [
              {
                "system": "http://terminology.hl7.org/CodeSystem/observation-category",
                "code": "laboratory"
              }
            ]
          }
        ],
        "code": {
          "coding": [
            {
              "code": "3094-0",
              "system": "http://loinc.org",
              "display": "Urea nitrogen [Mass/volume] in Serum or Plasma"
            }
          ],
          "text": "Urea nitrogen [Mass/volume] in Serum or Plasma"
        },
        "valueQuantity": {
          "system": "http://unitsofmeasure.org",
          "value": 13.7,
          "unit": "mg/dL",
          "code": "mg/dL"
        },
        "referenceRange": [
          {
            "low": {
              "value": 7,
              "code": "mg/dL",
              "system": "http://unitsofmeasure.org"
            }
          },
          {
            "high": {
              "value": 50,
              "code": "mg/dL",
              "system": "http://unitsofmeasure.org"
            }
          }
        ],
        "text": {
          "status": "generated",
          "div": "<div xmlns=\"http://www.w3.org/1999/xhtml\"><table class=\"hl7__eu__lab__report\"><tr><th>Test</th><th>16-Nov-2015</th><th>Reference&#xA0;Range</th><th>Unit</th></tr><tr><td>Urea nitrogen [Mass/volume] in Serum or Plasma</td><td>13.7</td><td>7 - 50</td><td></td><td>mg/dL</td></tr></table></div>"
        },
        "status": "final",
        "subject": {
          "reference": "urn:uuid:fb7b601a-97ac-4616-8adb-6a47b522bc71",
          "display": "Meaghan Neary"
        },
        "effectiveDateTime": "2015-11-16T22:11:04Z",
        "specimen": {
          "reference": "urn:uuid:9922f5b0-e016-42be-b576-d7f2143267ff"
        }
      }
    },
    {
      "fullUrl": "urn:uuid:d5adcbcb-274a-4a14-87d3-191dbb098f22",
      "resource": {
        "resourceType": "Observation",
        "id": "d5adcbcb-274a-4a14-87d3-191dbb098f22",
        "meta": {
          "profile": [
            "http://hl7.eu/fhir/laboratory/StructureDefinition/Observation-resultslab-eu-lab"
          ]
        },
        "performer": [
          {
            "display": "The Central European Lab"
          }
        ],
        "category": [
          {
            "coding": [
              {
                "system": "http://terminology.hl7.org/CodeSystem/observation-category",
                "code": "laboratory"
              }
            ]
          }
        ],
        "code": {
          "coding": [
            {
              "code": "2160-0",
              "system": "http://loinc.org",
              "display": "Creatinine [Mass/volume] in Serum or Plasma"
            }
          ],
          "text": "Creatinine [Mass/volume] in Serum or Plasma"
        },
        "valueQuantity": {
          "system": "http://unitsofmeasure.org",
          "value": 2,
          "unit": "mg/dL",
          "code": "mg/dL"
        },
        "referenceRange": [
          {
            "low": {
              "value": 0.6,
              "code": "mg/dL",
              "system": "http://unitsofmeasure.org"
            }
          },
          {
            "high": {
              "value": 1.1,
              "code": "mg/dL",
              "system": "http://unitsofmeasure.org"
            }
          }
        ],
        "interpretation": [
          {
            "coding": [
              {
                "code": "H",
                "system": "http://terminology.hl7.org/CodeSystem/v3-ObservationInterpretation",
                "display": "High"
              }
            ]
          }
        ],
        "text": {
          "status": "generated",
          "div": "<div xmlns=\"http://www.w3.org/1999/xhtml\"><table class=\"hl7__eu__lab__report\"><tr><th>Test</th><th>16-Nov-2015</th><th>Reference&#xA0;Range</th><th>Unit</th></tr><tr><td>Creatinine [Mass/volume] in Serum or Plasma</td><td>2.0</td><td>0.6 - 1.1</td><td>H</td><td>mg/dL</td></tr></table></div>"
        },
        "status": "final",
        "subject": {
          "reference": "urn:uuid:fb7b601a-97ac-4616-8adb-6a47b522bc71",
          "display": "Meaghan Neary"
        },
        "effectiveDateTime": "2015-11-16T22:11:04Z",
        "specimen": {
          "reference": "urn:uuid:9922f5b0-e016-42be-b576-d7f2143267ff"
        }
      }
    },
    {
      "fullUrl": "urn:uuid:23295598-6c52-4e0e-9807-3b403634dc0c",
      "resource": {
        "resourceType": "Observation",
        "id": "23295598-6c52-4e0e-9807-3b403634dc0c",
        "meta": {
          "profile": [
            "http://hl7.eu/fhir/laboratory/StructureDefinition/Observation-resultslab-eu-lab"
          ]
        },
        "performer": [
          {
            "display": "The Central European Lab"
          }
        ],
        "category": [
          {
            "coding": [
              {
                "system": "http://terminology.hl7.org/CodeSystem/observation-category",
                "code": "laboratory"
              }
            ]
          }
        ],
        "code": {
          "coding": [
            {
              "code": "17861-6",
              "system": "http://loinc.org",
              "display": "Calcium [Mass/volume] in Serum or Plasma"
            }
          ],
          "text": "Calcium [Mass/volume] in Serum or Plasma"
        },
        "valueQuantity": {
          "system": "http://unitsofmeasure.org",
          "value": 9.3,
          "unit": "mg/dL",
          "code": "mg/dL"
        },
        "referenceRange": [
          {
            "low": {
              "value": 8.6,
              "code": "mg/dL",
              "system": "http://unitsofmeasure.org"
            }
          },
          {
            "high": {
              "value": 10.4,
              "code": "mg/dL",
              "system": "http://unitsofmeasure.org"
            }
          }
        ],
        "text": {
          "status": "generated",
          "div": "<div xmlns=\"http://www.w3.org/1999/xhtml\"><table class=\"hl7__eu__lab__report\"><tr><th>Test</th><th>16-Nov-2015</th><th>Reference&#xA0;Range</th><th>Unit</th></tr><tr><td>Calcium [Mass/volume] in Serum or Plasma</td><td>9.3</td><td>8.6 - 10.4</td><td></td><td>mg/dL</td></tr></table></div>"
        },
        "status": "final",
        "subject": {
          "reference": "urn:uuid:fb7b601a-97ac-4616-8adb-6a47b522bc71",
          "display": "Meaghan Neary"
        },
        "effectiveDateTime": "2015-11-16T22:11:04Z",
        "specimen": {
          "reference": "urn:uuid:9922f5b0-e016-42be-b576-d7f2143267ff"
        }
      }
    },
    {
      "fullUrl": "urn:uuid:d49b417c-731e-4429-8505-aeb4c8acf286",
      "resource": {
        "resourceType": "Observation",
        "id": "d49b417c-731e-4429-8505-aeb4c8acf286",
        "meta": {
          "profile": [
            "http://hl7.eu/fhir/laboratory/StructureDefinition/Observation-resultslab-eu-lab"
          ]
        },
        "performer": [
          {
            "display": "The Central European Lab"
          }
        ],
        "category": [
          {
            "coding": [
              {
                "system": "http://terminology.hl7.org/CodeSystem/observation-category",
                "code": "laboratory"
              }
            ]
          }
        ],
        "code": {
          "coding": [
            {
              "code": "2951-2",
              "system": "http://loinc.org",
              "display": "Sodium [Moles/volume] in Serum or Plasma"
            }
          ],
          "text": "Sodium [Moles/volume] in Serum or Plasma"
        },
        "valueQuantity": {
          "system": "http://unitsofmeasure.org",
          "value": 136.7,
          "unit": "mmol/L",
          "code": "mmol/L"
        },
        "referenceRange": [
          {
            "low": {
              "value": 135,
              "code": "mmol/L",
              "system": "http://unitsofmeasure.org"
            }
          },
          {
            "high": {
              "value": 145,
              "code": "mmol/L",
              "system": "http://unitsofmeasure.org"
            }
          }
        ],
        "text": {
          "status": "generated",
          "div": "<div xmlns=\"http://www.w3.org/1999/xhtml\"><table class=\"hl7__eu__lab__report\"><tr><th>Test</th><th>16-Nov-2015</th><th>Reference&#xA0;Range</th><th>Unit</th></tr><tr><td>Sodium [Moles/volume] in Serum or Plasma</td><td>136.7</td><td>135 - 145</td><td></td><td>mmol/L</td></tr></table></div>"
        },
        "status": "final",
        "subject": {
          "reference": "urn:uuid:fb7b601a-97ac-4616-8adb-6a47b522bc71",
          "display": "Meaghan Neary"
        },
        "effectiveDateTime": "2015-11-16T22:11:04Z",
        "specimen": {
          "reference": "urn:uuid:9922f5b0-e016-42be-b576-d7f2143267ff"
        }
      }
    },
    {
      "fullUrl": "urn:uuid:f21e946b-2ea0-4345-9466-e85ebf0cbb8f",
      "resource": {
        "resourceType": "Observation",
        "id": "f21e946b-2ea0-4345-9466-e85ebf0cbb8f",
        "meta": {
          "profile": [
            "http://hl7.eu/fhir/laboratory/StructureDefinition/Observation-resultslab-eu-lab"
          ]
        },
        "performer": [
          {
            "display": "The Central European Lab"
          }
        ],
        "category": [
          {
            "coding": [
              {
                "system": "http://terminology.hl7.org/CodeSystem/observation-category",
                "code": "laboratory"
              }
            ]
          }
        ],
        "code": {
          "coding": [
            {
              "code": "2823-3",
              "system": "http://loinc.org",
              "display": "Potassium [Moles/volume] in Serum or Plasma"
            }
          ],
          "text": "Potassium [Moles/volume] in Serum or Plasma"
        },
        "valueQuantity": {
          "system": "http://unitsofmeasure.org",
          "value": 5.1,
          "unit": "mmol/L",
          "code": "mmol/L"
        },
        "referenceRange": [
          {
            "low": {
              "value": 3.5,
              "code": "mmol/L",
              "system": "http://unitsofmeasure.org"
            }
          },
          {
            "high": {
              "value": 5.1,
              "code": "mmol/L",
              "system": "http://unitsofmeasure.org"
            }
          }
        ],
        "text": {
          "status": "generated",
          "div": "<div xmlns=\"http://www.w3.org/1999/xhtml\"><table class=\"hl7__eu__lab__report\"><tr><th>Test</th><th>16-Nov-2015</th><th>Reference&#xA0;Range</th><th>Unit</th></tr><tr><td>Potassium [Moles/volume] in Serum or Plasma</td><td>5.1</td><td>3.5 - 5.1</td><td></td><td>mmol/L</td></tr></table></div>"
        },
        "status": "final",
        "subject": {
          "reference": "urn:uuid:fb7b601a-97ac-4616-8adb-6a47b522bc71",
          "display": "Meaghan Neary"
        },
        "effectiveDateTime": "2015-11-16T22:11:04Z",
        "specimen": {
          "reference": "urn:uuid:9922f5b0-e016-42be-b576-d7f2143267ff"
        }
      }
    },
    {
      "fullUrl": "urn:uuid:794f39df-3e30-4cb2-b0b8-9e78d65477b6",
      "resource": {
        "resourceType": "Observation",
        "id": "794f39df-3e30-4cb2-b0b8-9e78d65477b6",
        "meta": {
          "profile": [
            "http://hl7.eu/fhir/laboratory/StructureDefinition/Observation-resultslab-eu-lab"
          ]
        },
        "performer": [
          {
            "display": "The Central European Lab"
          }
        ],
        "category": [
          {
            "coding": [
              {
                "system": "http://terminology.hl7.org/CodeSystem/observation-category",
                "code": "laboratory"
              }
            ]
          }
        ],
        "code": {
          "coding": [
            {
              "code": "2075-0",
              "system": "http://loinc.org",
              "display": "Chloride [Moles/volume] in Serum or Plasma"
            }
          ],
          "text": "Chloride [Moles/volume] in Serum or Plasma"
        },
        "valueQuantity": {
          "system": "http://unitsofmeasure.org",
          "value": 107.9,
          "unit": "mmol/L",
          "code": "mmol/L"
        },
        "referenceRange": [
          {
            "low": {
              "value": 98,
              "code": "mmol/L",
              "system": "http://unitsofmeasure.org"
            }
          },
          {
            "high": {
              "value": 108,
              "code": "mmol/L",
              "system": "http://unitsofmeasure.org"
            }
          }
        ],
        "text": {
          "status": "generated",
          "div": "<div xmlns=\"http://www.w3.org/1999/xhtml\"><table class=\"hl7__eu__lab__report\"><tr><th>Test</th><th>16-Nov-2015</th><th>Reference&#xA0;Range</th><th>Unit</th></tr><tr><td>Chloride [Moles/volume] in Serum or Plasma</td><td>107.9</td><td>98 - 108</td><td></td><td>mmol/L</td></tr></table></div>"
        },
        "status": "final",
        "subject": {
          "reference": "urn:uuid:fb7b601a-97ac-4616-8adb-6a47b522bc71",
          "display": "Meaghan Neary"
        },
        "effectiveDateTime": "2015-11-16T22:11:04Z",
        "specimen": {
          "reference": "urn:uuid:9922f5b0-e016-42be-b576-d7f2143267ff"
        }
      }
    },
    {
      "fullUrl": "urn:uuid:2b3f48a3-836c-4a15-b762-8a9d4a8558c3",
      "resource": {
        "resourceType": "Observation",
        "id": "2b3f48a3-836c-4a15-b762-8a9d4a8558c3",
        "meta": {
          "profile": [
            "http://hl7.eu/fhir/laboratory/StructureDefinition/Observation-resultslab-eu-lab"
          ]
        },
        "performer": [
          {
            "display": "The Central European Lab"
          }
        ],
        "category": [
          {
            "coding": [
              {
                "system": "http://terminology.hl7.org/CodeSystem/observation-category",
                "code": "laboratory"
              }
            ]
          }
        ],
        "code": {
          "coding": [
            {
              "code": "2028-9",
              "system": "http://loinc.org",
              "display": "Carbon dioxide, total [Moles/volume] in Serum or Plasma"
            }
          ],
          "text": "Carbon dioxide, total [Moles/volume] in Serum or Plasma"
        },
        "valueQuantity": {
          "system": "http://unitsofmeasure.org",
          "value": 28.8,
          "unit": "mmol/L",
          "code": "mmol/L"
        },
        "referenceRange": [
          {
            "low": {
              "value": 22,
              "code": "mmol/L",
              "system": "http://unitsofmeasure.org"
            }
          },
          {
            "high": {
              "value": 32,
              "code": "mmol/L",
              "system": "http://unitsofmeasure.org"
            }
          }
        ],
        "text": {
          "status": "generated",
          "div": "<div xmlns=\"http://www.w3.org/1999/xhtml\"><table class=\"hl7__eu__lab__report\"><tr><th>Test</th><th>16-Nov-2015</th><th>Reference&#xA0;Range</th><th>Unit</th></tr><tr><td>Carbon dioxide, total [Moles/volume] in Serum or Plasma</td><td>28.8</td><td>22 - 32</td><td></td><td>mmol/L</td></tr></table></div>"
        },
        "status": "final",
        "subject": {
          "reference": "urn:uuid:fb7b601a-97ac-4616-8adb-6a47b522bc71",
          "display": "Meaghan Neary"
        },
        "effectiveDateTime": "2015-11-16T22:11:04Z",
        "specimen": {
          "reference": "urn:uuid:9922f5b0-e016-42be-b576-d7f2143267ff"
        }
      }
    },
    {
      "fullUrl": "urn:uuid:7e44a255-7520-412e-a30f-c15bb16caead",
      "resource": {
        "resourceType": "Observation",
        "id": "7e44a255-7520-412e-a30f-c15bb16caead",
        "meta": {
          "profile": [
            "http://hl7.eu/fhir/laboratory/StructureDefinition/Observation-resultslab-eu-lab"
          ]
        },
        "performer": [
          {
            "display": "The Central European Lab"
          }
        ],
        "category": [
          {
            "coding": [
              {
                "system": "http://terminology.hl7.org/CodeSystem/observation-category",
                "code": "laboratory"
              }
            ]
          }
        ],
        "code": {
          "coding": [
            {
              "code": "5767-9",
              "system": "http://loinc.org",
              "display": "Appearance of Urine"
            }
          ],
          "text": "Appearance of Urine"
        },
        "text": {
          "status": "generated",
          "div": "<div xmlns=\"http://www.w3.org/1999/xhtml\"><table class=\"hl7__eu__lab__report\"><tr><th>Test</th><th>16-Nov-2015</th><th>Reference&#xA0;Range</th><th>Unit</th></tr><tr><td>Appearance of Urine</td></tr></table></div>"
        },
        "status": "final",
        "subject": {
          "reference": "urn:uuid:fb7b601a-97ac-4616-8adb-6a47b522bc71",
          "display": "Meaghan Neary"
        },
        "effectiveDateTime": "2015-11-16T22:11:04Z",
        "specimen": {
          "reference": "urn:uuid:e5accc79-5e04-4bb2-9c1c-a9f0cad892d1"
        }
      }
    },
    {
      "fullUrl": "urn:uuid:b2fecaf1-42b1-4bad-8a3d-b894eb8dfa57",
      "resource": {
        "resourceType": "Observation",
        "id": "b2fecaf1-42b1-4bad-8a3d-b894eb8dfa57",
        "meta": {
          "profile": [
            "http://hl7.eu/fhir/laboratory/StructureDefinition/Observation-resultslab-eu-lab"
          ]
        },
        "performer": [
          {
            "display": "The Central European Lab"
          }
        ],
        "category": [
          {
            "coding": [
              {
                "system": "http://terminology.hl7.org/CodeSystem/observation-category",
                "code": "laboratory"
              }
            ]
          }
        ],
        "code": {
          "coding": [
            {
              "code": "34533-0",
              "system": "http://loinc.org",
              "display": "Odor of Urine"
            }
          ],
          "text": "Odor of Urine"
        },
        "text": {
          "status": "generated",
          "div": "<div xmlns=\"http://www.w3.org/1999/xhtml\"><table class=\"hl7__eu__lab__report\"><tr><th>Test</th><th>16-Nov-2015</th><th>Reference&#xA0;Range</th><th>Unit</th></tr><tr><td>Odor of Urine</td></tr></table></div>"
        },
        "status": "final",
        "subject": {
          "reference": "urn:uuid:fb7b601a-97ac-4616-8adb-6a47b522bc71",
          "display": "Meaghan Neary"
        },
        "effectiveDateTime": "2015-11-16T22:11:04Z",
        "specimen": {
          "reference": "urn:uuid:e5accc79-5e04-4bb2-9c1c-a9f0cad892d1"
        }
      }
    },
    {
      "fullUrl": "urn:uuid:52666fff-2968-4995-b82e-ba1b40b0db27",
      "resource": {
        "resourceType": "Observation",
        "id": "52666fff-2968-4995-b82e-ba1b40b0db27",
        "meta": {
          "profile": [
            "http://hl7.eu/fhir/laboratory/StructureDefinition/Observation-resultslab-eu-lab"
          ]
        },
        "performer": [
          {
            "display": "The Central European Lab"
          }
        ],
        "category": [
          {
            "coding": [
              {
                "system": "http://terminology.hl7.org/CodeSystem/observation-category",
                "code": "laboratory"
              }
            ]
          }
        ],
        "code": {
          "coding": [
            {
              "code": "32167-9",
              "system": "http://loinc.org",
              "display": "Clarity of Urine"
            }
          ],
          "text": "Clarity of Urine"
        },
        "text": {
          "status": "generated",
          "div": "<div xmlns=\"http://www.w3.org/1999/xhtml\"><table class=\"hl7__eu__lab__report\"><tr><th>Test</th><th>16-Nov-2015</th><th>Reference&#xA0;Range</th><th>Unit</th></tr><tr><td>Clarity of Urine</td></tr></table></div>"
        },
        "status": "final",
        "subject": {
          "reference": "urn:uuid:fb7b601a-97ac-4616-8adb-6a47b522bc71",
          "display": "Meaghan Neary"
        },
        "effectiveDateTime": "2015-11-16T22:11:04Z",
        "specimen": {
          "reference": "urn:uuid:e5accc79-5e04-4bb2-9c1c-a9f0cad892d1"
        }
      }
    },
    {
      "fullUrl": "urn:uuid:fd63dc80-c139-46bd-94d0-831495d46bd3",
      "resource": {
        "resourceType": "Observation",
        "id": "fd63dc80-c139-46bd-94d0-831495d46bd3",
        "meta": {
          "profile": [
            "http://hl7.eu/fhir/laboratory/StructureDefinition/Observation-resultslab-eu-lab"
          ]
        },
        "performer": [
          {
            "display": "The Central European Lab"
          }
        ],
        "category": [
          {
            "coding": [
              {
                "system": "http://terminology.hl7.org/CodeSystem/observation-category",
                "code": "laboratory"
              }
            ]
          }
        ],
        "code": {
          "coding": [
            {
              "code": "5778-6",
              "system": "http://loinc.org",
              "display": "Color of Urine"
            }
          ],
          "text": "Color of Urine"
        },
        "text": {
          "status": "generated",
          "div": "<div xmlns=\"http://www.w3.org/1999/xhtml\"><table class=\"hl7__eu__lab__report\"><tr><th>Test</th><th>16-Nov-2015</th><th>Reference&#xA0;Range</th><th>Unit</th></tr><tr><td>Color of Urine</td></tr></table></div>"
        },
        "status": "final",
        "subject": {
          "reference": "urn:uuid:fb7b601a-97ac-4616-8adb-6a47b522bc71",
          "display": "Meaghan Neary"
        },
        "effectiveDateTime": "2015-11-16T22:11:04Z",
        "specimen": {
          "reference": "urn:uuid:e5accc79-5e04-4bb2-9c1c-a9f0cad892d1"
        }
      }
    },
    {
      "fullUrl": "urn:uuid:97e04e87-7531-481c-98f9-26ed032297cd",
      "resource": {
        "resourceType": "Observation",
        "id": "97e04e87-7531-481c-98f9-26ed032297cd",
        "meta": {
          "profile": [
            "http://hl7.eu/fhir/laboratory/StructureDefinition/Observation-resultslab-eu-lab"
          ]
        },
        "performer": [
          {
            "display": "The Central European Lab"
          }
        ],
        "category": [
          {
            "coding": [
              {
                "system": "http://terminology.hl7.org/CodeSystem/observation-category",
                "code": "laboratory"
              }
            ]
          }
        ],
        "code": {
          "coding": [
            {
              "code": "5792-7",
              "system": "http://loinc.org",
              "display": "Glucose [Mass/volume] in Urine by Test strip"
            }
          ],
          "text": "Glucose [Mass/volume] in Urine by Test strip"
        },
        "valueQuantity": {
          "system": "http://unitsofmeasure.org",
          "value": 2.5,
          "unit": "mg/dL",
          "code": "mg/dL"
        },
        "referenceRange": [
          {
            "low": {
              "value": 0.8,
              "code": "mg/dL",
              "system": "http://unitsofmeasure.org"
            }
          },
          {
            "high": {
              "value": 0,
              "code": "mg/dL",
              "system": "http://unitsofmeasure.org"
            }
          }
        ],
        "interpretation": [
          {
            "coding": [
              {
                "code": "H",
                "system": "http://terminology.hl7.org/CodeSystem/v3-ObservationInterpretation",
                "display": "High"
              }
            ]
          }
        ],
        "text": {
          "status": "generated",
          "div": "<div xmlns=\"http://www.w3.org/1999/xhtml\"><table class=\"hl7__eu__lab__report\"><tr><th>Test</th><th>16-Nov-2015</th><th>Reference&#xA0;Range</th><th>Unit</th></tr><tr><td>Glucose [Mass/volume] in Urine by Test strip</td><td>2.5</td><td>0.8 - 0</td><td>H</td><td>mg/dL</td></tr></table></div>"
        },
        "status": "final",
        "subject": {
          "reference": "urn:uuid:fb7b601a-97ac-4616-8adb-6a47b522bc71",
          "display": "Meaghan Neary"
        },
        "effectiveDateTime": "2015-11-16T22:11:04Z",
        "specimen": {
          "reference": "urn:uuid:e5accc79-5e04-4bb2-9c1c-a9f0cad892d1"
        }
      }
    },
    {
      "fullUrl": "urn:uuid:9a0d9104-ab82-40c2-8820-431f9c2eb091",
      "resource": {
        "resourceType": "Observation",
        "id": "9a0d9104-ab82-40c2-8820-431f9c2eb091",
        "meta": {
          "profile": [
            "http://hl7.eu/fhir/laboratory/StructureDefinition/Observation-resultslab-eu-lab"
          ]
        },
        "performer": [
          {
            "display": "The Central European Lab"
          }
        ],
        "category": [
          {
            "coding": [
              {
                "system": "http://terminology.hl7.org/CodeSystem/observation-category",
                "code": "laboratory"
              }
            ]
          }
        ],
        "code": {
          "coding": [
            {
              "code": "25428-4",
              "system": "http://loinc.org",
              "display": "Glucose [Presence] in Urine by Test strip"
            }
          ],
          "text": "Glucose [Presence] in Urine by Test strip"
        },
        "text": {
          "status": "generated",
          "div": "<div xmlns=\"http://www.w3.org/1999/xhtml\"><table class=\"hl7__eu__lab__report\"><tr><th>Test</th><th>16-Nov-2015</th><th>Reference&#xA0;Range</th><th>Unit</th></tr><tr><td>Glucose [Presence] in Urine by Test strip</td></tr></table></div>"
        },
        "status": "final",
        "subject": {
          "reference": "urn:uuid:fb7b601a-97ac-4616-8adb-6a47b522bc71",
          "display": "Meaghan Neary"
        },
        "effectiveDateTime": "2015-11-16T22:11:04Z",
        "specimen": {
          "reference": "urn:uuid:e5accc79-5e04-4bb2-9c1c-a9f0cad892d1"
        }
      }
    },
    {
      "fullUrl": "urn:uuid:9207ec9f-b104-43fa-aa1a-0d56823625a7",
      "resource": {
        "resourceType": "Observation",
        "id": "9207ec9f-b104-43fa-aa1a-0d56823625a7",
        "meta": {
          "profile": [
            "http://hl7.eu/fhir/laboratory/StructureDefinition/Observation-resultslab-eu-lab"
          ]
        },
        "performer": [
          {
            "display": "The Central European Lab"
          }
        ],
        "category": [
          {
            "coding": [
              {
                "system": "http://terminology.hl7.org/CodeSystem/observation-category",
                "code": "laboratory"
              }
            ]
          }
        ],
        "code": {
          "coding": [
            {
              "code": "20505-4",
              "system": "http://loinc.org",
              "display": "Bilirubin.total [Mass/volume] in Urine by Test strip"
            }
          ],
          "text": "Bilirubin.total [Mass/volume] in Urine by Test strip"
        },
        "valueQuantity": {
          "system": "http://unitsofmeasure.org",
          "value": 0.8,
          "unit": "mg/dL",
          "code": "mg/dL"
        },
        "referenceRange": [
          {
            "low": {
              "value": 0,
              "code": "mg/dL",
              "system": "http://unitsofmeasure.org"
            }
          },
          {
            "high": {
              "value": 1,
              "code": "mg/dL",
              "system": "http://unitsofmeasure.org"
            }
          }
        ],
        "text": {
          "status": "generated",
          "div": "<div xmlns=\"http://www.w3.org/1999/xhtml\"><table class=\"hl7__eu__lab__report\"><tr><th>Test</th><th>16-Nov-2015</th><th>Reference&#xA0;Range</th><th>Unit</th></tr><tr><td>Bilirubin.total [Mass/volume] in Urine by Test strip</td><td>0.8</td><td>0 - 1</td><td></td><td>mg/dL</td></tr></table></div>"
        },
        "status": "final",
        "subject": {
          "reference": "urn:uuid:fb7b601a-97ac-4616-8adb-6a47b522bc71",
          "display": "Meaghan Neary"
        },
        "effectiveDateTime": "2015-11-16T22:11:04Z",
        "specimen": {
          "reference": "urn:uuid:e5accc79-5e04-4bb2-9c1c-a9f0cad892d1"
        }
      }
    },
    {
      "fullUrl": "urn:uuid:e9993f75-6d0a-47f9-8ab5-780247a31b56",
      "resource": {
        "resourceType": "Observation",
        "id": "e9993f75-6d0a-47f9-8ab5-780247a31b56",
        "meta": {
          "profile": [
            "http://hl7.eu/fhir/laboratory/StructureDefinition/Observation-resultslab-eu-lab"
          ]
        },
        "performer": [
          {
            "display": "The Central European Lab"
          }
        ],
        "category": [
          {
            "coding": [
              {
                "system": "http://terminology.hl7.org/CodeSystem/observation-category",
                "code": "laboratory"
              }
            ]
          }
        ],
        "code": {
          "coding": [
            {
              "code": "5770-3",
              "system": "http://loinc.org",
              "display": "Bilirubin.total [Presence] in Urine by Test strip"
            }
          ],
          "text": "Bilirubin.total [Presence] in Urine by Test strip"
        },
        "text": {
          "status": "generated",
          "div": "<div xmlns=\"http://www.w3.org/1999/xhtml\"><table class=\"hl7__eu__lab__report\"><tr><th>Test</th><th>16-Nov-2015</th><th>Reference&#xA0;Range</th><th>Unit</th></tr><tr><td>Bilirubin.total [Presence] in Urine by Test strip</td></tr></table></div>"
        },
        "status": "final",
        "subject": {
          "reference": "urn:uuid:fb7b601a-97ac-4616-8adb-6a47b522bc71",
          "display": "Meaghan Neary"
        },
        "effectiveDateTime": "2015-11-16T22:11:04Z",
        "specimen": {
          "reference": "urn:uuid:e5accc79-5e04-4bb2-9c1c-a9f0cad892d1"
        }
      }
    },
    {
      "fullUrl": "urn:uuid:8fcdee97-d3ba-4af9-a082-785525c1db30",
      "resource": {
        "resourceType": "Observation",
        "id": "8fcdee97-d3ba-4af9-a082-785525c1db30",
        "meta": {
          "profile": [
            "http://hl7.eu/fhir/laboratory/StructureDefinition/Observation-resultslab-eu-lab"
          ]
        },
        "performer": [
          {
            "display": "The Central European Lab"
          }
        ],
        "category": [
          {
            "coding": [
              {
                "system": "http://terminology.hl7.org/CodeSystem/observation-category",
                "code": "laboratory"
              }
            ]
          }
        ],
        "code": {
          "coding": [
            {
              "code": "5797-6",
              "system": "http://loinc.org",
              "display": "Ketones [Mass/volume] in Urine by Test strip"
            }
          ],
          "text": "Ketones [Mass/volume] in Urine by Test strip"
        },
        "valueQuantity": {
          "system": "http://unitsofmeasure.org",
          "value": 10.9,
          "unit": "mg/dL",
          "code": "mg/dL"
        },
        "referenceRange": [
          {
            "low": {
              "value": 0,
              "code": "mg/dL",
              "system": "http://unitsofmeasure.org"
            }
          },
          {
            "high": {
              "value": 4,
              "code": "mg/dL",
              "system": "http://unitsofmeasure.org"
            }
          }
        ],
        "interpretation": [
          {
            "coding": [
              {
                "code": "H",
                "system": "http://terminology.hl7.org/CodeSystem/v3-ObservationInterpretation",
                "display": "High"
              }
            ]
          }
        ],
        "text": {
          "status": "generated",
          "div": "<div xmlns=\"http://www.w3.org/1999/xhtml\"><table class=\"hl7__eu__lab__report\"><tr><th>Test</th><th>16-Nov-2015</th><th>Reference&#xA0;Range</th><th>Unit</th></tr><tr><td>Ketones [Mass/volume] in Urine by Test strip</td><td>10.9</td><td>0 - 4</td><td>H</td><td>mg/dL</td></tr></table></div>"
        },
        "status": "final",
        "subject": {
          "reference": "urn:uuid:fb7b601a-97ac-4616-8adb-6a47b522bc71",
          "display": "Meaghan Neary"
        },
        "effectiveDateTime": "2015-11-16T22:11:04Z",
        "specimen": {
          "reference": "urn:uuid:e5accc79-5e04-4bb2-9c1c-a9f0cad892d1"
        }
      }
    },
    {
      "fullUrl": "urn:uuid:b6330698-bee9-4caf-a5db-7345513a38b1",
      "resource": {
        "resourceType": "Observation",
        "id": "b6330698-bee9-4caf-a5db-7345513a38b1",
        "meta": {
          "profile": [
            "http://hl7.eu/fhir/laboratory/StructureDefinition/Observation-resultslab-eu-lab"
          ]
        },
        "performer": [
          {
            "display": "The Central European Lab"
          }
        ],
        "category": [
          {
            "coding": [
              {
                "system": "http://terminology.hl7.org/CodeSystem/observation-category",
                "code": "laboratory"
              }
            ]
          }
        ],
        "code": {
          "coding": [
            {
              "code": "2514-8",
              "system": "http://loinc.org",
              "display": "Ketones [Presence] in Urine by Test strip"
            }
          ],
          "text": "Ketones [Presence] in Urine by Test strip"
        },
        "text": {
          "status": "generated",
          "div": "<div xmlns=\"http://www.w3.org/1999/xhtml\"><table class=\"hl7__eu__lab__report\"><tr><th>Test</th><th>16-Nov-2015</th><th>Reference&#xA0;Range</th><th>Unit</th></tr><tr><td>Ketones [Presence] in Urine by Test strip</td></tr></table></div>"
        },
        "status": "final",
        "subject": {
          "reference": "urn:uuid:fb7b601a-97ac-4616-8adb-6a47b522bc71",
          "display": "Meaghan Neary"
        },
        "effectiveDateTime": "2015-11-16T22:11:04Z",
        "specimen": {
          "reference": "urn:uuid:e5accc79-5e04-4bb2-9c1c-a9f0cad892d1"
        }
      }
    },
    {
      "fullUrl": "urn:uuid:17076936-c3f2-42e1-9885-610f92e6bf74",
      "resource": {
        "resourceType": "Observation",
        "id": "17076936-c3f2-42e1-9885-610f92e6bf74",
        "meta": {
          "profile": [
            "http://hl7.eu/fhir/laboratory/StructureDefinition/Observation-resultslab-eu-lab"
          ]
        },
        "performer": [
          {
            "display": "The Central European Lab"
          }
        ],
        "category": [
          {
            "coding": [
              {
                "system": "http://terminology.hl7.org/CodeSystem/observation-category",
                "code": "laboratory"
              }
            ]
          }
        ],
        "code": {
          "coding": [
            {
              "code": "5811-5",
              "system": "http://loinc.org",
              "display": "Specific gravity of Urine by Test strip"
            }
          ],
          "text": "Specific gravity of Urine by Test strip"
        },
        "valueQuantity": {
          "system": "http://unitsofmeasure.org",
          "value": 1,
          "unit": "{nominal}",
          "code": "{nominal}"
        },
        "referenceRange": [
          {
            "low": {
              "value": 1.005,
              "code": "g/mL",
              "system": "http://unitsofmeasure.org"
            }
          },
          {
            "high": {
              "value": 1.03,
              "code": "g/mL",
              "system": "http://unitsofmeasure.org"
            }
          }
        ],
        "interpretation": [
          {
            "coding": [
              {
                "code": "L",
                "system": "http://terminology.hl7.org/CodeSystem/v3-ObservationInterpretation",
                "display": "Low"
              }
            ]
          }
        ],
        "text": {
          "status": "generated",
          "div": "<div xmlns=\"http://www.w3.org/1999/xhtml\"><table class=\"hl7__eu__lab__report\"><tr><th>Test</th><th>16-Nov-2015</th><th>Reference&#xA0;Range</th><th>Unit</th></tr><tr><td>Specific gravity of Urine by Test strip</td><td>1.0</td><td>1.005 - 1.03</td><td>L</td><td>{nominal}</td></tr></table></div>"
        },
        "status": "final",
        "subject": {
          "reference": "urn:uuid:fb7b601a-97ac-4616-8adb-6a47b522bc71",
          "display": "Meaghan Neary"
        },
        "effectiveDateTime": "2015-11-16T22:11:04Z",
        "specimen": {
          "reference": "urn:uuid:e5accc79-5e04-4bb2-9c1c-a9f0cad892d1"
        }
      }
    },
    {
      "fullUrl": "urn:uuid:28c8ee66-cd90-4d89-9b39-d606e054346f",
      "resource": {
        "resourceType": "Observation",
        "id": "28c8ee66-cd90-4d89-9b39-d606e054346f",
        "meta": {
          "profile": [
            "http://hl7.eu/fhir/laboratory/StructureDefinition/Observation-resultslab-eu-lab"
          ]
        },
        "performer": [
          {
            "display": "The Central European Lab"
          }
        ],
        "category": [
          {
            "coding": [
              {
                "system": "http://terminology.hl7.org/CodeSystem/observation-category",
                "code": "laboratory"
              }
            ]
          }
        ],
        "code": {
          "coding": [
            {
              "code": "5803-2",
              "system": "http://loinc.org",
              "display": "pH of Urine by Test strip"
            }
          ],
          "text": "pH of Urine by Test strip"
        },
        "valueQuantity": {
          "system": "http://unitsofmeasure.org",
          "value": 5.2,
          "unit": "pH",
          "code": "pH"
        },
        "referenceRange": [
          {
            "low": {
              "value": 4.6,
              "code": "pH",
              "system": "http://unitsofmeasure.org"
            }
          },
          {
            "high": {
              "value": 7,
              "code": "pH",
              "system": "http://unitsofmeasure.org"
            }
          }
        ],
        "text": {
          "status": "generated",
          "div": "<div xmlns=\"http://www.w3.org/1999/xhtml\"><table class=\"hl7__eu__lab__report\"><tr><th>Test</th><th>16-Nov-2015</th><th>Reference&#xA0;Range</th><th>Unit</th></tr><tr><td>pH of Urine by Test strip</td><td>5.2</td><td>4.6 - 7</td><td></td><td>pH</td></tr></table></div>"
        },
        "status": "final",
        "subject": {
          "reference": "urn:uuid:fb7b601a-97ac-4616-8adb-6a47b522bc71",
          "display": "Meaghan Neary"
        },
        "effectiveDateTime": "2015-11-16T22:11:04Z",
        "specimen": {
          "reference": "urn:uuid:e5accc79-5e04-4bb2-9c1c-a9f0cad892d1"
        }
      }
    },
    {
      "fullUrl": "urn:uuid:1b3ad632-be62-4052-a1b1-63ec4aac433e",
      "resource": {
        "resourceType": "Observation",
        "id": "1b3ad632-be62-4052-a1b1-63ec4aac433e",
        "meta": {
          "profile": [
            "http://hl7.eu/fhir/laboratory/StructureDefinition/Observation-resultslab-eu-lab"
          ]
        },
        "performer": [
          {
            "display": "The Central European Lab"
          }
        ],
        "category": [
          {
            "coding": [
              {
                "system": "http://terminology.hl7.org/CodeSystem/observation-category",
                "code": "laboratory"
              }
            ]
          }
        ],
        "code": {
          "coding": [
            {
              "code": "5804-0",
              "system": "http://loinc.org",
              "display": "Protein [Mass/volume] in Urine by Test strip"
            }
          ],
          "text": "Protein [Mass/volume] in Urine by Test strip"
        },
        "valueQuantity": {
          "system": "http://unitsofmeasure.org",
          "value": 268.7,
          "unit": "mg/dL",
          "code": "mg/dL"
        },
        "referenceRange": [
          {
            "low": {
              "value": 0,
              "code": "mg/dL",
              "system": "http://unitsofmeasure.org"
            }
          },
          {
            "high": {
              "value": 14,
              "code": "mg/dL",
              "system": "http://unitsofmeasure.org"
            }
          }
        ],
        "interpretation": [
          {
            "coding": [
              {
                "code": "H",
                "system": "http://terminology.hl7.org/CodeSystem/v3-ObservationInterpretation",
                "display": "High"
              }
            ]
          }
        ],
        "text": {
          "status": "generated",
          "div": "<div xmlns=\"http://www.w3.org/1999/xhtml\"><table class=\"hl7__eu__lab__report\"><tr><th>Test</th><th>16-Nov-2015</th><th>Reference&#xA0;Range</th><th>Unit</th></tr><tr><td>Protein [Mass/volume] in Urine by Test strip</td><td>268.7</td><td>0 - 14</td><td>H</td><td>mg/dL</td></tr></table></div>"
        },
        "status": "final",
        "subject": {
          "reference": "urn:uuid:fb7b601a-97ac-4616-8adb-6a47b522bc71",
          "display": "Meaghan Neary"
        },
        "effectiveDateTime": "2015-11-16T22:11:04Z",
        "specimen": {
          "reference": "urn:uuid:e5accc79-5e04-4bb2-9c1c-a9f0cad892d1"
        }
      }
    },
    {
      "fullUrl": "urn:uuid:00de3399-43c1-4a57-b524-9516c7e7172d",
      "resource": {
        "resourceType": "Observation",
        "id": "00de3399-43c1-4a57-b524-9516c7e7172d",
        "meta": {
          "profile": [
            "http://hl7.eu/fhir/laboratory/StructureDefinition/Observation-resultslab-eu-lab"
          ]
        },
        "performer": [
          {
            "display": "The Central European Lab"
          }
        ],
        "category": [
          {
            "coding": [
              {
                "system": "http://terminology.hl7.org/CodeSystem/observation-category",
                "code": "laboratory"
              }
            ]
          }
        ],
        "code": {
          "coding": [
            {
              "code": "20454-5",
              "system": "http://loinc.org",
              "display": "Protein [Presence] in Urine by Test strip"
            }
          ],
          "text": "Protein [Presence] in Urine by Test strip"
        },
        "text": {
          "status": "generated",
          "div": "<div xmlns=\"http://www.w3.org/1999/xhtml\"><table class=\"hl7__eu__lab__report\"><tr><th>Test</th><th>16-Nov-2015</th><th>Reference&#xA0;Range</th><th>Unit</th></tr><tr><td>Protein [Presence] in Urine by Test strip</td></tr></table></div>"
        },
        "status": "final",
        "subject": {
          "reference": "urn:uuid:fb7b601a-97ac-4616-8adb-6a47b522bc71",
          "display": "Meaghan Neary"
        },
        "effectiveDateTime": "2015-11-16T22:11:04Z",
        "specimen": {
          "reference": "urn:uuid:e5accc79-5e04-4bb2-9c1c-a9f0cad892d1"
        }
      }
    },
    {
      "fullUrl": "urn:uuid:087d14a7-fcea-4484-ac1e-97a1b203416f",
      "resource": {
        "resourceType": "Observation",
        "id": "087d14a7-fcea-4484-ac1e-97a1b203416f",
        "meta": {
          "profile": [
            "http://hl7.eu/fhir/laboratory/StructureDefinition/Observation-resultslab-eu-lab"
          ]
        },
        "performer": [
          {
            "display": "The Central European Lab"
          }
        ],
        "category": [
          {
            "coding": [
              {
                "system": "http://terminology.hl7.org/CodeSystem/observation-category",
                "code": "laboratory"
              }
            ]
          }
        ],
        "code": {
          "coding": [
            {
              "code": "5802-4",
              "system": "http://loinc.org",
              "display": "Nitrite [Presence] in Urine by Test strip"
            }
          ],
          "text": "Nitrite [Presence] in Urine by Test strip"
        },
        "text": {
          "status": "generated",
          "div": "<div xmlns=\"http://www.w3.org/1999/xhtml\"><table class=\"hl7__eu__lab__report\"><tr><th>Test</th><th>16-Nov-2015</th><th>Reference&#xA0;Range</th><th>Unit</th></tr><tr><td>Nitrite [Presence] in Urine by Test strip</td></tr></table></div>"
        },
        "status": "final",
        "subject": {
          "reference": "urn:uuid:fb7b601a-97ac-4616-8adb-6a47b522bc71",
          "display": "Meaghan Neary"
        },
        "effectiveDateTime": "2015-11-16T22:11:04Z",
        "specimen": {
          "reference": "urn:uuid:e5accc79-5e04-4bb2-9c1c-a9f0cad892d1"
        }
      }
    },
    {
      "fullUrl": "urn:uuid:c1812357-31eb-434c-bc48-08811c0388ea",
      "resource": {
        "resourceType": "Observation",
        "id": "c1812357-31eb-434c-bc48-08811c0388ea",
        "meta": {
          "profile": [
            "http://hl7.eu/fhir/laboratory/StructureDefinition/Observation-resultslab-eu-lab"
          ]
        },
        "performer": [
          {
            "display": "The Central European Lab"
          }
        ],
        "category": [
          {
            "coding": [
              {
                "system": "http://terminology.hl7.org/CodeSystem/observation-category",
                "code": "laboratory"
              }
            ]
          }
        ],
        "code": {
          "coding": [
            {
              "code": "5794-3",
              "system": "http://loinc.org",
              "display": "Hemoglobin [Presence] in Urine by Test strip"
            }
          ],
          "text": "Hemoglobin [Presence] in Urine by Test strip"
        },
        "text": {
          "status": "generated",
          "div": "<div xmlns=\"http://www.w3.org/1999/xhtml\"><table class=\"hl7__eu__lab__report\"><tr><th>Test</th><th>16-Nov-2015</th><th>Reference&#xA0;Range</th><th>Unit</th></tr><tr><td>Hemoglobin [Presence] in Urine by Test strip</td></tr></table></div>"
        },
        "status": "final",
        "subject": {
          "reference": "urn:uuid:fb7b601a-97ac-4616-8adb-6a47b522bc71",
          "display": "Meaghan Neary"
        },
        "effectiveDateTime": "2015-11-16T22:11:04Z",
        "specimen": {
          "reference": "urn:uuid:e5accc79-5e04-4bb2-9c1c-a9f0cad892d1"
        }
      }
    },
    {
      "fullUrl": "urn:uuid:81f2831c-af08-43f4-af79-6786e17d50d0",
      "resource": {
        "resourceType": "Observation",
        "id": "81f2831c-af08-43f4-af79-6786e17d50d0",
        "meta": {
          "profile": [
            "http://hl7.eu/fhir/laboratory/StructureDefinition/Observation-resultslab-eu-lab"
          ]
        },
        "performer": [
          {
            "display": "The Central European Lab"
          }
        ],
        "category": [
          {
            "coding": [
              {
                "system": "http://terminology.hl7.org/CodeSystem/observation-category",
                "code": "laboratory"
              }
            ]
          }
        ],
        "code": {
          "coding": [
            {
              "code": "5799-2",
              "system": "http://loinc.org",
              "display": "Leukocyte esterase [Presence] in Urine by Test strip"
            }
          ],
          "text": "Leukocyte esterase [Presence] in Urine by Test strip"
        },
        "text": {
          "status": "generated",
          "div": "<div xmlns=\"http://www.w3.org/1999/xhtml\"><table class=\"hl7__eu__lab__report\"><tr><th>Test</th><th>16-Nov-2015</th><th>Reference&#xA0;Range</th><th>Unit</th></tr><tr><td>Leukocyte esterase [Presence] in Urine by Test strip</td></tr></table></div>"
        },
        "status": "final",
        "subject": {
          "reference": "urn:uuid:fb7b601a-97ac-4616-8adb-6a47b522bc71",
          "display": "Meaghan Neary"
        },
        "effectiveDateTime": "2015-11-16T22:11:04Z",
        "specimen": {
          "reference": "urn:uuid:e5accc79-5e04-4bb2-9c1c-a9f0cad892d1"
        }
      }
    },
    {
      "fullUrl": "urn:uuid:3af0c63d-8cc8-42bd-980b-fed120669934",
      "resource": {
        "resourceType": "Observation",
        "id": "3af0c63d-8cc8-42bd-980b-fed120669934",
        "meta": {
          "profile": [
            "http://hl7.eu/fhir/laboratory/StructureDefinition/Observation-resultslab-eu-lab"
          ]
        },
        "performer": [
          {
            "display": "The Central European Lab"
          }
        ],
        "category": [
          {
            "coding": [
              {
                "system": "http://terminology.hl7.org/CodeSystem/observation-category",
                "code": "laboratory"
              }
            ]
          }
        ],
        "code": {
          "coding": [
            {
              "code": "4548-4",
              "system": "http://loinc.org",
              "display": "Hemoglobin A1c/Hemoglobin.total in Blood"
            }
          ],
          "text": "Hemoglobin A1c/Hemoglobin.total in Blood"
        },
        "valueQuantity": {
          "system": "http://unitsofmeasure.org",
          "value": 3.1,
          "unit": "%",
          "code": "%"
        },
        "referenceRange": [
          {
            "low": {
              "value": 4,
              "code": "%",
              "system": "http://unitsofmeasure.org"
            }
          },
          {
            "high": {
              "value": 6.4,
              "code": "%",
              "system": "http://unitsofmeasure.org"
            }
          }
        ],
        "interpretation": [
          {
            "coding": [
              {
                "code": "L",
                "system": "http://terminology.hl7.org/CodeSystem/v3-ObservationInterpretation",
                "display": "Low"
              }
            ]
          }
        ],
        "text": {
          "status": "generated",
          "div": "<div xmlns=\"http://www.w3.org/1999/xhtml\"><table class=\"hl7__eu__lab__report\"><tr><th>Test</th><th>16-Nov-2015</th><th>Reference&#xA0;Range</th><th>Unit</th></tr><tr><td>Hemoglobin A1c/Hemoglobin.total in Blood</td><td>3.1</td><td>4 - 6.4</td><td>L</td><td>%</td></tr></table></div>"
        },
        "status": "final",
        "subject": {
          "reference": "urn:uuid:fb7b601a-97ac-4616-8adb-6a47b522bc71",
          "display": "Meaghan Neary"
        },
        "effectiveDateTime": "2015-11-16T22:11:04Z",
        "specimen": {
          "reference": "urn:uuid:240c14c0-2cd2-4d66-9d78-ad1ac6fe99eb"
        }
      }
    },
    {
      "fullUrl": "urn:uuid:77b74237-377c-449e-9d8d-928fad86a289",
      "resource": {
        "resourceType": "Device",
        "id": "77b74237-377c-449e-9d8d-928fad86a289",
        "deviceName": [
          {
            "name": "SYNDERAI Synthetic Generator",
            "type": "manufacturer-name"
          }
        ],
        "version": [
          {
            "value": "5.0"
          }
        ],
        "text": {
          "status": "generated",
          "div": "<div xmlns=\"http://www.w3.org/1999/xhtml\">SYNDERAI Synthetic Generator v5.0</div>"
        },
        "status": "active\"",
        "distinctIdentifier": "synderai-generator-50",
        "manufacturer": "SYNDERAI Project"
      }
    },
    {
      "fullUrl": "urn:uuid:dbc8298c-6c9a-49ea-b751-31641635fefd",
      "resource": {
        "resourceType": "Provenance",
        "id": "dbc8298c-6c9a-49ea-b751-31641635fefd",
        "target": [
          {
            "reference": "Patient/fb7b601a-97ac-4616-8adb-6a47b522bc71"
          },
          {
            "reference": "Bundle/42541bd1-fe7f-4cfa-8375-034e7937a3e2"
          },
          {
            "reference": "Composition/63d6a450-43ce-4dec-9f58-38e46263af6b"
          },
          {
            "reference": "PractitionerRole/739ed1aa-81c2-4023-8771-f97aeb35f758"
          },
          {
            "reference": "Practitioner/35a0de7a-db0b-4f09-b9c3-b81ad34c46f1"
          },
          {
            "reference": "PractitionerRole/ed5e1905-828d-4527-a79f-1899c7f52faa"
          },
          {
            "reference": "Organization/2d004199-8350-4e5a-8111-c37e420fb526"
          }
        ],
        "activity": {
          "text": "Synthetic Example Data Generation"
        },
        "policy": [
          "https://synderai.net/synderai-synthetic-data-policy"
        ],
        "agent": [
          {
            "type": {
              "text": "author"
            },
            "who": {
              "reference": "Device/77b74237-377c-449e-9d8d-928fad86a289"
            }
          }
        ],
        "reason": [
          {
            "text": "Interoperability Testing and Training (non-clinical use)"
          }
        ],
        "text": {
          "status": "generated",
          "div": "<div xmlns=\"http://www.w3.org/1999/xhtml\">Provenance for SYNDERAI Synthetic Example Data Resource</div>"
        },
        "recorded": "2015-11-16T23:11:04Z"
      }
    },
    {
      "fullUrl": "urn:uuid:739ed1aa-81c2-4023-8771-f97aeb35f758",
      "resource": {
        "resourceType": "PractitionerRole",
        "id": "739ed1aa-81c2-4023-8771-f97aeb35f758",
        "meta": {
          "profile": [
            "http://hl7.eu/fhir/base/StructureDefinition/practitionerRole-eu"
          ]
        },
        "text": {
          "status": "generated",
          "div": "<div xmlns=\"http://www.w3.org/1999/xhtml\">Laboratory Role Id: 739ed1aa-81c2-4023-8771-f97aeb35f758</div>"
        },
        "practitioner": {
          "reference": "urn:uuid:35a0de7a-db0b-4f09-b9c3-b81ad34c46f1"
        }
      }
    },
    {
      "fullUrl": "urn:uuid:35a0de7a-db0b-4f09-b9c3-b81ad34c46f1",
      "resource": {
        "resourceType": "Practitioner",
        "id": "35a0de7a-db0b-4f09-b9c3-b81ad34c46f1",
        "meta": {
          "profile": [
            "http://hl7.eu/fhir/base/StructureDefinition/practitioner-eu"
          ]
        },
        "identifier": [
          {
            "assigner": {
              "display": "HL7 Europe"
            },
            "system": "urn:oid:2.16.840.1.113883.2.51.999",
            "value": "6ecda9f8-0824-4ff0-a9a8-cdc5e7be6c4d"
          }
        ],
        "name": [
          {
            "prefix": [
              "dr"
            ],
            "given": [
              "Ex"
            ],
            "family": "Ample"
          }
        ],
        "address": [
          {
            "line": [
              "Laboratoire Central Europenne",
              "Boulevard du Jardin Botanique 32"
            ],
            "postalCode": "1000",
            "city": "Brussels",
            "country": "Belgium"
          }
        ],
        "text": {
          "status": "generated",
          "div": "<div xmlns=\"http://www.w3.org/1999/xhtml\">Laboratory: Laboratoire Central Europenne, 1000 Brussels, Belgium</div>"
        }
      }
    }
  ],
  "type": "document",
  "timestamp": "2015-11-16T23:11:04Z"
}
