{
  "resourceType": "Bundle",
  "id": "b2e3adb2-1277-49c6-a9d6-f67507c670e9",
  "meta": {
    "profile": [
      "http://hl7.eu/fhir/laboratory/StructureDefinition/Bundle-eu-lab"
    ]
  },
  "identifier": {
    "assigner": {
      "display": "HL7 Europe"
    },
    "system": "urn:oid:2.16.840.1.113883.2.51.999",
    "value": "6798cac6-74e7-4c86-b757-ef4eb679be67"
  },
  "entry": [
    {
      "fullUrl": "urn:uuid:bdd1549c-6ede-4b6e-a138-3d5b11e342cc",
      "resource": {
        "resourceType": "Composition",
        "id": "bdd1549c-6ede-4b6e-a138-3d5b11e342cc",
        "meta": {
          "profile": [
            "http://hl7.eu/fhir/laboratory/StructureDefinition/Composition-eu-lab"
          ]
        },
        "identifier": {
          "assigner": {
            "display": "HL7 Europe"
          },
          "system": "urn:oid:2.16.840.1.113883.2.51.999",
          "value": "0032e4ea-8e92-4dfa-8ca9-8534e02f9164"
        },
        "author": [
          {
            "reference": "urn:uuid:51b06bf2-7c0a-4564-ad12-6b14c97f2577"
          }
        ],
        "category": [
          {
            "coding": [
              {
                "code": "26436-6",
                "system": "http://loinc.org",
                "display": "Laboratory studies (set)"
              }
            ]
          }
        ],
        "type": {
          "coding": [
            {
              "code": "11502-2",
              "system": "http://loinc.org",
              "display": "Laboratory report"
            }
          ],
          "text": "Laboratory Report"
        },
        "section": [
          {
            "code": {
              "coding": [
                {
                  "code": "26436-6",
                  "system": "http://loinc.org",
                  "display": "Laboratory studies (set)"
                }
              ],
              "text": "Laboratory studies"
            },
            "section": [
              {
                "code": {
                  "coding": [
                    {
                      "code": "$18719-5",
                      "system": "http://loinc.org",
                      "display": "Chemistry studies (set)"
                    }
                  ],
                  "text": "Chemistry"
                },
                "entry": [
                  {
                    "reference": "urn:uuid:99c3aada-444d-4c9d-93de-b68216145df3"
                  },
                  {
                    "reference": "urn:uuid:71ca4931-4930-4d2d-9490-d616b22195bc"
                  },
                  {
                    "reference": "urn:uuid:b36243ec-a185-46aa-9a8d-c2007351971e"
                  },
                  {
                    "reference": "urn:uuid:857ddfc9-cfd3-4a9d-9ef4-590c055f3ef0"
                  },
                  {
                    "reference": "urn:uuid:1b58c241-3f9c-415e-9a63-e881e0dc8a29"
                  },
                  {
                    "reference": "urn:uuid:dad7e2bf-f0a0-4940-bf72-c3210fa9fbf3"
                  },
                  {
                    "reference": "urn:uuid:4933426e-60f0-4d47-b0d5-ac38781e1040"
                  },
                  {
                    "reference": "urn:uuid:060b5820-7954-4a0d-a241-8b953e88e7fe"
                  },
                  {
                    "reference": "urn:uuid:dd39b7c3-edf9-4c7d-8e6b-b6418d8cec95"
                  }
                ],
                "text": {
                  "status": "generated",
                  "div": "<div xmlns=\"http://www.w3.org/1999/xhtml\"><h3>Chemistry</h3><table class=\"hl7__eu__lab__report\"><thead><tr><th>Test</th><th>07-MAY-2016</th><th>Reference&#xA0;Range</th><th>Unit</th></tr></thead><tbody><tr><td>Glucose [Mass/volume] in Blood</td><td>96.9</td><td>70 - 140</td><td>mg/dL</td></tr><tr><td>Urea nitrogen [Mass/volume] in Blood</td><td>19.2</td><td>7 - 25</td><td>mg/dL</td></tr><tr><td>Creatinine [Mass/volume] in Blood</td><td><strong>2.6 H</strong></td><td>0.6 - 1.1</td><td>mg/dL</td></tr><tr><td>Calcium [Mass/volume] in Blood</td><td>10.2</td><td>8.6 - 10.4</td><td>mg/dL</td></tr><tr><td>Sodium [Moles/volume] in Blood</td><td>141.0</td><td>135 - 145</td><td>mmol/L</td></tr><tr><td>Potassium [Moles/volume] in Blood</td><td>5.0</td><td>3.5 - 5.1</td><td>mmol/L</td></tr><tr><td>Chloride [Moles/volume] in Blood</td><td>108.6</td><td>98 - 110</td><td>mmol/L</td></tr><tr><td>Carbon dioxide, total [Moles/volume] in Blood</td><td>28.0</td><td>22 - 29</td><td>mmol/L</td></tr><tr><td>Ketones [Presence] in Urine by Test strip</td><td>Urine ketone test = +++</td><td></td><td></td></tr></tbody></table></div>"
                },
                "title": "Chemistry"
              },
              {
                "code": {
                  "coding": [
                    {
                      "code": "$18729-4",
                      "system": "http://loinc.org",
                      "display": "Urinalysis studies (set)"
                    }
                  ],
                  "text": "Urinalysis"
                },
                "entry": [
                  {
                    "reference": "urn:uuid:dd270df9-98cf-4f40-92d3-075a69bb4a73"
                  },
                  {
                    "reference": "urn:uuid:f6adcdad-186c-4b5d-a253-ce7c9be6d226"
                  },
                  {
                    "reference": "urn:uuid:d6362b9b-ce31-4491-8630-98d94a2b8efb"
                  },
                  {
                    "reference": "urn:uuid:b57a991c-cbab-4ee1-98d7-22521cd52465"
                  },
                  {
                    "reference": "urn:uuid:85b9393a-0598-4767-9a1b-84640eef5221"
                  },
                  {
                    "reference": "urn:uuid:1e061be4-13f8-4436-b082-6aa892372403"
                  },
                  {
                    "reference": "urn:uuid:79cd3da8-bf7a-4d7e-85c6-cd2900c461ad"
                  },
                  {
                    "reference": "urn:uuid:5b9cf51d-525b-4b49-85bf-2fba149b7b5a"
                  },
                  {
                    "reference": "urn:uuid:e4664996-47c4-4dbd-a7ad-bbc11523fc83"
                  },
                  {
                    "reference": "urn:uuid:c449f7be-3a25-49c4-9678-85fdd5f32801"
                  },
                  {
                    "reference": "urn:uuid:fa9ba3f3-aacb-4f55-afb8-cedda6e0031b"
                  },
                  {
                    "reference": "urn:uuid:72242957-8e76-4cea-be3d-4f518c04fca9"
                  }
                ],
                "text": {
                  "status": "generated",
                  "div": "<div xmlns=\"http://www.w3.org/1999/xhtml\"><h3>Urinalysis</h3><table class=\"hl7__eu__lab__report\"><thead><tr><th>Test</th><th>07-MAY-2016</th><th>Reference&#xA0;Range</th><th>Unit</th></tr></thead><tbody><tr><td>Glucose [Mass/volume] in Urine by Test strip</td><td><strong>2.4 H</strong></td><td>0 - 0.8</td><td>mg/dL</td></tr><tr><td>Glucose [Presence] in Urine by Test strip</td><td>++</td><td></td><td></td></tr><tr><td>Bilirubin.total [Mass/volume] in Urine by Test strip</td><td>0.7</td><td>0 - 1</td><td>mg/dL</td></tr><tr><td>Bilirubin.total [Presence] in Urine by Test strip</td><td>Finding of bilirubin in urine</td><td></td><td></td></tr><tr><td>Ketones [Mass/volume] in Urine by Test strip</td><td><strong>19.1 H</strong></td><td>0 - 4</td><td>mg/dL</td></tr><tr><td>Specific gravity of Urine by Test strip</td><td><strong>1.0 L</strong></td><td>1.005 - 1.03</td><td>{nominal}</td></tr><tr><td>pH of Urine by Test strip</td><td>5.5</td><td>4.5 - 7</td><td>pH</td></tr><tr><td>Protein [Mass/volume] in Urine by Test strip</td><td><strong>440.5 H</strong></td><td>0 - 145</td><td>mg/dL</td></tr><tr><td>Protein [Presence] in Urine by Test strip</td><td>Urine protein test = +++</td><td></td><td></td></tr><tr><td>Nitrite [Presence] in Urine by Test strip</td><td>Urine nitrite negative</td><td></td><td></td></tr><tr><td>Hemoglobin [Presence] in Urine by Test strip</td><td>Urine blood test = negative</td><td></td><td></td></tr><tr><td>Leukocyte esterase [Presence] in Urine by Test strip</td><td>Urine leukocyte test negative</td><td></td><td></td></tr></tbody></table></div>"
                },
                "title": "Urinalysis"
              },
              {
                "code": {
                  "coding": [
                    {
                      "code": "$LP7846-1",
                      "system": "http://loinc.org",
                      "display": "Specimen information"
                    }
                  ],
                  "text": "Specimen information"
                },
                "entry": [
                  {
                    "reference": "urn:uuid:8d74e6ae-7d1c-46ec-98db-a797d777754e"
                  },
                  {
                    "reference": "urn:uuid:2df833a6-0cd5-42d4-a587-0317ed225bda"
                  },
                  {
                    "reference": "urn:uuid:3f5b5bcb-32fb-4259-a526-8430a304d1cf"
                  },
                  {
                    "reference": "urn:uuid:f424024a-709f-4414-8482-f72ba9c4cf11"
                  }
                ],
                "text": {
                  "status": "generated",
                  "div": "<div xmlns=\"http://www.w3.org/1999/xhtml\"><h3>Specimen information</h3><table class=\"hl7__eu__lab__report\"><thead><tr><th>Test</th><th>07-MAY-2016</th><th>Specimen</th><th></th></tr></thead><tbody><tr><td>Appearance of Urine</td><td>Cloudy urine</td><td>Urine</td><td></td></tr><tr><td>Appearance of Urine</td><td>Urine smell ammoniacal</td><td>Urine</td><td></td></tr><tr><td>Clarity of Urine</td><td>Translucent</td><td>Urine</td><td></td></tr><tr><td>Color of Urine</td><td>Brown color</td><td>Urine</td><td></td></tr></tbody></table></div>"
                },
                "title": "Specimen information"
              }
            ],
            "title": "Laboratory Report"
          },
          {
            "text": {
              "status": "generated",
              "div": "<div xmlns=\"http://www.w3.org/1999/xhtml\"><h3>Annotation</h3><table class=\"hl7__eu__lab__report\"><tr><th>Conclusion and Recommendations based on this report and previous findings known to us</th></tr><tr><td>The patient shows significantly elevated serum creatinine, indicating impaired renal function. Urinalysis reveals marked proteinuria, glucosuria, and ketonuria, with low specific gravity and abnormal urine appearance (cloudy, brown, ammoniacal), but no hematuria or leukocyturia. These findings suggest possible acute or chronic kidney disease with impaired tubular function and possible metabolic derangements. Further nephrological evaluation is recommended.</td></tr></table></div>"
            },
            "code": {
              "coding": [
                {
                  "system": "http://loinc.org",
                  "code": "48767-8",
                  "display": "Annotation comment"
                }
              ]
            },
            "title": "Annotation comment"
          }
        ],
        "status": "final",
        "subject": {
          "reference": "urn:uuid:2eae8a70-f122-4cbe-b01d-2120714ffd38",
          "display": "Iva Kratochvílová"
        },
        "date": "2016-05-07T18:57:53Z",
        "title": "Laboratory Report",
        "confidentiality": "N"
      }
    },
    {
      "fullUrl": "urn:uuid:dd418826-6763-45a8-8a5e-2dc6712c893c",
      "resource": {
        "resourceType": "DiagnosticReport",
        "id": "dd418826-6763-45a8-8a5e-2dc6712c893c",
        "meta": {
          "profile": [
            "http://hl7.eu/fhir/laboratory/StructureDefinition/DiagnosticReport-eu-lab"
          ]
        },
        "identifier": [
          {
            "assigner": {
              "display": "HL7 Europe"
            },
            "system": "urn:oid:2.16.840.1.113883.2.51.999",
            "value": "11aac289-e7f8-4db4-ad76-e7f05a36e2fd"
          }
        ],
        "extension": [
          {
            "url": "http://hl7.org/fhir/5.0/StructureDefinition/extension-DiagnosticReport.composition",
            "valueReference": {
              "reference": "urn:uuid:0032e4ea-8e92-4dfa-8ca9-8534e02f9164"
            }
          }
        ],
        "category": [
          {
            "coding": [
              {
                "code": "26436-6",
                "system": "http://loinc.org",
                "display": "Laboratory studies (set)"
              }
            ]
          }
        ],
        "specimen": [
          {
            "reference": "urn:uuid:1d495e22-47cb-4fb7-8964-256d2d4cb496"
          },
          {
            "reference": "urn:uuid:961c1c1f-f4a3-4374-8f80-1faa9d68027d"
          }
        ],
        "result": [
          {
            "reference": "urn:uuid:99c3aada-444d-4c9d-93de-b68216145df3"
          },
          {
            "reference": "urn:uuid:71ca4931-4930-4d2d-9490-d616b22195bc"
          },
          {
            "reference": "urn:uuid:b36243ec-a185-46aa-9a8d-c2007351971e"
          },
          {
            "reference": "urn:uuid:857ddfc9-cfd3-4a9d-9ef4-590c055f3ef0"
          },
          {
            "reference": "urn:uuid:1b58c241-3f9c-415e-9a63-e881e0dc8a29"
          },
          {
            "reference": "urn:uuid:dad7e2bf-f0a0-4940-bf72-c3210fa9fbf3"
          },
          {
            "reference": "urn:uuid:4933426e-60f0-4d47-b0d5-ac38781e1040"
          },
          {
            "reference": "urn:uuid:060b5820-7954-4a0d-a241-8b953e88e7fe"
          },
          {
            "reference": "urn:uuid:8d74e6ae-7d1c-46ec-98db-a797d777754e"
          },
          {
            "reference": "urn:uuid:2df833a6-0cd5-42d4-a587-0317ed225bda"
          },
          {
            "reference": "urn:uuid:3f5b5bcb-32fb-4259-a526-8430a304d1cf"
          },
          {
            "reference": "urn:uuid:f424024a-709f-4414-8482-f72ba9c4cf11"
          },
          {
            "reference": "urn:uuid:dd270df9-98cf-4f40-92d3-075a69bb4a73"
          },
          {
            "reference": "urn:uuid:f6adcdad-186c-4b5d-a253-ce7c9be6d226"
          },
          {
            "reference": "urn:uuid:d6362b9b-ce31-4491-8630-98d94a2b8efb"
          },
          {
            "reference": "urn:uuid:b57a991c-cbab-4ee1-98d7-22521cd52465"
          },
          {
            "reference": "urn:uuid:85b9393a-0598-4767-9a1b-84640eef5221"
          },
          {
            "reference": "urn:uuid:dd39b7c3-edf9-4c7d-8e6b-b6418d8cec95"
          },
          {
            "reference": "urn:uuid:1e061be4-13f8-4436-b082-6aa892372403"
          },
          {
            "reference": "urn:uuid:79cd3da8-bf7a-4d7e-85c6-cd2900c461ad"
          },
          {
            "reference": "urn:uuid:5b9cf51d-525b-4b49-85bf-2fba149b7b5a"
          },
          {
            "reference": "urn:uuid:e4664996-47c4-4dbd-a7ad-bbc11523fc83"
          },
          {
            "reference": "urn:uuid:c449f7be-3a25-49c4-9678-85fdd5f32801"
          },
          {
            "reference": "urn:uuid:fa9ba3f3-aacb-4f55-afb8-cedda6e0031b"
          },
          {
            "reference": "urn:uuid:72242957-8e76-4cea-be3d-4f518c04fca9"
          }
        ],
        "status": "registered",
        "code": {
          "coding": [
            {
              "code": "11502-2",
              "system": "http://loinc.org",
              "display": "Laboratory report"
            }
          ]
        },
        "subject": {
          "reference": "urn:uuid:2eae8a70-f122-4cbe-b01d-2120714ffd38",
          "display": "Iva Kratochvílová"
        }
      }
    },
    {
      "fullUrl": "urn:uuid:2eae8a70-f122-4cbe-b01d-2120714ffd38",
      "resource": {
        "resourceType": "Patient",
        "id": "2eae8a70-f122-4cbe-b01d-2120714ffd38",
        "meta": {
          "security": [
            {
              "system": "http://terminology.hl7.org/CodeSystem/v3-ActReason",
              "code": "HTEST"
            },
            {
              "system": "http://terminology.hl7.org/CodeSystem/v3-ActReason",
              "code": "TRAIN"
            }
          ],
          "tag": [
            {
              "system": "https://synderai.net/fhir/CodeSystem/tags",
              "code": "synthetic",
              "display": "SYNDERAI Synthetic data"
            }
          ],
          "profile": [
            "http://hl7.eu/fhir/base/StructureDefinition/patient-eu-core"
          ]
        },
        "identifier": [
          {
            "type": {
              "coding": [
                {
                  "code": "PT",
                  "system": "http://terminology.hl7.org/CodeSystem/v2-0203"
                }
              ]
            },
            "system": "http://ec.europa.eu/identifier/eci",
            "value": "4380-389488-0"
          },
          {
            "type": {
              "coding": [
                {
                  "code": "MR",
                  "system": "http://terminology.hl7.org/CodeSystem/v2-0203"
                }
              ]
            },
            "system": "http://local.setting.eu/identifier",
            "value": "f8f9ebdc-03dd-2fc0-819c-affa4ffd7f67"
          }
        ],
        "name": [
          {
            "family": "Kratochvílová"
          },
          {
            "given": [
              "Iva"
            ]
          },
          {
            "text": "Iva Kratochvílová"
          }
        ],
        "address": [
          {
            "line": [
              "Žofie Podlipské 4"
            ],
            "use": "home",
            "type": "physical",
            "postalCode": "27324",
            "city": "Postoloprty",
            "country": "Czechia"
          }
        ],
        "telecom": [
          {
            "system": "phone",
            "value": "00420 607 985 072"
          }
        ],
        "extension": [
          {
            "url": "http://hl7.org/fhir/StructureDefinition/patient-nationality",
            "valueCodeableConcept": {
              "coding": [
                {
                  "code": "CZ",
                  "system": "http://hl7.org/fhir/ValueSet/country"
                }
              ]
            }
          }
        ],
        "text": {
          "status": "generated",
          "div": "<div xmlns=\"http://www.w3.org/1999/xhtml\"><table class=\"hl7__ips\"><tr><td>Iva Kratochvílová</td><td>female</td><td>17-Sep-1964</td></tr></table></div>"
        },
        "gender": "female",
        "birthDate": "1964-09-17"
      }
    },
    {
      "fullUrl": "urn:uuid:5115f1d8-dfea-42a7-8f23-70e80c778bad",
      "resource": {
        "resourceType": "ServiceRequest",
        "id": "5115f1d8-dfea-42a7-8f23-70e80c778bad",
        "meta": {
          "profile": [
            "http://hl7.eu/fhir/laboratory/StructureDefinition/ServiceRequest-eu-lab"
          ]
        },
        "identifier": [
          {
            "system": "http://example.org",
            "value": "26534c2c-cfae-428e-bb0a-7281fadfaf6d"
          }
        ],
        "specimen": [
          {
            "reference": "urn:uuid:1d495e22-47cb-4fb7-8964-256d2d4cb496"
          },
          {
            "reference": "urn:uuid:961c1c1f-f4a3-4374-8f80-1faa9d68027d"
          }
        ],
        "reasonCode": [
          {
            "coding": [
              {
                "code": "431856006",
                "system": "http://snomed.info/sct",
                "display": "Chronic kidney disease stage 2"
              }
            ]
          },
          {
            "coding": [
              {
                "code": "431855005",
                "system": "http://snomed.info/sct",
                "display": "Chronic kidney disease stage 1"
              }
            ]
          },
          {
            "coding": [
              {
                "code": "237602007",
                "system": "http://snomed.info/sct",
                "display": "Metabolic syndrome X"
              }
            ]
          },
          {
            "coding": [
              {
                "code": "91302008",
                "system": "http://snomed.info/sct",
                "display": "Sepsis"
              }
            ]
          },
          {
            "coding": [
              {
                "code": "271737000",
                "system": "http://snomed.info/sct",
                "display": "Anemia"
              }
            ]
          },
          {
            "coding": [
              {
                "code": "15777000",
                "system": "http://snomed.info/sct",
                "display": "Prediabetes"
              }
            ]
          },
          {
            "coding": [
              {
                "code": "157141000119108",
                "system": "http://snomed.info/sct",
                "display": "Proteinuria due to type 2 diabetes mellitus"
              }
            ]
          },
          {
            "coding": [
              {
                "code": "90781000119102",
                "system": "http://snomed.info/sct",
                "display": "Microalbuminuria due to type 2 diabetes mellitus"
              }
            ]
          },
          {
            "coding": [
              {
                "code": "239872002",
                "system": "http://snomed.info/sct",
                "display": "Osteoarthritis of hip"
              }
            ]
          },
          {
            "coding": [
              {
                "code": "40055000",
                "system": "http://snomed.info/sct",
                "display": "Chronic sinusitis"
              }
            ]
          },
          {
            "coding": [
              {
                "code": "127013003",
                "system": "http://snomed.info/sct",
                "display": "Disorder of kidney due to diabetes mellitus"
              }
            ]
          },
          {
            "coding": [
              {
                "code": "59621000",
                "system": "http://snomed.info/sct",
                "display": "Essential hypertension"
              }
            ]
          }
        ],
        "status": "active",
        "intent": "order",
        "code": {
          "coding": [
            {
              "code": "108252007",
              "system": "http://snomed.info/sct",
              "display": "Laboratory procedure"
            }
          ]
        },
        "subject": {
          "reference": "urn:uuid:2eae8a70-f122-4cbe-b01d-2120714ffd38",
          "display": "Iva Kratochvílová"
        },
        "requester": {
          "reference": "urn:uuid:66a6a024-fbec-4fbb-a3bb-3d0516aad06d"
        }
      }
    },
    {
      "fullUrl": "urn:uuid:66a6a024-fbec-4fbb-a3bb-3d0516aad06d",
      "resource": {
        "resourceType": "PractitionerRole",
        "id": "66a6a024-fbec-4fbb-a3bb-3d0516aad06d",
        "meta": {
          "profile": [
            "http://hl7.eu/fhir/base/StructureDefinition/practitionerRole-eu"
          ]
        },
        "text": {
          "status": "generated",
          "div": "<div xmlns=\"http://www.w3.org/1999/xhtml\">Provider Role Id: 66a6a024-fbec-4fbb-a3bb-3d0516aad06d</div>"
        },
        "organization": {
          "reference": "urn:uuid:47a7868f-581e-4248-98a8-1a50162362f2"
        }
      }
    },
    {
      "fullUrl": "urn:uuid:47a7868f-581e-4248-98a8-1a50162362f2",
      "resource": {
        "resourceType": "Organization",
        "id": "47a7868f-581e-4248-98a8-1a50162362f2",
        "meta": {
          "profile": [
            "http://hl7.eu/fhir/base/StructureDefinition/organization-eu"
          ]
        },
        "identifier": [
          {
            "assigner": {
              "display": "HL7 Europe"
            },
            "system": "urn:oid:2.16.840.1.113883.2.51.999",
            "value": "8c466186-0834-42b0-b822-3e9f199e011f"
          }
        ],
        "address": [
          {
            "city": "Kadaň",
            "postalCode": "432 01",
            "country": "Czechia"
          }
        ],
        "text": {
          "status": "generated",
          "div": "<div xmlns=\"http://www.w3.org/1999/xhtml\">Provider Organization: Nemocnice s poliklinikou Kadaň</div>"
        },
        "name": "Nemocnice s poliklinikou Kadaň"
      }
    },
    {
      "fullUrl": "urn:uuid:1d495e22-47cb-4fb7-8964-256d2d4cb496",
      "resource": {
        "resourceType": "Specimen",
        "id": "1d495e22-47cb-4fb7-8964-256d2d4cb496",
        "meta": {
          "profile": [
            "http://hl7.eu/fhir/laboratory/StructureDefinition/Specimen-eu-lab"
          ]
        },
        "collection": {
          "collectedDateTime": "2016-05-07"
        },
        "text": {
          "status": "generated",
          "div": "<div xmlns=\"http://www.w3.org/1999/xhtml\"><table class=\"hl7__eu__lab__report\"><tr><th>Specimen</th><th>Collection Date</th></tr><tr><td>Whole blood specimen (specimen)</td><td><span class=\"nb\">07-May-2016</span></td></tr></table></div>"
        },
        "type": {
          "coding": [
            {
              "code": "258580003",
              "system": "http://snomed.info/sct",
              "display": "Whole blood specimen (specimen)"
            }
          ]
        }
      }
    },
    {
      "fullUrl": "urn:uuid:961c1c1f-f4a3-4374-8f80-1faa9d68027d",
      "resource": {
        "resourceType": "Specimen",
        "id": "961c1c1f-f4a3-4374-8f80-1faa9d68027d",
        "meta": {
          "profile": [
            "http://hl7.eu/fhir/laboratory/StructureDefinition/Specimen-eu-lab"
          ]
        },
        "collection": {
          "collectedDateTime": "2016-05-07"
        },
        "text": {
          "status": "generated",
          "div": "<div xmlns=\"http://www.w3.org/1999/xhtml\"><table class=\"hl7__eu__lab__report\"><tr><th>Specimen</th><th>Collection Date</th></tr><tr><td>Urine specimen</td><td><span class=\"nb\">07-May-2016</span></td></tr></table></div>"
        },
        "type": {
          "coding": [
            {
              "code": "122575003",
              "system": "http://snomed.info/sct",
              "display": "Urine specimen"
            }
          ]
        }
      }
    },
    {
      "fullUrl": "urn:uuid:99c3aada-444d-4c9d-93de-b68216145df3",
      "resource": {
        "resourceType": "Observation",
        "id": "99c3aada-444d-4c9d-93de-b68216145df3",
        "meta": {
          "profile": [
            "http://hl7.eu/fhir/laboratory/StructureDefinition/Observation-resultslab-eu-lab"
          ]
        },
        "performer": [
          {
            "display": "The Central European Lab"
          }
        ],
        "category": [
          {
            "coding": [
              {
                "system": "http://terminology.hl7.org/CodeSystem/observation-category",
                "code": "laboratory"
              }
            ]
          }
        ],
        "code": {
          "coding": [
            {
              "code": "2339-0",
              "system": "http://loinc.org",
              "display": "Glucose [Mass/volume] in Blood"
            }
          ],
          "text": "Glucose [Mass/volume] in Blood"
        },
        "valueQuantity": {
          "system": "http://unitsofmeasure.org",
          "value": 96.9,
          "unit": "mg/dL",
          "code": "mg/dL"
        },
        "referenceRange": [
          {
            "low": {
              "value": 70,
              "code": "mg/dL",
              "system": "http://unitsofmeasure.org"
            }
          },
          {
            "high": {
              "value": 140,
              "code": "mg/dL",
              "system": "http://unitsofmeasure.org"
            }
          }
        ],
        "text": {
          "status": "generated",
          "div": "<div xmlns=\"http://www.w3.org/1999/xhtml\"><table class=\"hl7__eu__lab__report\"><tr><th>Test</th><th>07-May-2016</th><th>Reference&#xA0;Range</th><th>Unit</th></tr><tr><td>Glucose [Mass/volume] in Blood</td><td>96.9</td><td>70 - 140</td><td></td><td>mg/dL</td></tr></table></div>"
        },
        "status": "final",
        "subject": {
          "reference": "urn:uuid:2eae8a70-f122-4cbe-b01d-2120714ffd38",
          "display": "Iva Kratochvílová"
        },
        "effectiveDateTime": "2016-05-07T16:57:53Z",
        "specimen": {
          "reference": "urn:uuid:1d495e22-47cb-4fb7-8964-256d2d4cb496"
        }
      }
    },
    {
      "fullUrl": "urn:uuid:71ca4931-4930-4d2d-9490-d616b22195bc",
      "resource": {
        "resourceType": "Observation",
        "id": "71ca4931-4930-4d2d-9490-d616b22195bc",
        "meta": {
          "profile": [
            "http://hl7.eu/fhir/laboratory/StructureDefinition/Observation-resultslab-eu-lab"
          ]
        },
        "performer": [
          {
            "display": "The Central European Lab"
          }
        ],
        "category": [
          {
            "coding": [
              {
                "system": "http://terminology.hl7.org/CodeSystem/observation-category",
                "code": "laboratory"
              }
            ]
          }
        ],
        "code": {
          "coding": [
            {
              "code": "6299-2",
              "system": "http://loinc.org",
              "display": "Urea nitrogen [Mass/volume] in Blood"
            }
          ],
          "text": "Urea nitrogen [Mass/volume] in Blood"
        },
        "valueQuantity": {
          "system": "http://unitsofmeasure.org",
          "value": 19.2,
          "unit": "mg/dL",
          "code": "mg/dL"
        },
        "referenceRange": [
          {
            "low": {
              "value": 7,
              "code": "mg/dL",
              "system": "http://unitsofmeasure.org"
            }
          },
          {
            "high": {
              "value": 25,
              "code": "mg/dL",
              "system": "http://unitsofmeasure.org"
            }
          }
        ],
        "text": {
          "status": "generated",
          "div": "<div xmlns=\"http://www.w3.org/1999/xhtml\"><table class=\"hl7__eu__lab__report\"><tr><th>Test</th><th>07-May-2016</th><th>Reference&#xA0;Range</th><th>Unit</th></tr><tr><td>Urea nitrogen [Mass/volume] in Blood</td><td>19.2</td><td>7 - 25</td><td></td><td>mg/dL</td></tr></table></div>"
        },
        "status": "final",
        "subject": {
          "reference": "urn:uuid:2eae8a70-f122-4cbe-b01d-2120714ffd38",
          "display": "Iva Kratochvílová"
        },
        "effectiveDateTime": "2016-05-07T16:57:53Z",
        "specimen": {
          "reference": "urn:uuid:1d495e22-47cb-4fb7-8964-256d2d4cb496"
        }
      }
    },
    {
      "fullUrl": "urn:uuid:b36243ec-a185-46aa-9a8d-c2007351971e",
      "resource": {
        "resourceType": "Observation",
        "id": "b36243ec-a185-46aa-9a8d-c2007351971e",
        "meta": {
          "profile": [
            "http://hl7.eu/fhir/laboratory/StructureDefinition/Observation-resultslab-eu-lab"
          ]
        },
        "performer": [
          {
            "display": "The Central European Lab"
          }
        ],
        "category": [
          {
            "coding": [
              {
                "system": "http://terminology.hl7.org/CodeSystem/observation-category",
                "code": "laboratory"
              }
            ]
          }
        ],
        "code": {
          "coding": [
            {
              "code": "38483-4",
              "system": "http://loinc.org",
              "display": "Creatinine [Mass/volume] in Blood"
            }
          ],
          "text": "Creatinine [Mass/volume] in Blood"
        },
        "valueQuantity": {
          "system": "http://unitsofmeasure.org",
          "value": 2.6,
          "unit": "mg/dL",
          "code": "mg/dL"
        },
        "referenceRange": [
          {
            "low": {
              "value": 0.6,
              "code": "mg/dL",
              "system": "http://unitsofmeasure.org"
            }
          },
          {
            "high": {
              "value": 1.1,
              "code": "mg/dL",
              "system": "http://unitsofmeasure.org"
            }
          }
        ],
        "interpretation": [
          {
            "coding": [
              {
                "code": "H",
                "system": "http://terminology.hl7.org/CodeSystem/v3-ObservationInterpretation",
                "display": "High"
              }
            ]
          }
        ],
        "text": {
          "status": "generated",
          "div": "<div xmlns=\"http://www.w3.org/1999/xhtml\"><table class=\"hl7__eu__lab__report\"><tr><th>Test</th><th>07-May-2016</th><th>Reference&#xA0;Range</th><th>Unit</th></tr><tr><td>Creatinine [Mass/volume] in Blood</td><td>2.6</td><td>0.6 - 1.1</td><td>H</td><td>mg/dL</td></tr></table></div>"
        },
        "status": "final",
        "subject": {
          "reference": "urn:uuid:2eae8a70-f122-4cbe-b01d-2120714ffd38",
          "display": "Iva Kratochvílová"
        },
        "effectiveDateTime": "2016-05-07T16:57:53Z",
        "specimen": {
          "reference": "urn:uuid:1d495e22-47cb-4fb7-8964-256d2d4cb496"
        }
      }
    },
    {
      "fullUrl": "urn:uuid:857ddfc9-cfd3-4a9d-9ef4-590c055f3ef0",
      "resource": {
        "resourceType": "Observation",
        "id": "857ddfc9-cfd3-4a9d-9ef4-590c055f3ef0",
        "meta": {
          "profile": [
            "http://hl7.eu/fhir/laboratory/StructureDefinition/Observation-resultslab-eu-lab"
          ]
        },
        "performer": [
          {
            "display": "The Central European Lab"
          }
        ],
        "category": [
          {
            "coding": [
              {
                "system": "http://terminology.hl7.org/CodeSystem/observation-category",
                "code": "laboratory"
              }
            ]
          }
        ],
        "code": {
          "coding": [
            {
              "code": "49765-1",
              "system": "http://loinc.org",
              "display": "Calcium [Mass/volume] in Blood"
            }
          ],
          "text": "Calcium [Mass/volume] in Blood"
        },
        "valueQuantity": {
          "system": "http://unitsofmeasure.org",
          "value": 10.2,
          "unit": "mg/dL",
          "code": "mg/dL"
        },
        "referenceRange": [
          {
            "low": {
              "value": 8.6,
              "code": "mg/dL",
              "system": "http://unitsofmeasure.org"
            }
          },
          {
            "high": {
              "value": 10.4,
              "code": "mg/dL",
              "system": "http://unitsofmeasure.org"
            }
          }
        ],
        "text": {
          "status": "generated",
          "div": "<div xmlns=\"http://www.w3.org/1999/xhtml\"><table class=\"hl7__eu__lab__report\"><tr><th>Test</th><th>07-May-2016</th><th>Reference&#xA0;Range</th><th>Unit</th></tr><tr><td>Calcium [Mass/volume] in Blood</td><td>10.2</td><td>8.6 - 10.4</td><td></td><td>mg/dL</td></tr></table></div>"
        },
        "status": "final",
        "subject": {
          "reference": "urn:uuid:2eae8a70-f122-4cbe-b01d-2120714ffd38",
          "display": "Iva Kratochvílová"
        },
        "effectiveDateTime": "2016-05-07T16:57:53Z",
        "specimen": {
          "reference": "urn:uuid:1d495e22-47cb-4fb7-8964-256d2d4cb496"
        }
      }
    },
    {
      "fullUrl": "urn:uuid:1b58c241-3f9c-415e-9a63-e881e0dc8a29",
      "resource": {
        "resourceType": "Observation",
        "id": "1b58c241-3f9c-415e-9a63-e881e0dc8a29",
        "meta": {
          "profile": [
            "http://hl7.eu/fhir/laboratory/StructureDefinition/Observation-resultslab-eu-lab"
          ]
        },
        "performer": [
          {
            "display": "The Central European Lab"
          }
        ],
        "category": [
          {
            "coding": [
              {
                "system": "http://terminology.hl7.org/CodeSystem/observation-category",
                "code": "laboratory"
              }
            ]
          }
        ],
        "code": {
          "coding": [
            {
              "code": "2947-0",
              "system": "http://loinc.org",
              "display": "Sodium [Moles/volume] in Blood"
            }
          ],
          "text": "Sodium [Moles/volume] in Blood"
        },
        "valueQuantity": {
          "system": "http://unitsofmeasure.org",
          "value": 141,
          "unit": "mmol/L",
          "code": "mmol/L"
        },
        "referenceRange": [
          {
            "low": {
              "value": 135,
              "code": "mmol/L",
              "system": "http://unitsofmeasure.org"
            }
          },
          {
            "high": {
              "value": 145,
              "code": "mmol/L",
              "system": "http://unitsofmeasure.org"
            }
          }
        ],
        "text": {
          "status": "generated",
          "div": "<div xmlns=\"http://www.w3.org/1999/xhtml\"><table class=\"hl7__eu__lab__report\"><tr><th>Test</th><th>07-May-2016</th><th>Reference&#xA0;Range</th><th>Unit</th></tr><tr><td>Sodium [Moles/volume] in Blood</td><td>141.0</td><td>135 - 145</td><td></td><td>mmol/L</td></tr></table></div>"
        },
        "status": "final",
        "subject": {
          "reference": "urn:uuid:2eae8a70-f122-4cbe-b01d-2120714ffd38",
          "display": "Iva Kratochvílová"
        },
        "effectiveDateTime": "2016-05-07T16:57:53Z",
        "specimen": {
          "reference": "urn:uuid:1d495e22-47cb-4fb7-8964-256d2d4cb496"
        }
      }
    },
    {
      "fullUrl": "urn:uuid:dad7e2bf-f0a0-4940-bf72-c3210fa9fbf3",
      "resource": {
        "resourceType": "Observation",
        "id": "dad7e2bf-f0a0-4940-bf72-c3210fa9fbf3",
        "meta": {
          "profile": [
            "http://hl7.eu/fhir/laboratory/StructureDefinition/Observation-resultslab-eu-lab"
          ]
        },
        "performer": [
          {
            "display": "The Central European Lab"
          }
        ],
        "category": [
          {
            "coding": [
              {
                "system": "http://terminology.hl7.org/CodeSystem/observation-category",
                "code": "laboratory"
              }
            ]
          }
        ],
        "code": {
          "coding": [
            {
              "code": "6298-4",
              "system": "http://loinc.org",
              "display": "Potassium [Moles/volume] in Blood"
            }
          ],
          "text": "Potassium [Moles/volume] in Blood"
        },
        "valueQuantity": {
          "system": "http://unitsofmeasure.org",
          "value": 5,
          "unit": "mmol/L",
          "code": "mmol/L"
        },
        "referenceRange": [
          {
            "low": {
              "value": 3.5,
              "code": "mmol/L",
              "system": "http://unitsofmeasure.org"
            }
          },
          {
            "high": {
              "value": 5.1,
              "code": "mmol/L",
              "system": "http://unitsofmeasure.org"
            }
          }
        ],
        "text": {
          "status": "generated",
          "div": "<div xmlns=\"http://www.w3.org/1999/xhtml\"><table class=\"hl7__eu__lab__report\"><tr><th>Test</th><th>07-May-2016</th><th>Reference&#xA0;Range</th><th>Unit</th></tr><tr><td>Potassium [Moles/volume] in Blood</td><td>5.0</td><td>3.5 - 5.1</td><td></td><td>mmol/L</td></tr></table></div>"
        },
        "status": "final",
        "subject": {
          "reference": "urn:uuid:2eae8a70-f122-4cbe-b01d-2120714ffd38",
          "display": "Iva Kratochvílová"
        },
        "effectiveDateTime": "2016-05-07T16:57:53Z",
        "specimen": {
          "reference": "urn:uuid:1d495e22-47cb-4fb7-8964-256d2d4cb496"
        }
      }
    },
    {
      "fullUrl": "urn:uuid:4933426e-60f0-4d47-b0d5-ac38781e1040",
      "resource": {
        "resourceType": "Observation",
        "id": "4933426e-60f0-4d47-b0d5-ac38781e1040",
        "meta": {
          "profile": [
            "http://hl7.eu/fhir/laboratory/StructureDefinition/Observation-resultslab-eu-lab"
          ]
        },
        "performer": [
          {
            "display": "The Central European Lab"
          }
        ],
        "category": [
          {
            "coding": [
              {
                "system": "http://terminology.hl7.org/CodeSystem/observation-category",
                "code": "laboratory"
              }
            ]
          }
        ],
        "code": {
          "coding": [
            {
              "code": "2069-3",
              "system": "http://loinc.org",
              "display": "Chloride [Moles/volume] in Blood"
            }
          ],
          "text": "Chloride [Moles/volume] in Blood"
        },
        "valueQuantity": {
          "system": "http://unitsofmeasure.org",
          "value": 108.6,
          "unit": "mmol/L",
          "code": "mmol/L"
        },
        "referenceRange": [
          {
            "low": {
              "value": 98,
              "code": "mmol/L",
              "system": "http://unitsofmeasure.org"
            }
          },
          {
            "high": {
              "value": 110,
              "code": "mmol/L",
              "system": "http://unitsofmeasure.org"
            }
          }
        ],
        "text": {
          "status": "generated",
          "div": "<div xmlns=\"http://www.w3.org/1999/xhtml\"><table class=\"hl7__eu__lab__report\"><tr><th>Test</th><th>07-May-2016</th><th>Reference&#xA0;Range</th><th>Unit</th></tr><tr><td>Chloride [Moles/volume] in Blood</td><td>108.6</td><td>98 - 110</td><td></td><td>mmol/L</td></tr></table></div>"
        },
        "status": "final",
        "subject": {
          "reference": "urn:uuid:2eae8a70-f122-4cbe-b01d-2120714ffd38",
          "display": "Iva Kratochvílová"
        },
        "effectiveDateTime": "2016-05-07T16:57:53Z",
        "specimen": {
          "reference": "urn:uuid:1d495e22-47cb-4fb7-8964-256d2d4cb496"
        }
      }
    },
    {
      "fullUrl": "urn:uuid:060b5820-7954-4a0d-a241-8b953e88e7fe",
      "resource": {
        "resourceType": "Observation",
        "id": "060b5820-7954-4a0d-a241-8b953e88e7fe",
        "meta": {
          "profile": [
            "http://hl7.eu/fhir/laboratory/StructureDefinition/Observation-resultslab-eu-lab"
          ]
        },
        "performer": [
          {
            "display": "The Central European Lab"
          }
        ],
        "category": [
          {
            "coding": [
              {
                "system": "http://terminology.hl7.org/CodeSystem/observation-category",
                "code": "laboratory"
              }
            ]
          }
        ],
        "code": {
          "coding": [
            {
              "code": "20565-8",
              "system": "http://loinc.org",
              "display": "Carbon dioxide, total [Moles/volume] in Blood"
            }
          ],
          "text": "Carbon dioxide, total [Moles/volume] in Blood"
        },
        "valueQuantity": {
          "system": "http://unitsofmeasure.org",
          "value": 28,
          "unit": "mmol/L",
          "code": "mmol/L"
        },
        "referenceRange": [
          {
            "low": {
              "value": 22,
              "code": "mmol/L",
              "system": "http://unitsofmeasure.org"
            }
          },
          {
            "high": {
              "value": 29,
              "code": "mmol/L",
              "system": "http://unitsofmeasure.org"
            }
          }
        ],
        "text": {
          "status": "generated",
          "div": "<div xmlns=\"http://www.w3.org/1999/xhtml\"><table class=\"hl7__eu__lab__report\"><tr><th>Test</th><th>07-May-2016</th><th>Reference&#xA0;Range</th><th>Unit</th></tr><tr><td>Carbon dioxide, total [Moles/volume] in Blood</td><td>28.0</td><td>22 - 29</td><td></td><td>mmol/L</td></tr></table></div>"
        },
        "status": "final",
        "subject": {
          "reference": "urn:uuid:2eae8a70-f122-4cbe-b01d-2120714ffd38",
          "display": "Iva Kratochvílová"
        },
        "effectiveDateTime": "2016-05-07T16:57:53Z",
        "specimen": {
          "reference": "urn:uuid:1d495e22-47cb-4fb7-8964-256d2d4cb496"
        }
      }
    },
    {
      "fullUrl": "urn:uuid:8d74e6ae-7d1c-46ec-98db-a797d777754e",
      "resource": {
        "resourceType": "Observation",
        "id": "8d74e6ae-7d1c-46ec-98db-a797d777754e",
        "meta": {
          "profile": [
            "http://hl7.eu/fhir/laboratory/StructureDefinition/Observation-resultslab-eu-lab"
          ]
        },
        "performer": [
          {
            "display": "The Central European Lab"
          }
        ],
        "category": [
          {
            "coding": [
              {
                "system": "http://terminology.hl7.org/CodeSystem/observation-category",
                "code": "laboratory"
              }
            ]
          }
        ],
        "code": {
          "coding": [
            {
              "code": "5767-9",
              "system": "http://loinc.org",
              "display": "Appearance of Urine"
            }
          ],
          "text": "Appearance of Urine"
        },
        "text": {
          "status": "generated",
          "div": "<div xmlns=\"http://www.w3.org/1999/xhtml\"><table class=\"hl7__eu__lab__report\"><tr><th>Test</th><th>07-May-2016</th><th>Reference&#xA0;Range</th><th>Unit</th></tr><tr><td>Appearance of Urine</td></tr></table></div>"
        },
        "status": "final",
        "subject": {
          "reference": "urn:uuid:2eae8a70-f122-4cbe-b01d-2120714ffd38",
          "display": "Iva Kratochvílová"
        },
        "effectiveDateTime": "2016-05-07T16:57:53Z",
        "specimen": {
          "reference": "urn:uuid:961c1c1f-f4a3-4374-8f80-1faa9d68027d"
        }
      }
    },
    {
      "fullUrl": "urn:uuid:2df833a6-0cd5-42d4-a587-0317ed225bda",
      "resource": {
        "resourceType": "Observation",
        "id": "2df833a6-0cd5-42d4-a587-0317ed225bda",
        "meta": {
          "profile": [
            "http://hl7.eu/fhir/laboratory/StructureDefinition/Observation-resultslab-eu-lab"
          ]
        },
        "performer": [
          {
            "display": "The Central European Lab"
          }
        ],
        "category": [
          {
            "coding": [
              {
                "system": "http://terminology.hl7.org/CodeSystem/observation-category",
                "code": "laboratory"
              }
            ]
          }
        ],
        "code": {
          "coding": [
            {
              "code": "5767-9",
              "system": "http://loinc.org",
              "display": "Appearance of Urine"
            }
          ],
          "text": "Appearance of Urine"
        },
        "text": {
          "status": "generated",
          "div": "<div xmlns=\"http://www.w3.org/1999/xhtml\"><table class=\"hl7__eu__lab__report\"><tr><th>Test</th><th>07-May-2016</th><th>Reference&#xA0;Range</th><th>Unit</th></tr><tr><td>Appearance of Urine</td></tr></table></div>"
        },
        "status": "final",
        "subject": {
          "reference": "urn:uuid:2eae8a70-f122-4cbe-b01d-2120714ffd38",
          "display": "Iva Kratochvílová"
        },
        "effectiveDateTime": "2016-05-07T16:57:53Z",
        "specimen": {
          "reference": "urn:uuid:961c1c1f-f4a3-4374-8f80-1faa9d68027d"
        }
      }
    },
    {
      "fullUrl": "urn:uuid:3f5b5bcb-32fb-4259-a526-8430a304d1cf",
      "resource": {
        "resourceType": "Observation",
        "id": "3f5b5bcb-32fb-4259-a526-8430a304d1cf",
        "meta": {
          "profile": [
            "http://hl7.eu/fhir/laboratory/StructureDefinition/Observation-resultslab-eu-lab"
          ]
        },
        "performer": [
          {
            "display": "The Central European Lab"
          }
        ],
        "category": [
          {
            "coding": [
              {
                "system": "http://terminology.hl7.org/CodeSystem/observation-category",
                "code": "laboratory"
              }
            ]
          }
        ],
        "code": {
          "coding": [
            {
              "code": "32167-9",
              "system": "http://loinc.org",
              "display": "Clarity of Urine"
            }
          ],
          "text": "Clarity of Urine"
        },
        "text": {
          "status": "generated",
          "div": "<div xmlns=\"http://www.w3.org/1999/xhtml\"><table class=\"hl7__eu__lab__report\"><tr><th>Test</th><th>07-May-2016</th><th>Reference&#xA0;Range</th><th>Unit</th></tr><tr><td>Clarity of Urine</td></tr></table></div>"
        },
        "status": "final",
        "subject": {
          "reference": "urn:uuid:2eae8a70-f122-4cbe-b01d-2120714ffd38",
          "display": "Iva Kratochvílová"
        },
        "effectiveDateTime": "2016-05-07T16:57:53Z",
        "specimen": {
          "reference": "urn:uuid:961c1c1f-f4a3-4374-8f80-1faa9d68027d"
        }
      }
    },
    {
      "fullUrl": "urn:uuid:f424024a-709f-4414-8482-f72ba9c4cf11",
      "resource": {
        "resourceType": "Observation",
        "id": "f424024a-709f-4414-8482-f72ba9c4cf11",
        "meta": {
          "profile": [
            "http://hl7.eu/fhir/laboratory/StructureDefinition/Observation-resultslab-eu-lab"
          ]
        },
        "performer": [
          {
            "display": "The Central European Lab"
          }
        ],
        "category": [
          {
            "coding": [
              {
                "system": "http://terminology.hl7.org/CodeSystem/observation-category",
                "code": "laboratory"
              }
            ]
          }
        ],
        "code": {
          "coding": [
            {
              "code": "5778-6",
              "system": "http://loinc.org",
              "display": "Color of Urine"
            }
          ],
          "text": "Color of Urine"
        },
        "text": {
          "status": "generated",
          "div": "<div xmlns=\"http://www.w3.org/1999/xhtml\"><table class=\"hl7__eu__lab__report\"><tr><th>Test</th><th>07-May-2016</th><th>Reference&#xA0;Range</th><th>Unit</th></tr><tr><td>Color of Urine</td></tr></table></div>"
        },
        "status": "final",
        "subject": {
          "reference": "urn:uuid:2eae8a70-f122-4cbe-b01d-2120714ffd38",
          "display": "Iva Kratochvílová"
        },
        "effectiveDateTime": "2016-05-07T16:57:53Z",
        "specimen": {
          "reference": "urn:uuid:961c1c1f-f4a3-4374-8f80-1faa9d68027d"
        }
      }
    },
    {
      "fullUrl": "urn:uuid:dd270df9-98cf-4f40-92d3-075a69bb4a73",
      "resource": {
        "resourceType": "Observation",
        "id": "dd270df9-98cf-4f40-92d3-075a69bb4a73",
        "meta": {
          "profile": [
            "http://hl7.eu/fhir/laboratory/StructureDefinition/Observation-resultslab-eu-lab"
          ]
        },
        "performer": [
          {
            "display": "The Central European Lab"
          }
        ],
        "category": [
          {
            "coding": [
              {
                "system": "http://terminology.hl7.org/CodeSystem/observation-category",
                "code": "laboratory"
              }
            ]
          }
        ],
        "code": {
          "coding": [
            {
              "code": "5792-7",
              "system": "http://loinc.org",
              "display": "Glucose [Mass/volume] in Urine by Test strip"
            }
          ],
          "text": "Glucose [Mass/volume] in Urine by Test strip"
        },
        "valueQuantity": {
          "system": "http://unitsofmeasure.org",
          "value": 2.4,
          "unit": "mg/dL",
          "code": "mg/dL"
        },
        "referenceRange": [
          {
            "low": {
              "value": 0,
              "code": "mg/dL",
              "system": "http://unitsofmeasure.org"
            }
          },
          {
            "high": {
              "value": 0.8,
              "code": "mg/dL",
              "system": "http://unitsofmeasure.org"
            }
          }
        ],
        "interpretation": [
          {
            "coding": [
              {
                "code": "H",
                "system": "http://terminology.hl7.org/CodeSystem/v3-ObservationInterpretation",
                "display": "High"
              }
            ]
          }
        ],
        "text": {
          "status": "generated",
          "div": "<div xmlns=\"http://www.w3.org/1999/xhtml\"><table class=\"hl7__eu__lab__report\"><tr><th>Test</th><th>07-May-2016</th><th>Reference&#xA0;Range</th><th>Unit</th></tr><tr><td>Glucose [Mass/volume] in Urine by Test strip</td><td>2.4</td><td>0 - 0.8</td><td>H</td><td>mg/dL</td></tr></table></div>"
        },
        "status": "final",
        "subject": {
          "reference": "urn:uuid:2eae8a70-f122-4cbe-b01d-2120714ffd38",
          "display": "Iva Kratochvílová"
        },
        "effectiveDateTime": "2016-05-07T16:57:53Z",
        "specimen": {
          "reference": "urn:uuid:961c1c1f-f4a3-4374-8f80-1faa9d68027d"
        }
      }
    },
    {
      "fullUrl": "urn:uuid:f6adcdad-186c-4b5d-a253-ce7c9be6d226",
      "resource": {
        "resourceType": "Observation",
        "id": "f6adcdad-186c-4b5d-a253-ce7c9be6d226",
        "meta": {
          "profile": [
            "http://hl7.eu/fhir/laboratory/StructureDefinition/Observation-resultslab-eu-lab"
          ]
        },
        "performer": [
          {
            "display": "The Central European Lab"
          }
        ],
        "category": [
          {
            "coding": [
              {
                "system": "http://terminology.hl7.org/CodeSystem/observation-category",
                "code": "laboratory"
              }
            ]
          }
        ],
        "code": {
          "coding": [
            {
              "code": "25428-4",
              "system": "http://loinc.org",
              "display": "Glucose [Presence] in Urine by Test strip"
            }
          ],
          "text": "Glucose [Presence] in Urine by Test strip"
        },
        "text": {
          "status": "generated",
          "div": "<div xmlns=\"http://www.w3.org/1999/xhtml\"><table class=\"hl7__eu__lab__report\"><tr><th>Test</th><th>07-May-2016</th><th>Reference&#xA0;Range</th><th>Unit</th></tr><tr><td>Glucose [Presence] in Urine by Test strip</td></tr></table></div>"
        },
        "status": "final",
        "subject": {
          "reference": "urn:uuid:2eae8a70-f122-4cbe-b01d-2120714ffd38",
          "display": "Iva Kratochvílová"
        },
        "effectiveDateTime": "2016-05-07T16:57:53Z",
        "specimen": {
          "reference": "urn:uuid:961c1c1f-f4a3-4374-8f80-1faa9d68027d"
        }
      }
    },
    {
      "fullUrl": "urn:uuid:d6362b9b-ce31-4491-8630-98d94a2b8efb",
      "resource": {
        "resourceType": "Observation",
        "id": "d6362b9b-ce31-4491-8630-98d94a2b8efb",
        "meta": {
          "profile": [
            "http://hl7.eu/fhir/laboratory/StructureDefinition/Observation-resultslab-eu-lab"
          ]
        },
        "performer": [
          {
            "display": "The Central European Lab"
          }
        ],
        "category": [
          {
            "coding": [
              {
                "system": "http://terminology.hl7.org/CodeSystem/observation-category",
                "code": "laboratory"
              }
            ]
          }
        ],
        "code": {
          "coding": [
            {
              "code": "20505-4",
              "system": "http://loinc.org",
              "display": "Bilirubin.total [Mass/volume] in Urine by Test strip"
            }
          ],
          "text": "Bilirubin.total [Mass/volume] in Urine by Test strip"
        },
        "valueQuantity": {
          "system": "http://unitsofmeasure.org",
          "value": 0.7,
          "unit": "mg/dL",
          "code": "mg/dL"
        },
        "referenceRange": [
          {
            "low": {
              "value": 0,
              "code": "mg/dL",
              "system": "http://unitsofmeasure.org"
            }
          },
          {
            "high": {
              "value": 1,
              "code": "mg/dL",
              "system": "http://unitsofmeasure.org"
            }
          }
        ],
        "text": {
          "status": "generated",
          "div": "<div xmlns=\"http://www.w3.org/1999/xhtml\"><table class=\"hl7__eu__lab__report\"><tr><th>Test</th><th>07-May-2016</th><th>Reference&#xA0;Range</th><th>Unit</th></tr><tr><td>Bilirubin.total [Mass/volume] in Urine by Test strip</td><td>0.7</td><td>0 - 1</td><td></td><td>mg/dL</td></tr></table></div>"
        },
        "status": "final",
        "subject": {
          "reference": "urn:uuid:2eae8a70-f122-4cbe-b01d-2120714ffd38",
          "display": "Iva Kratochvílová"
        },
        "effectiveDateTime": "2016-05-07T16:57:53Z",
        "specimen": {
          "reference": "urn:uuid:961c1c1f-f4a3-4374-8f80-1faa9d68027d"
        }
      }
    },
    {
      "fullUrl": "urn:uuid:b57a991c-cbab-4ee1-98d7-22521cd52465",
      "resource": {
        "resourceType": "Observation",
        "id": "b57a991c-cbab-4ee1-98d7-22521cd52465",
        "meta": {
          "profile": [
            "http://hl7.eu/fhir/laboratory/StructureDefinition/Observation-resultslab-eu-lab"
          ]
        },
        "performer": [
          {
            "display": "The Central European Lab"
          }
        ],
        "category": [
          {
            "coding": [
              {
                "system": "http://terminology.hl7.org/CodeSystem/observation-category",
                "code": "laboratory"
              }
            ]
          }
        ],
        "code": {
          "coding": [
            {
              "code": "5770-3",
              "system": "http://loinc.org",
              "display": "Bilirubin.total [Presence] in Urine by Test strip"
            }
          ],
          "text": "Bilirubin.total [Presence] in Urine by Test strip"
        },
        "text": {
          "status": "generated",
          "div": "<div xmlns=\"http://www.w3.org/1999/xhtml\"><table class=\"hl7__eu__lab__report\"><tr><th>Test</th><th>07-May-2016</th><th>Reference&#xA0;Range</th><th>Unit</th></tr><tr><td>Bilirubin.total [Presence] in Urine by Test strip</td></tr></table></div>"
        },
        "status": "final",
        "subject": {
          "reference": "urn:uuid:2eae8a70-f122-4cbe-b01d-2120714ffd38",
          "display": "Iva Kratochvílová"
        },
        "effectiveDateTime": "2016-05-07T16:57:53Z",
        "specimen": {
          "reference": "urn:uuid:961c1c1f-f4a3-4374-8f80-1faa9d68027d"
        }
      }
    },
    {
      "fullUrl": "urn:uuid:85b9393a-0598-4767-9a1b-84640eef5221",
      "resource": {
        "resourceType": "Observation",
        "id": "85b9393a-0598-4767-9a1b-84640eef5221",
        "meta": {
          "profile": [
            "http://hl7.eu/fhir/laboratory/StructureDefinition/Observation-resultslab-eu-lab"
          ]
        },
        "performer": [
          {
            "display": "The Central European Lab"
          }
        ],
        "category": [
          {
            "coding": [
              {
                "system": "http://terminology.hl7.org/CodeSystem/observation-category",
                "code": "laboratory"
              }
            ]
          }
        ],
        "code": {
          "coding": [
            {
              "code": "5797-6",
              "system": "http://loinc.org",
              "display": "Ketones [Mass/volume] in Urine by Test strip"
            }
          ],
          "text": "Ketones [Mass/volume] in Urine by Test strip"
        },
        "valueQuantity": {
          "system": "http://unitsofmeasure.org",
          "value": 19.1,
          "unit": "mg/dL",
          "code": "mg/dL"
        },
        "referenceRange": [
          {
            "low": {
              "value": 0,
              "code": "mg/dL",
              "system": "http://unitsofmeasure.org"
            }
          },
          {
            "high": {
              "value": 4,
              "code": "mg/dL",
              "system": "http://unitsofmeasure.org"
            }
          }
        ],
        "interpretation": [
          {
            "coding": [
              {
                "code": "H",
                "system": "http://terminology.hl7.org/CodeSystem/v3-ObservationInterpretation",
                "display": "High"
              }
            ]
          }
        ],
        "text": {
          "status": "generated",
          "div": "<div xmlns=\"http://www.w3.org/1999/xhtml\"><table class=\"hl7__eu__lab__report\"><tr><th>Test</th><th>07-May-2016</th><th>Reference&#xA0;Range</th><th>Unit</th></tr><tr><td>Ketones [Mass/volume] in Urine by Test strip</td><td>19.1</td><td>0 - 4</td><td>H</td><td>mg/dL</td></tr></table></div>"
        },
        "status": "final",
        "subject": {
          "reference": "urn:uuid:2eae8a70-f122-4cbe-b01d-2120714ffd38",
          "display": "Iva Kratochvílová"
        },
        "effectiveDateTime": "2016-05-07T16:57:53Z",
        "specimen": {
          "reference": "urn:uuid:961c1c1f-f4a3-4374-8f80-1faa9d68027d"
        }
      }
    },
    {
      "fullUrl": "urn:uuid:dd39b7c3-edf9-4c7d-8e6b-b6418d8cec95",
      "resource": {
        "resourceType": "Observation",
        "id": "dd39b7c3-edf9-4c7d-8e6b-b6418d8cec95",
        "meta": {
          "profile": [
            "http://hl7.eu/fhir/laboratory/StructureDefinition/Observation-resultslab-eu-lab"
          ]
        },
        "performer": [
          {
            "display": "The Central European Lab"
          }
        ],
        "category": [
          {
            "coding": [
              {
                "system": "http://terminology.hl7.org/CodeSystem/observation-category",
                "code": "laboratory"
              }
            ]
          }
        ],
        "code": {
          "coding": [
            {
              "code": "2514-8",
              "system": "http://loinc.org",
              "display": "Ketones [Presence] in Urine by Test strip"
            }
          ],
          "text": "Ketones [Presence] in Urine by Test strip"
        },
        "text": {
          "status": "generated",
          "div": "<div xmlns=\"http://www.w3.org/1999/xhtml\"><table class=\"hl7__eu__lab__report\"><tr><th>Test</th><th>07-May-2016</th><th>Reference&#xA0;Range</th><th>Unit</th></tr><tr><td>Ketones [Presence] in Urine by Test strip</td></tr></table></div>"
        },
        "status": "final",
        "subject": {
          "reference": "urn:uuid:2eae8a70-f122-4cbe-b01d-2120714ffd38",
          "display": "Iva Kratochvílová"
        },
        "effectiveDateTime": "2016-05-07T16:57:53Z",
        "specimen": {
          "reference": "urn:uuid:961c1c1f-f4a3-4374-8f80-1faa9d68027d"
        }
      }
    },
    {
      "fullUrl": "urn:uuid:1e061be4-13f8-4436-b082-6aa892372403",
      "resource": {
        "resourceType": "Observation",
        "id": "1e061be4-13f8-4436-b082-6aa892372403",
        "meta": {
          "profile": [
            "http://hl7.eu/fhir/laboratory/StructureDefinition/Observation-resultslab-eu-lab"
          ]
        },
        "performer": [
          {
            "display": "The Central European Lab"
          }
        ],
        "category": [
          {
            "coding": [
              {
                "system": "http://terminology.hl7.org/CodeSystem/observation-category",
                "code": "laboratory"
              }
            ]
          }
        ],
        "code": {
          "coding": [
            {
              "code": "5811-5",
              "system": "http://loinc.org",
              "display": "Specific gravity of Urine by Test strip"
            }
          ],
          "text": "Specific gravity of Urine by Test strip"
        },
        "valueQuantity": {
          "system": "http://unitsofmeasure.org",
          "value": 1,
          "unit": "{nominal}",
          "code": "{nominal}"
        },
        "referenceRange": [
          {
            "low": {
              "value": 1.005,
              "code": "g/mL",
              "system": "http://unitsofmeasure.org"
            }
          },
          {
            "high": {
              "value": 1.03,
              "code": "g/mL",
              "system": "http://unitsofmeasure.org"
            }
          }
        ],
        "interpretation": [
          {
            "coding": [
              {
                "code": "L",
                "system": "http://terminology.hl7.org/CodeSystem/v3-ObservationInterpretation",
                "display": "Low"
              }
            ]
          }
        ],
        "text": {
          "status": "generated",
          "div": "<div xmlns=\"http://www.w3.org/1999/xhtml\"><table class=\"hl7__eu__lab__report\"><tr><th>Test</th><th>07-May-2016</th><th>Reference&#xA0;Range</th><th>Unit</th></tr><tr><td>Specific gravity of Urine by Test strip</td><td>1.0</td><td>1.005 - 1.03</td><td>L</td><td>{nominal}</td></tr></table></div>"
        },
        "status": "final",
        "subject": {
          "reference": "urn:uuid:2eae8a70-f122-4cbe-b01d-2120714ffd38",
          "display": "Iva Kratochvílová"
        },
        "effectiveDateTime": "2016-05-07T16:57:53Z",
        "specimen": {
          "reference": "urn:uuid:961c1c1f-f4a3-4374-8f80-1faa9d68027d"
        }
      }
    },
    {
      "fullUrl": "urn:uuid:79cd3da8-bf7a-4d7e-85c6-cd2900c461ad",
      "resource": {
        "resourceType": "Observation",
        "id": "79cd3da8-bf7a-4d7e-85c6-cd2900c461ad",
        "meta": {
          "profile": [
            "http://hl7.eu/fhir/laboratory/StructureDefinition/Observation-resultslab-eu-lab"
          ]
        },
        "performer": [
          {
            "display": "The Central European Lab"
          }
        ],
        "category": [
          {
            "coding": [
              {
                "system": "http://terminology.hl7.org/CodeSystem/observation-category",
                "code": "laboratory"
              }
            ]
          }
        ],
        "code": {
          "coding": [
            {
              "code": "5803-2",
              "system": "http://loinc.org",
              "display": "pH of Urine by Test strip"
            }
          ],
          "text": "pH of Urine by Test strip"
        },
        "valueQuantity": {
          "system": "http://unitsofmeasure.org",
          "value": 5.5,
          "unit": "pH",
          "code": "pH"
        },
        "referenceRange": [
          {
            "low": {
              "value": 4.5,
              "code": "pH",
              "system": "http://unitsofmeasure.org"
            }
          },
          {
            "high": {
              "value": 7,
              "code": "pH",
              "system": "http://unitsofmeasure.org"
            }
          }
        ],
        "text": {
          "status": "generated",
          "div": "<div xmlns=\"http://www.w3.org/1999/xhtml\"><table class=\"hl7__eu__lab__report\"><tr><th>Test</th><th>07-May-2016</th><th>Reference&#xA0;Range</th><th>Unit</th></tr><tr><td>pH of Urine by Test strip</td><td>5.5</td><td>4.5 - 7</td><td></td><td>pH</td></tr></table></div>"
        },
        "status": "final",
        "subject": {
          "reference": "urn:uuid:2eae8a70-f122-4cbe-b01d-2120714ffd38",
          "display": "Iva Kratochvílová"
        },
        "effectiveDateTime": "2016-05-07T16:57:53Z",
        "specimen": {
          "reference": "urn:uuid:961c1c1f-f4a3-4374-8f80-1faa9d68027d"
        }
      }
    },
    {
      "fullUrl": "urn:uuid:5b9cf51d-525b-4b49-85bf-2fba149b7b5a",
      "resource": {
        "resourceType": "Observation",
        "id": "5b9cf51d-525b-4b49-85bf-2fba149b7b5a",
        "meta": {
          "profile": [
            "http://hl7.eu/fhir/laboratory/StructureDefinition/Observation-resultslab-eu-lab"
          ]
        },
        "performer": [
          {
            "display": "The Central European Lab"
          }
        ],
        "category": [
          {
            "coding": [
              {
                "system": "http://terminology.hl7.org/CodeSystem/observation-category",
                "code": "laboratory"
              }
            ]
          }
        ],
        "code": {
          "coding": [
            {
              "code": "5804-0",
              "system": "http://loinc.org",
              "display": "Protein [Mass/volume] in Urine by Test strip"
            }
          ],
          "text": "Protein [Mass/volume] in Urine by Test strip"
        },
        "valueQuantity": {
          "system": "http://unitsofmeasure.org",
          "value": 440.5,
          "unit": "mg/dL",
          "code": "mg/dL"
        },
        "referenceRange": [
          {
            "low": {
              "value": 0,
              "code": "mg/dL",
              "system": "http://unitsofmeasure.org"
            }
          },
          {
            "high": {
              "value": 145,
              "code": "mg/dL",
              "system": "http://unitsofmeasure.org"
            }
          }
        ],
        "interpretation": [
          {
            "coding": [
              {
                "code": "H",
                "system": "http://terminology.hl7.org/CodeSystem/v3-ObservationInterpretation",
                "display": "High"
              }
            ]
          }
        ],
        "text": {
          "status": "generated",
          "div": "<div xmlns=\"http://www.w3.org/1999/xhtml\"><table class=\"hl7__eu__lab__report\"><tr><th>Test</th><th>07-May-2016</th><th>Reference&#xA0;Range</th><th>Unit</th></tr><tr><td>Protein [Mass/volume] in Urine by Test strip</td><td>440.5</td><td>0 - 145</td><td>H</td><td>mg/dL</td></tr></table></div>"
        },
        "status": "final",
        "subject": {
          "reference": "urn:uuid:2eae8a70-f122-4cbe-b01d-2120714ffd38",
          "display": "Iva Kratochvílová"
        },
        "effectiveDateTime": "2016-05-07T16:57:53Z",
        "specimen": {
          "reference": "urn:uuid:961c1c1f-f4a3-4374-8f80-1faa9d68027d"
        }
      }
    },
    {
      "fullUrl": "urn:uuid:e4664996-47c4-4dbd-a7ad-bbc11523fc83",
      "resource": {
        "resourceType": "Observation",
        "id": "e4664996-47c4-4dbd-a7ad-bbc11523fc83",
        "meta": {
          "profile": [
            "http://hl7.eu/fhir/laboratory/StructureDefinition/Observation-resultslab-eu-lab"
          ]
        },
        "performer": [
          {
            "display": "The Central European Lab"
          }
        ],
        "category": [
          {
            "coding": [
              {
                "system": "http://terminology.hl7.org/CodeSystem/observation-category",
                "code": "laboratory"
              }
            ]
          }
        ],
        "code": {
          "coding": [
            {
              "code": "20454-5",
              "system": "http://loinc.org",
              "display": "Protein [Presence] in Urine by Test strip"
            }
          ],
          "text": "Protein [Presence] in Urine by Test strip"
        },
        "text": {
          "status": "generated",
          "div": "<div xmlns=\"http://www.w3.org/1999/xhtml\"><table class=\"hl7__eu__lab__report\"><tr><th>Test</th><th>07-May-2016</th><th>Reference&#xA0;Range</th><th>Unit</th></tr><tr><td>Protein [Presence] in Urine by Test strip</td></tr></table></div>"
        },
        "status": "final",
        "subject": {
          "reference": "urn:uuid:2eae8a70-f122-4cbe-b01d-2120714ffd38",
          "display": "Iva Kratochvílová"
        },
        "effectiveDateTime": "2016-05-07T16:57:53Z",
        "specimen": {
          "reference": "urn:uuid:961c1c1f-f4a3-4374-8f80-1faa9d68027d"
        }
      }
    },
    {
      "fullUrl": "urn:uuid:c449f7be-3a25-49c4-9678-85fdd5f32801",
      "resource": {
        "resourceType": "Observation",
        "id": "c449f7be-3a25-49c4-9678-85fdd5f32801",
        "meta": {
          "profile": [
            "http://hl7.eu/fhir/laboratory/StructureDefinition/Observation-resultslab-eu-lab"
          ]
        },
        "performer": [
          {
            "display": "The Central European Lab"
          }
        ],
        "category": [
          {
            "coding": [
              {
                "system": "http://terminology.hl7.org/CodeSystem/observation-category",
                "code": "laboratory"
              }
            ]
          }
        ],
        "code": {
          "coding": [
            {
              "code": "5802-4",
              "system": "http://loinc.org",
              "display": "Nitrite [Presence] in Urine by Test strip"
            }
          ],
          "text": "Nitrite [Presence] in Urine by Test strip"
        },
        "text": {
          "status": "generated",
          "div": "<div xmlns=\"http://www.w3.org/1999/xhtml\"><table class=\"hl7__eu__lab__report\"><tr><th>Test</th><th>07-May-2016</th><th>Reference&#xA0;Range</th><th>Unit</th></tr><tr><td>Nitrite [Presence] in Urine by Test strip</td></tr></table></div>"
        },
        "status": "final",
        "subject": {
          "reference": "urn:uuid:2eae8a70-f122-4cbe-b01d-2120714ffd38",
          "display": "Iva Kratochvílová"
        },
        "effectiveDateTime": "2016-05-07T16:57:53Z",
        "specimen": {
          "reference": "urn:uuid:961c1c1f-f4a3-4374-8f80-1faa9d68027d"
        }
      }
    },
    {
      "fullUrl": "urn:uuid:fa9ba3f3-aacb-4f55-afb8-cedda6e0031b",
      "resource": {
        "resourceType": "Observation",
        "id": "fa9ba3f3-aacb-4f55-afb8-cedda6e0031b",
        "meta": {
          "profile": [
            "http://hl7.eu/fhir/laboratory/StructureDefinition/Observation-resultslab-eu-lab"
          ]
        },
        "performer": [
          {
            "display": "The Central European Lab"
          }
        ],
        "category": [
          {
            "coding": [
              {
                "system": "http://terminology.hl7.org/CodeSystem/observation-category",
                "code": "laboratory"
              }
            ]
          }
        ],
        "code": {
          "coding": [
            {
              "code": "5794-3",
              "system": "http://loinc.org",
              "display": "Hemoglobin [Presence] in Urine by Test strip"
            }
          ],
          "text": "Hemoglobin [Presence] in Urine by Test strip"
        },
        "text": {
          "status": "generated",
          "div": "<div xmlns=\"http://www.w3.org/1999/xhtml\"><table class=\"hl7__eu__lab__report\"><tr><th>Test</th><th>07-May-2016</th><th>Reference&#xA0;Range</th><th>Unit</th></tr><tr><td>Hemoglobin [Presence] in Urine by Test strip</td></tr></table></div>"
        },
        "status": "final",
        "subject": {
          "reference": "urn:uuid:2eae8a70-f122-4cbe-b01d-2120714ffd38",
          "display": "Iva Kratochvílová"
        },
        "effectiveDateTime": "2016-05-07T16:57:53Z",
        "specimen": {
          "reference": "urn:uuid:961c1c1f-f4a3-4374-8f80-1faa9d68027d"
        }
      }
    },
    {
      "fullUrl": "urn:uuid:72242957-8e76-4cea-be3d-4f518c04fca9",
      "resource": {
        "resourceType": "Observation",
        "id": "72242957-8e76-4cea-be3d-4f518c04fca9",
        "meta": {
          "profile": [
            "http://hl7.eu/fhir/laboratory/StructureDefinition/Observation-resultslab-eu-lab"
          ]
        },
        "performer": [
          {
            "display": "The Central European Lab"
          }
        ],
        "category": [
          {
            "coding": [
              {
                "system": "http://terminology.hl7.org/CodeSystem/observation-category",
                "code": "laboratory"
              }
            ]
          }
        ],
        "code": {
          "coding": [
            {
              "code": "5799-2",
              "system": "http://loinc.org",
              "display": "Leukocyte esterase [Presence] in Urine by Test strip"
            }
          ],
          "text": "Leukocyte esterase [Presence] in Urine by Test strip"
        },
        "text": {
          "status": "generated",
          "div": "<div xmlns=\"http://www.w3.org/1999/xhtml\"><table class=\"hl7__eu__lab__report\"><tr><th>Test</th><th>07-May-2016</th><th>Reference&#xA0;Range</th><th>Unit</th></tr><tr><td>Leukocyte esterase [Presence] in Urine by Test strip</td></tr></table></div>"
        },
        "status": "final",
        "subject": {
          "reference": "urn:uuid:2eae8a70-f122-4cbe-b01d-2120714ffd38",
          "display": "Iva Kratochvílová"
        },
        "effectiveDateTime": "2016-05-07T16:57:53Z",
        "specimen": {
          "reference": "urn:uuid:961c1c1f-f4a3-4374-8f80-1faa9d68027d"
        }
      }
    },
    {
      "fullUrl": "urn:uuid:863a4f7c-0d6c-4c37-b0ce-799b413bfa29",
      "resource": {
        "resourceType": "Device",
        "id": "863a4f7c-0d6c-4c37-b0ce-799b413bfa29",
        "deviceName": [
          {
            "name": "SYNDERAI Synthetic Generator",
            "type": "manufacturer-name"
          }
        ],
        "version": [
          {
            "value": "5.0"
          }
        ],
        "text": {
          "status": "generated",
          "div": "<div xmlns=\"http://www.w3.org/1999/xhtml\">SYNDERAI Synthetic Generator v5.0</div>"
        },
        "status": "active\"",
        "distinctIdentifier": "synderai-generator-50",
        "manufacturer": "SYNDERAI Project"
      }
    },
    {
      "fullUrl": "urn:uuid:f9de1470-d7f5-4b4a-842a-99d7df616425",
      "resource": {
        "resourceType": "Provenance",
        "id": "f9de1470-d7f5-4b4a-842a-99d7df616425",
        "target": [
          {
            "reference": "Patient/2eae8a70-f122-4cbe-b01d-2120714ffd38"
          },
          {
            "reference": "Bundle/b2e3adb2-1277-49c6-a9d6-f67507c670e9"
          },
          {
            "reference": "Composition/bdd1549c-6ede-4b6e-a138-3d5b11e342cc"
          },
          {
            "reference": "PractitionerRole/51b06bf2-7c0a-4564-ad12-6b14c97f2577"
          },
          {
            "reference": "Practitioner/523a79b1-cf06-474c-b6be-d1f7ae57d052"
          },
          {
            "reference": "PractitionerRole/66a6a024-fbec-4fbb-a3bb-3d0516aad06d"
          },
          {
            "reference": "Organization/47a7868f-581e-4248-98a8-1a50162362f2"
          }
        ],
        "activity": {
          "text": "Synthetic Example Data Generation"
        },
        "policy": [
          "https://synderai.net/synderai-synthetic-data-policy"
        ],
        "agent": [
          {
            "type": {
              "text": "author"
            },
            "who": {
              "reference": "Device/863a4f7c-0d6c-4c37-b0ce-799b413bfa29"
            }
          }
        ],
        "reason": [
          {
            "text": "Interoperability Testing and Training (non-clinical use)"
          }
        ],
        "text": {
          "status": "generated",
          "div": "<div xmlns=\"http://www.w3.org/1999/xhtml\">Provenance for SYNDERAI Synthetic Example Data Resource</div>"
        },
        "recorded": "2016-05-07T18:57:53Z"
      }
    },
    {
      "fullUrl": "urn:uuid:51b06bf2-7c0a-4564-ad12-6b14c97f2577",
      "resource": {
        "resourceType": "PractitionerRole",
        "id": "51b06bf2-7c0a-4564-ad12-6b14c97f2577",
        "meta": {
          "profile": [
            "http://hl7.eu/fhir/base/StructureDefinition/practitionerRole-eu"
          ]
        },
        "text": {
          "status": "generated",
          "div": "<div xmlns=\"http://www.w3.org/1999/xhtml\">Laboratory Role Id: 51b06bf2-7c0a-4564-ad12-6b14c97f2577</div>"
        },
        "practitioner": {
          "reference": "urn:uuid:523a79b1-cf06-474c-b6be-d1f7ae57d052"
        }
      }
    },
    {
      "fullUrl": "urn:uuid:523a79b1-cf06-474c-b6be-d1f7ae57d052",
      "resource": {
        "resourceType": "Practitioner",
        "id": "523a79b1-cf06-474c-b6be-d1f7ae57d052",
        "meta": {
          "profile": [
            "http://hl7.eu/fhir/base/StructureDefinition/practitioner-eu"
          ]
        },
        "identifier": [
          {
            "assigner": {
              "display": "HL7 Europe"
            },
            "system": "urn:oid:2.16.840.1.113883.2.51.999",
            "value": "7a3dc197-4a6e-4c41-a8d9-2916cf0dd717"
          }
        ],
        "name": [
          {
            "prefix": [
              "dr"
            ],
            "given": [
              "Ex"
            ],
            "family": "Ample"
          }
        ],
        "address": [
          {
            "line": [
              "Laboratoire Central Européenne",
              "Boulevard du Jardin Botanique 32"
            ],
            "postalCode": "1000",
            "city": "Brussels",
            "country": "Belgium"
          }
        ],
        "text": {
          "status": "generated",
          "div": "<div xmlns=\"http://www.w3.org/1999/xhtml\">Laboratory: Laboratoire Central Européenne, 1000 Brussels, Belgium</div>"
        }
      }
    }
  ],
  "type": "document",
  "timestamp": "2016-05-07T18:57:53Z"
}
