{
  "resourceType": "Bundle",
  "id": "1442d49b-71cc-4497-b604-f2dc345833d4",
  "meta": {
    "profile": [
      "http://hl7.eu/fhir/laboratory/StructureDefinition/Bundle-eu-lab"
    ]
  },
  "identifier": {
    "assigner": {
      "display": "HL7 Europe"
    },
    "system": "urn:oid:2.16.840.1.113883.2.51.999",
    "value": "eedb5ad3-27d1-4777-b463-0f30a49bc5d4"
  },
  "entry": [
    {
      "fullUrl": "urn:uuid:a3f7e868-870c-4114-a0aa-d04b822cd2d9",
      "resource": {
        "resourceType": "Composition",
        "id": "a3f7e868-870c-4114-a0aa-d04b822cd2d9",
        "meta": {
          "profile": [
            "http://hl7.eu/fhir/laboratory/StructureDefinition/Composition-eu-lab"
          ]
        },
        "identifier": {
          "assigner": {
            "display": "HL7 Europe"
          },
          "system": "urn:oid:2.16.840.1.113883.2.51.999",
          "value": "f1041d8f-e305-4d1e-9d2c-c18b2a3128eb"
        },
        "author": [
          {
            "reference": "urn:uuid:66a50115-f8e0-45d3-819b-39fd8c76fa50"
          }
        ],
        "category": [
          {
            "coding": [
              {
                "code": "26436-6",
                "system": "http://loinc.org",
                "display": "Laboratory studies (set)"
              }
            ]
          }
        ],
        "type": {
          "coding": [
            {
              "code": "11502-2",
              "system": "http://loinc.org",
              "display": "Laboratory report"
            }
          ],
          "text": "Laboratory Report"
        },
        "section": [
          {
            "code": {
              "coding": [
                {
                  "code": "26436-6",
                  "system": "http://loinc.org",
                  "display": "Laboratory studies (set)"
                }
              ],
              "text": "Laboratory studies"
            },
            "section": [
              {
                "code": {
                  "coding": [
                    {
                      "code": "$18723-7",
                      "system": "http://loinc.org",
                      "display": "Hematology studies (set)"
                    }
                  ],
                  "text": "Hematology"
                },
                "entry": [
                  {
                    "reference": "urn:uuid:b7388206-2fc1-48d8-8746-841016c1067f"
                  },
                  {
                    "reference": "urn:uuid:9a15f40e-ac2f-4c2d-bdbd-7bfd607e502c"
                  },
                  {
                    "reference": "urn:uuid:3ad54754-20d7-4eee-96eb-d5eeeb2cc28d"
                  },
                  {
                    "reference": "urn:uuid:28ccdd11-22e4-4063-b806-4b42b9321088"
                  },
                  {
                    "reference": "urn:uuid:abab080d-fde0-40fe-a196-cc274d1cecfb"
                  },
                  {
                    "reference": "urn:uuid:8179aee3-4f99-4926-9841-ecdbf09ee32a"
                  },
                  {
                    "reference": "urn:uuid:cf84460b-f402-4bc4-8ff6-a0a353aac7b6"
                  },
                  {
                    "reference": "urn:uuid:f1e6ab9b-3c24-474d-af4c-be0ffca67eb6"
                  },
                  {
                    "reference": "urn:uuid:6ecfa4a2-65a0-4f9d-948c-5e2978c8d10c"
                  },
                  {
                    "reference": "urn:uuid:0f4ba47f-a37e-42a3-be44-d346dbb41195"
                  },
                  {
                    "reference": "urn:uuid:ee7b7917-5efb-4ab4-acef-be2e581725da"
                  }
                ],
                "text": {
                  "status": "generated",
                  "div": "<div xmlns=\"http://www.w3.org/1999/xhtml\"><h3>Hematology</h3><table class=\"hl7__eu__lab__report\"><thead><tr><th>Test</th><th>16-FEB-2025</th><th>Reference&#xA0;Range</th><th>Unit</th></tr></thead><tbody><tr><td>Leukocytes [#/volume] in Blood by Automated count</td><td>5.3</td><td>3.4 - 10.5</td><td>10*3/uL</td></tr><tr><td>Erythrocytes [#/volume] in Blood by Automated count</td><td>5.5</td><td>4.2 - 5.8</td><td>10*6/uL</td></tr><tr><td>Hemoglobin [Mass/volume] in Blood</td><td>15.9</td><td>12 - 16</td><td>g/dL</td></tr><tr><td>Hematocrit [Volume Fraction] of Blood by Automated count</td><td><strong>35.8 L</strong></td><td>36 - 48</td><td>%</td></tr><tr><td>MCV [Entitic volume] by Automated count</td><td>84.6</td><td>82 - 98</td><td>fL</td></tr><tr><td>MCH [Entitic mass] by Automated count</td><td>27.7</td><td>27 - 33</td><td>pg</td></tr><tr><td>MCHC [Mass/volume] by Automated count</td><td>33.7</td><td>31.5 - 36</td><td>g/dL</td></tr><tr><td>Erythrocyte distribution width [Entitic volume] by Automated count</td><td>39.0</td><td>36 - 55</td><td>fL</td></tr><tr><td>Platelets [#/volume] in Blood by Automated count</td><td>191.8</td><td>150 - 400</td><td>10*3/uL</td></tr><tr><td>Platelet distribution width [Entitic volume] in Blood by Automated count</td><td><strong>162.7 H</strong></td><td>11.6 - 17.4</td><td>fL</td></tr><tr><td>Platelet mean volume [Entitic volume] in Blood by Automated count</td><td><strong>12.2 H</strong></td><td>7.4 - 12</td><td>fL</td></tr></tbody></table></div>"
                },
                "title": "Hematology"
              }
            ],
            "title": "Laboratory Report"
          },
          {
            "text": {
              "status": "generated",
              "div": "<div xmlns=\"http://www.w3.org/1999/xhtml\"><h3>Annotation</h3><table class=\"hl7__eu__lab__report\"><tr><th>Conclusion and Recommendations based on this report and previous findings known to us</th></tr><tr><td>All blood counts are within or near normal limits except for a slightly decreased hematocrit and mildly elevated platelet mean volume and distribution width. These findings may indicate mild hemoconcentration or early changes in platelet production or activation, but there is no evidence of significant anemia, infection, or thrombocytopenia. Clinical correlation is recommended.</td></tr></table></div>"
            },
            "code": {
              "coding": [
                {
                  "system": "http://loinc.org",
                  "code": "48767-8",
                  "display": "Annotation comment"
                }
              ]
            },
            "title": "Annotation comment"
          }
        ],
        "status": "final",
        "subject": {
          "reference": "urn:uuid:d3ad68cb-7d63-4f1f-92a1-9422958773b3",
          "display": "Gülsen Dörschner"
        },
        "date": "2025-02-16T22:09:08Z",
        "title": "Laboratory Report",
        "confidentiality": "N"
      }
    },
    {
      "fullUrl": "urn:uuid:56e9a231-4431-40aa-af6d-7708ccdf270f",
      "resource": {
        "resourceType": "DiagnosticReport",
        "id": "56e9a231-4431-40aa-af6d-7708ccdf270f",
        "meta": {
          "profile": [
            "http://hl7.eu/fhir/laboratory/StructureDefinition/DiagnosticReport-eu-lab"
          ]
        },
        "identifier": [
          {
            "assigner": {
              "display": "HL7 Europe"
            },
            "system": "urn:oid:2.16.840.1.113883.2.51.999",
            "value": "f05765cc-afa2-4e71-837c-8c31d2e04a60"
          }
        ],
        "extension": [
          {
            "url": "http://hl7.org/fhir/5.0/StructureDefinition/extension-DiagnosticReport.composition",
            "valueReference": {
              "reference": "urn:uuid:f1041d8f-e305-4d1e-9d2c-c18b2a3128eb"
            }
          }
        ],
        "category": [
          {
            "coding": [
              {
                "code": "26436-6",
                "system": "http://loinc.org",
                "display": "Laboratory studies (set)"
              }
            ]
          }
        ],
        "specimen": [
          {
            "reference": "urn:uuid:5c6e179b-847a-4cd8-a5d8-a6144f2ba790"
          },
          {
            "reference": "urn:uuid:5c6e179b-847a-4cd8-a5d8-a6144f2ba790"
          }
        ],
        "result": [
          {
            "reference": "urn:uuid:b7388206-2fc1-48d8-8746-841016c1067f"
          },
          {
            "reference": "urn:uuid:9a15f40e-ac2f-4c2d-bdbd-7bfd607e502c"
          },
          {
            "reference": "urn:uuid:3ad54754-20d7-4eee-96eb-d5eeeb2cc28d"
          },
          {
            "reference": "urn:uuid:28ccdd11-22e4-4063-b806-4b42b9321088"
          },
          {
            "reference": "urn:uuid:abab080d-fde0-40fe-a196-cc274d1cecfb"
          },
          {
            "reference": "urn:uuid:8179aee3-4f99-4926-9841-ecdbf09ee32a"
          },
          {
            "reference": "urn:uuid:cf84460b-f402-4bc4-8ff6-a0a353aac7b6"
          },
          {
            "reference": "urn:uuid:f1e6ab9b-3c24-474d-af4c-be0ffca67eb6"
          },
          {
            "reference": "urn:uuid:6ecfa4a2-65a0-4f9d-948c-5e2978c8d10c"
          },
          {
            "reference": "urn:uuid:0f4ba47f-a37e-42a3-be44-d346dbb41195"
          },
          {
            "reference": "urn:uuid:ee7b7917-5efb-4ab4-acef-be2e581725da"
          }
        ],
        "status": "registered",
        "code": {
          "coding": [
            {
              "code": "11502-2",
              "system": "http://loinc.org",
              "display": "Laboratory report"
            }
          ]
        },
        "subject": {
          "reference": "urn:uuid:d3ad68cb-7d63-4f1f-92a1-9422958773b3",
          "display": "Gülsen Dörschner"
        }
      }
    },
    {
      "fullUrl": "urn:uuid:d3ad68cb-7d63-4f1f-92a1-9422958773b3",
      "resource": {
        "resourceType": "Patient",
        "id": "d3ad68cb-7d63-4f1f-92a1-9422958773b3",
        "meta": {
          "security": [
            {
              "system": "http://terminology.hl7.org/CodeSystem/v3-ActReason",
              "code": "HTEST"
            },
            {
              "system": "http://terminology.hl7.org/CodeSystem/v3-ActReason",
              "code": "TRAIN"
            }
          ],
          "tag": [
            {
              "system": "https://synderai.net/fhir/CodeSystem/tags",
              "code": "synthetic",
              "display": "SYNDERAI Synthetic data"
            }
          ],
          "profile": [
            "http://hl7.eu/fhir/base/StructureDefinition/patient-eu-core"
          ]
        },
        "identifier": [
          {
            "type": {
              "coding": [
                {
                  "code": "PT",
                  "system": "http://terminology.hl7.org/CodeSystem/v2-0203"
                }
              ]
            },
            "system": "http://ec.europa.eu/identifier/eci",
            "value": "3549-346619-3"
          },
          {
            "type": {
              "coding": [
                {
                  "code": "MR",
                  "system": "http://terminology.hl7.org/CodeSystem/v2-0203"
                }
              ]
            },
            "system": "http://local.setting.eu/identifier",
            "value": "bcd9933a-4b4f-f81c-ee50-85330dd204e6"
          }
        ],
        "name": [
          {
            "family": "Dörschner"
          },
          {
            "given": [
              "Gülsen"
            ]
          },
          {
            "text": "Gülsen Dörschner"
          }
        ],
        "address": [
          {
            "line": [
              "Patbergplatz 571"
            ],
            "use": "home",
            "type": "physical",
            "postalCode": "56068",
            "city": "Koblenz",
            "country": "Germany"
          }
        ],
        "telecom": [
          {
            "system": "phone",
            "value": "(05189) 62305"
          }
        ],
        "extension": [
          {
            "url": "http://hl7.org/fhir/StructureDefinition/patient-nationality",
            "valueCodeableConcept": {
              "coding": [
                {
                  "code": "DE",
                  "system": "http://hl7.org/fhir/ValueSet/country"
                }
              ]
            }
          }
        ],
        "text": {
          "status": "generated",
          "div": "<div xmlns=\"http://www.w3.org/1999/xhtml\"><table class=\"hl7__ips\"><tr><td>Gülsen Dörschner</td><td>female</td><td>30-Jul-1970</td></tr></table></div>"
        },
        "gender": "female",
        "birthDate": "1970-07-30"
      }
    },
    {
      "fullUrl": "urn:uuid:cd858a2e-a45e-46a4-9753-aeb5d036b747",
      "resource": {
        "resourceType": "ServiceRequest",
        "id": "cd858a2e-a45e-46a4-9753-aeb5d036b747",
        "meta": {
          "profile": [
            "http://hl7.eu/fhir/laboratory/StructureDefinition/ServiceRequest-eu-lab"
          ]
        },
        "identifier": [
          {
            "system": "http://example.org",
            "value": "a1b1a0f6-b8c9-47f9-9050-7d50476cb3fc"
          }
        ],
        "specimen": [
          {
            "reference": "urn:uuid:5c6e179b-847a-4cd8-a5d8-a6144f2ba790"
          }
        ],
        "reasonCode": [
          {
            "coding": [
              {
                "code": "239873007",
                "system": "http://snomed.info/sct",
                "display": "Osteoarthritis of knee"
              }
            ]
          },
          {
            "coding": [
              {
                "code": "87433001",
                "system": "http://snomed.info/sct",
                "display": "Pulmonary emphysema"
              }
            ]
          },
          {
            "coding": [
              {
                "code": "271737000",
                "system": "http://snomed.info/sct",
                "display": "Anemia"
              }
            ]
          },
          {
            "coding": [
              {
                "code": "59621000",
                "system": "http://snomed.info/sct",
                "display": "Essential hypertension"
              }
            ]
          }
        ],
        "status": "active",
        "intent": "order",
        "code": {
          "coding": [
            {
              "code": "108252007",
              "system": "http://snomed.info/sct",
              "display": "Laboratory procedure"
            }
          ]
        },
        "subject": {
          "reference": "urn:uuid:d3ad68cb-7d63-4f1f-92a1-9422958773b3",
          "display": "Gülsen Dörschner"
        },
        "requester": {
          "reference": "urn:uuid:026397c7-12d7-4b5a-9c16-4c140a310091"
        }
      }
    },
    {
      "fullUrl": "urn:uuid:026397c7-12d7-4b5a-9c16-4c140a310091",
      "resource": {
        "resourceType": "PractitionerRole",
        "id": "026397c7-12d7-4b5a-9c16-4c140a310091",
        "meta": {
          "profile": [
            "http://hl7.eu/fhir/base/StructureDefinition/practitionerRole-eu"
          ]
        },
        "text": {
          "status": "generated",
          "div": "<div xmlns=\"http://www.w3.org/1999/xhtml\">Provider Role Id: 026397c7-12d7-4b5a-9c16-4c140a310091</div>"
        },
        "organization": {
          "reference": "urn:uuid:f7cae87b-6197-414e-84e5-ba7722a438b6"
        }
      }
    },
    {
      "fullUrl": "urn:uuid:f7cae87b-6197-414e-84e5-ba7722a438b6",
      "resource": {
        "resourceType": "Organization",
        "id": "f7cae87b-6197-414e-84e5-ba7722a438b6",
        "meta": {
          "profile": [
            "http://hl7.eu/fhir/base/StructureDefinition/organization-eu"
          ]
        },
        "identifier": [
          {
            "assigner": {
              "display": "HL7 Europe"
            },
            "system": "urn:oid:2.16.840.1.113883.2.51.999",
            "value": "2b227139-3ec2-4da2-ada9-1c2a6710734e"
          }
        ],
        "address": [
          {
            "line": [
              "Kardinal-Krementz-Straße 1-5"
            ],
            "city": "Koblenz",
            "postalCode": "56068",
            "country": "Germany"
          }
        ],
        "text": {
          "status": "generated",
          "div": "<div xmlns=\"http://www.w3.org/1999/xhtml\">Provider Organization: Brüderhaus Koblenz</div>"
        },
        "name": "Brüderhaus Koblenz"
      }
    },
    {
      "fullUrl": "urn:uuid:5c6e179b-847a-4cd8-a5d8-a6144f2ba790",
      "resource": {
        "resourceType": "Specimen",
        "id": "5c6e179b-847a-4cd8-a5d8-a6144f2ba790",
        "meta": {
          "profile": [
            "http://hl7.eu/fhir/laboratory/StructureDefinition/Specimen-eu-lab"
          ]
        },
        "collection": {
          "collectedDateTime": "2025-02-16"
        },
        "text": {
          "status": "generated",
          "div": "<div xmlns=\"http://www.w3.org/1999/xhtml\"><table class=\"hl7__eu__lab__report\"><tr><th>Specimen</th><th>Collection Date</th></tr><tr><td>Whole blood specimen (specimen)</td><td><span class=\"nb\">16-Feb-2025</span></td></tr></table></div>"
        },
        "type": {
          "coding": [
            {
              "code": "258580003",
              "system": "http://snomed.info/sct",
              "display": "Whole blood specimen (specimen)"
            }
          ]
        }
      }
    },
    {
      "fullUrl": "urn:uuid:5c6e179b-847a-4cd8-a5d8-a6144f2ba790",
      "resource": {
        "resourceType": "Specimen",
        "id": "5c6e179b-847a-4cd8-a5d8-a6144f2ba790",
        "meta": {
          "profile": [
            "http://hl7.eu/fhir/laboratory/StructureDefinition/Specimen-eu-lab"
          ]
        },
        "collection": {
          "collectedDateTime": "2025-02-16"
        },
        "text": {
          "status": "generated",
          "div": "<div xmlns=\"http://www.w3.org/1999/xhtml\"><table class=\"hl7__eu__lab__report\"><tr><th>Specimen</th><th>Collection Date</th></tr><tr><td>Whole blood specimen (specimen)</td><td><span class=\"nb\">16-Feb-2025</span></td></tr></table></div>"
        },
        "type": {
          "coding": [
            {
              "code": "258580003",
              "system": "http://snomed.info/sct",
              "display": "Whole blood specimen (specimen)"
            }
          ]
        }
      }
    },
    {
      "fullUrl": "urn:uuid:b7388206-2fc1-48d8-8746-841016c1067f",
      "resource": {
        "resourceType": "Observation",
        "id": "b7388206-2fc1-48d8-8746-841016c1067f",
        "meta": {
          "profile": [
            "http://hl7.eu/fhir/laboratory/StructureDefinition/Observation-resultslab-eu-lab"
          ]
        },
        "performer": [
          {
            "display": "The Central European Lab"
          }
        ],
        "category": [
          {
            "coding": [
              {
                "system": "http://terminology.hl7.org/CodeSystem/observation-category",
                "code": "laboratory"
              }
            ]
          }
        ],
        "code": {
          "coding": [
            {
              "code": "6690-2",
              "system": "http://loinc.org",
              "display": "Leukocytes [#/volume] in Blood by Automated count"
            }
          ],
          "text": "Leukocytes [#/volume] in Blood by Automated count"
        },
        "valueQuantity": {
          "system": "http://unitsofmeasure.org",
          "value": 5.3,
          "unit": "10*3/uL",
          "code": "10*3/uL"
        },
        "referenceRange": [
          {
            "low": {
              "value": 3.4,
              "code": "10*3/uL",
              "system": "http://unitsofmeasure.org"
            }
          },
          {
            "high": {
              "value": 10.5,
              "code": "10*3/uL",
              "system": "http://unitsofmeasure.org"
            }
          }
        ],
        "text": {
          "status": "generated",
          "div": "<div xmlns=\"http://www.w3.org/1999/xhtml\"><table class=\"hl7__eu__lab__report\"><tr><th>Test</th><th>16-Feb-2025</th><th>Reference&#xA0;Range</th><th>Unit</th></tr><tr><td>Leukocytes [#/volume] in Blood by Automated count</td><td>5.3</td><td>3.4 - 10.5</td><td></td><td>10*3/uL</td></tr></table></div>"
        },
        "status": "final",
        "subject": {
          "reference": "urn:uuid:d3ad68cb-7d63-4f1f-92a1-9422958773b3",
          "display": "Gülsen Dörschner"
        },
        "effectiveDateTime": "2025-02-16T21:09:08Z",
        "specimen": {
          "reference": "urn:uuid:5c6e179b-847a-4cd8-a5d8-a6144f2ba790"
        }
      }
    },
    {
      "fullUrl": "urn:uuid:9a15f40e-ac2f-4c2d-bdbd-7bfd607e502c",
      "resource": {
        "resourceType": "Observation",
        "id": "9a15f40e-ac2f-4c2d-bdbd-7bfd607e502c",
        "meta": {
          "profile": [
            "http://hl7.eu/fhir/laboratory/StructureDefinition/Observation-resultslab-eu-lab"
          ]
        },
        "performer": [
          {
            "display": "The Central European Lab"
          }
        ],
        "category": [
          {
            "coding": [
              {
                "system": "http://terminology.hl7.org/CodeSystem/observation-category",
                "code": "laboratory"
              }
            ]
          }
        ],
        "code": {
          "coding": [
            {
              "code": "789-8",
              "system": "http://loinc.org",
              "display": "Erythrocytes [#/volume] in Blood by Automated count"
            }
          ],
          "text": "Erythrocytes [#/volume] in Blood by Automated count"
        },
        "valueQuantity": {
          "system": "http://unitsofmeasure.org",
          "value": 5.5,
          "unit": "10*6/uL",
          "code": "10*6/uL"
        },
        "referenceRange": [
          {
            "low": {
              "value": 4.2,
              "code": "10*6/uL",
              "system": "http://unitsofmeasure.org"
            }
          },
          {
            "high": {
              "value": 5.8,
              "code": "10*6/uL",
              "system": "http://unitsofmeasure.org"
            }
          }
        ],
        "text": {
          "status": "generated",
          "div": "<div xmlns=\"http://www.w3.org/1999/xhtml\"><table class=\"hl7__eu__lab__report\"><tr><th>Test</th><th>16-Feb-2025</th><th>Reference&#xA0;Range</th><th>Unit</th></tr><tr><td>Erythrocytes [#/volume] in Blood by Automated count</td><td>5.5</td><td>4.2 - 5.8</td><td></td><td>10*6/uL</td></tr></table></div>"
        },
        "status": "final",
        "subject": {
          "reference": "urn:uuid:d3ad68cb-7d63-4f1f-92a1-9422958773b3",
          "display": "Gülsen Dörschner"
        },
        "effectiveDateTime": "2025-02-16T21:09:08Z",
        "specimen": {
          "reference": "urn:uuid:5c6e179b-847a-4cd8-a5d8-a6144f2ba790"
        }
      }
    },
    {
      "fullUrl": "urn:uuid:3ad54754-20d7-4eee-96eb-d5eeeb2cc28d",
      "resource": {
        "resourceType": "Observation",
        "id": "3ad54754-20d7-4eee-96eb-d5eeeb2cc28d",
        "meta": {
          "profile": [
            "http://hl7.eu/fhir/laboratory/StructureDefinition/Observation-resultslab-eu-lab"
          ]
        },
        "performer": [
          {
            "display": "The Central European Lab"
          }
        ],
        "category": [
          {
            "coding": [
              {
                "system": "http://terminology.hl7.org/CodeSystem/observation-category",
                "code": "laboratory"
              }
            ]
          }
        ],
        "code": {
          "coding": [
            {
              "code": "718-7",
              "system": "http://loinc.org",
              "display": "Hemoglobin [Mass/volume] in Blood"
            }
          ],
          "text": "Hemoglobin [Mass/volume] in Blood"
        },
        "valueQuantity": {
          "system": "http://unitsofmeasure.org",
          "value": 15.9,
          "unit": "g/dL",
          "code": "g/dL"
        },
        "referenceRange": [
          {
            "low": {
              "value": 12,
              "code": "g/dL",
              "system": "http://unitsofmeasure.org"
            }
          },
          {
            "high": {
              "value": 16,
              "code": "g/dL",
              "system": "http://unitsofmeasure.org"
            }
          }
        ],
        "text": {
          "status": "generated",
          "div": "<div xmlns=\"http://www.w3.org/1999/xhtml\"><table class=\"hl7__eu__lab__report\"><tr><th>Test</th><th>16-Feb-2025</th><th>Reference&#xA0;Range</th><th>Unit</th></tr><tr><td>Hemoglobin [Mass/volume] in Blood</td><td>15.9</td><td>12 - 16</td><td></td><td>g/dL</td></tr></table></div>"
        },
        "status": "final",
        "subject": {
          "reference": "urn:uuid:d3ad68cb-7d63-4f1f-92a1-9422958773b3",
          "display": "Gülsen Dörschner"
        },
        "effectiveDateTime": "2025-02-16T21:09:08Z",
        "specimen": {
          "reference": "urn:uuid:5c6e179b-847a-4cd8-a5d8-a6144f2ba790"
        }
      }
    },
    {
      "fullUrl": "urn:uuid:28ccdd11-22e4-4063-b806-4b42b9321088",
      "resource": {
        "resourceType": "Observation",
        "id": "28ccdd11-22e4-4063-b806-4b42b9321088",
        "meta": {
          "profile": [
            "http://hl7.eu/fhir/laboratory/StructureDefinition/Observation-resultslab-eu-lab"
          ]
        },
        "performer": [
          {
            "display": "The Central European Lab"
          }
        ],
        "category": [
          {
            "coding": [
              {
                "system": "http://terminology.hl7.org/CodeSystem/observation-category",
                "code": "laboratory"
              }
            ]
          }
        ],
        "code": {
          "coding": [
            {
              "code": "4544-3",
              "system": "http://loinc.org",
              "display": "Hematocrit [Volume Fraction] of Blood by Automated count"
            }
          ],
          "text": "Hematocrit [Volume Fraction] of Blood by Automated count"
        },
        "valueQuantity": {
          "system": "http://unitsofmeasure.org",
          "value": 35.8,
          "unit": "%",
          "code": "%"
        },
        "referenceRange": [
          {
            "low": {
              "value": 36,
              "code": "%",
              "system": "http://unitsofmeasure.org"
            }
          },
          {
            "high": {
              "value": 48,
              "code": "%",
              "system": "http://unitsofmeasure.org"
            }
          }
        ],
        "interpretation": [
          {
            "coding": [
              {
                "code": "L",
                "system": "http://terminology.hl7.org/CodeSystem/v3-ObservationInterpretation",
                "display": "Low"
              }
            ]
          }
        ],
        "text": {
          "status": "generated",
          "div": "<div xmlns=\"http://www.w3.org/1999/xhtml\"><table class=\"hl7__eu__lab__report\"><tr><th>Test</th><th>16-Feb-2025</th><th>Reference&#xA0;Range</th><th>Unit</th></tr><tr><td>Hematocrit [Volume Fraction] of Blood by Automated count</td><td>35.8</td><td>36 - 48</td><td>L</td><td>%</td></tr></table></div>"
        },
        "status": "final",
        "subject": {
          "reference": "urn:uuid:d3ad68cb-7d63-4f1f-92a1-9422958773b3",
          "display": "Gülsen Dörschner"
        },
        "effectiveDateTime": "2025-02-16T21:09:08Z",
        "specimen": {
          "reference": "urn:uuid:5c6e179b-847a-4cd8-a5d8-a6144f2ba790"
        }
      }
    },
    {
      "fullUrl": "urn:uuid:abab080d-fde0-40fe-a196-cc274d1cecfb",
      "resource": {
        "resourceType": "Observation",
        "id": "abab080d-fde0-40fe-a196-cc274d1cecfb",
        "meta": {
          "profile": [
            "http://hl7.eu/fhir/laboratory/StructureDefinition/Observation-resultslab-eu-lab"
          ]
        },
        "performer": [
          {
            "display": "The Central European Lab"
          }
        ],
        "category": [
          {
            "coding": [
              {
                "system": "http://terminology.hl7.org/CodeSystem/observation-category",
                "code": "laboratory"
              }
            ]
          }
        ],
        "code": {
          "coding": [
            {
              "code": "787-2",
              "system": "http://loinc.org",
              "display": "MCV [Entitic volume] by Automated count"
            }
          ],
          "text": "MCV [Entitic volume] by Automated count"
        },
        "valueQuantity": {
          "system": "http://unitsofmeasure.org",
          "value": 84.6,
          "unit": "fL",
          "code": "fL"
        },
        "referenceRange": [
          {
            "low": {
              "value": 82,
              "code": "fL",
              "system": "http://unitsofmeasure.org"
            }
          },
          {
            "high": {
              "value": 98,
              "code": "fL",
              "system": "http://unitsofmeasure.org"
            }
          }
        ],
        "text": {
          "status": "generated",
          "div": "<div xmlns=\"http://www.w3.org/1999/xhtml\"><table class=\"hl7__eu__lab__report\"><tr><th>Test</th><th>16-Feb-2025</th><th>Reference&#xA0;Range</th><th>Unit</th></tr><tr><td>MCV [Entitic volume] by Automated count</td><td>84.6</td><td>82 - 98</td><td></td><td>fL</td></tr></table></div>"
        },
        "status": "final",
        "subject": {
          "reference": "urn:uuid:d3ad68cb-7d63-4f1f-92a1-9422958773b3",
          "display": "Gülsen Dörschner"
        },
        "effectiveDateTime": "2025-02-16T21:09:08Z",
        "specimen": {
          "reference": "urn:uuid:5c6e179b-847a-4cd8-a5d8-a6144f2ba790"
        }
      }
    },
    {
      "fullUrl": "urn:uuid:8179aee3-4f99-4926-9841-ecdbf09ee32a",
      "resource": {
        "resourceType": "Observation",
        "id": "8179aee3-4f99-4926-9841-ecdbf09ee32a",
        "meta": {
          "profile": [
            "http://hl7.eu/fhir/laboratory/StructureDefinition/Observation-resultslab-eu-lab"
          ]
        },
        "performer": [
          {
            "display": "The Central European Lab"
          }
        ],
        "category": [
          {
            "coding": [
              {
                "system": "http://terminology.hl7.org/CodeSystem/observation-category",
                "code": "laboratory"
              }
            ]
          }
        ],
        "code": {
          "coding": [
            {
              "code": "785-6",
              "system": "http://loinc.org",
              "display": "MCH [Entitic mass] by Automated count"
            }
          ],
          "text": "MCH [Entitic mass] by Automated count"
        },
        "valueQuantity": {
          "system": "http://unitsofmeasure.org",
          "value": 27.7,
          "unit": "pg",
          "code": "pg"
        },
        "referenceRange": [
          {
            "low": {
              "value": 27,
              "code": "pg",
              "system": "http://unitsofmeasure.org"
            }
          },
          {
            "high": {
              "value": 33,
              "code": "pg",
              "system": "http://unitsofmeasure.org"
            }
          }
        ],
        "text": {
          "status": "generated",
          "div": "<div xmlns=\"http://www.w3.org/1999/xhtml\"><table class=\"hl7__eu__lab__report\"><tr><th>Test</th><th>16-Feb-2025</th><th>Reference&#xA0;Range</th><th>Unit</th></tr><tr><td>MCH [Entitic mass] by Automated count</td><td>27.7</td><td>27 - 33</td><td></td><td>pg</td></tr></table></div>"
        },
        "status": "final",
        "subject": {
          "reference": "urn:uuid:d3ad68cb-7d63-4f1f-92a1-9422958773b3",
          "display": "Gülsen Dörschner"
        },
        "effectiveDateTime": "2025-02-16T21:09:08Z",
        "specimen": {
          "reference": "urn:uuid:5c6e179b-847a-4cd8-a5d8-a6144f2ba790"
        }
      }
    },
    {
      "fullUrl": "urn:uuid:cf84460b-f402-4bc4-8ff6-a0a353aac7b6",
      "resource": {
        "resourceType": "Observation",
        "id": "cf84460b-f402-4bc4-8ff6-a0a353aac7b6",
        "meta": {
          "profile": [
            "http://hl7.eu/fhir/laboratory/StructureDefinition/Observation-resultslab-eu-lab"
          ]
        },
        "performer": [
          {
            "display": "The Central European Lab"
          }
        ],
        "category": [
          {
            "coding": [
              {
                "system": "http://terminology.hl7.org/CodeSystem/observation-category",
                "code": "laboratory"
              }
            ]
          }
        ],
        "code": {
          "coding": [
            {
              "code": "786-4",
              "system": "http://loinc.org",
              "display": "MCHC [Mass/volume] by Automated count"
            }
          ],
          "text": "MCHC [Mass/volume] by Automated count"
        },
        "valueQuantity": {
          "system": "http://unitsofmeasure.org",
          "value": 33.7,
          "unit": "g/dL",
          "code": "g/dL"
        },
        "referenceRange": [
          {
            "low": {
              "value": 31.5,
              "code": "g/dL",
              "system": "http://unitsofmeasure.org"
            }
          },
          {
            "high": {
              "value": 36,
              "code": "g/dL",
              "system": "http://unitsofmeasure.org"
            }
          }
        ],
        "text": {
          "status": "generated",
          "div": "<div xmlns=\"http://www.w3.org/1999/xhtml\"><table class=\"hl7__eu__lab__report\"><tr><th>Test</th><th>16-Feb-2025</th><th>Reference&#xA0;Range</th><th>Unit</th></tr><tr><td>MCHC [Mass/volume] by Automated count</td><td>33.7</td><td>31.5 - 36</td><td></td><td>g/dL</td></tr></table></div>"
        },
        "status": "final",
        "subject": {
          "reference": "urn:uuid:d3ad68cb-7d63-4f1f-92a1-9422958773b3",
          "display": "Gülsen Dörschner"
        },
        "effectiveDateTime": "2025-02-16T21:09:08Z",
        "specimen": {
          "reference": "urn:uuid:5c6e179b-847a-4cd8-a5d8-a6144f2ba790"
        }
      }
    },
    {
      "fullUrl": "urn:uuid:f1e6ab9b-3c24-474d-af4c-be0ffca67eb6",
      "resource": {
        "resourceType": "Observation",
        "id": "f1e6ab9b-3c24-474d-af4c-be0ffca67eb6",
        "meta": {
          "profile": [
            "http://hl7.eu/fhir/laboratory/StructureDefinition/Observation-resultslab-eu-lab"
          ]
        },
        "performer": [
          {
            "display": "The Central European Lab"
          }
        ],
        "category": [
          {
            "coding": [
              {
                "system": "http://terminology.hl7.org/CodeSystem/observation-category",
                "code": "laboratory"
              }
            ]
          }
        ],
        "code": {
          "coding": [
            {
              "code": "21000-5",
              "system": "http://loinc.org",
              "display": "Erythrocyte distribution width [Entitic volume] by Automated count"
            }
          ],
          "text": "Erythrocyte distribution width [Entitic volume] by Automated count"
        },
        "valueQuantity": {
          "system": "http://unitsofmeasure.org",
          "value": 39,
          "unit": "fL",
          "code": "fL"
        },
        "referenceRange": [
          {
            "low": {
              "value": 36,
              "code": "fL",
              "system": "http://unitsofmeasure.org"
            }
          },
          {
            "high": {
              "value": 55,
              "code": "fL",
              "system": "http://unitsofmeasure.org"
            }
          }
        ],
        "text": {
          "status": "generated",
          "div": "<div xmlns=\"http://www.w3.org/1999/xhtml\"><table class=\"hl7__eu__lab__report\"><tr><th>Test</th><th>16-Feb-2025</th><th>Reference&#xA0;Range</th><th>Unit</th></tr><tr><td>Erythrocyte distribution width [Entitic volume] by Automated count</td><td>39.0</td><td>36 - 55</td><td></td><td>fL</td></tr></table></div>"
        },
        "status": "final",
        "subject": {
          "reference": "urn:uuid:d3ad68cb-7d63-4f1f-92a1-9422958773b3",
          "display": "Gülsen Dörschner"
        },
        "effectiveDateTime": "2025-02-16T21:09:08Z",
        "specimen": {
          "reference": "urn:uuid:5c6e179b-847a-4cd8-a5d8-a6144f2ba790"
        }
      }
    },
    {
      "fullUrl": "urn:uuid:6ecfa4a2-65a0-4f9d-948c-5e2978c8d10c",
      "resource": {
        "resourceType": "Observation",
        "id": "6ecfa4a2-65a0-4f9d-948c-5e2978c8d10c",
        "meta": {
          "profile": [
            "http://hl7.eu/fhir/laboratory/StructureDefinition/Observation-resultslab-eu-lab"
          ]
        },
        "performer": [
          {
            "display": "The Central European Lab"
          }
        ],
        "category": [
          {
            "coding": [
              {
                "system": "http://terminology.hl7.org/CodeSystem/observation-category",
                "code": "laboratory"
              }
            ]
          }
        ],
        "code": {
          "coding": [
            {
              "code": "777-3",
              "system": "http://loinc.org",
              "display": "Platelets [#/volume] in Blood by Automated count"
            }
          ],
          "text": "Platelets [#/volume] in Blood by Automated count"
        },
        "valueQuantity": {
          "system": "http://unitsofmeasure.org",
          "value": 191.8,
          "unit": "10*3/uL",
          "code": "10*3/uL"
        },
        "referenceRange": [
          {
            "low": {
              "value": 150,
              "code": "10*3/uL",
              "system": "http://unitsofmeasure.org"
            }
          },
          {
            "high": {
              "value": 400,
              "code": "10*3/uL",
              "system": "http://unitsofmeasure.org"
            }
          }
        ],
        "text": {
          "status": "generated",
          "div": "<div xmlns=\"http://www.w3.org/1999/xhtml\"><table class=\"hl7__eu__lab__report\"><tr><th>Test</th><th>16-Feb-2025</th><th>Reference&#xA0;Range</th><th>Unit</th></tr><tr><td>Platelets [#/volume] in Blood by Automated count</td><td>191.8</td><td>150 - 400</td><td></td><td>10*3/uL</td></tr></table></div>"
        },
        "status": "final",
        "subject": {
          "reference": "urn:uuid:d3ad68cb-7d63-4f1f-92a1-9422958773b3",
          "display": "Gülsen Dörschner"
        },
        "effectiveDateTime": "2025-02-16T21:09:08Z",
        "specimen": {
          "reference": "urn:uuid:5c6e179b-847a-4cd8-a5d8-a6144f2ba790"
        }
      }
    },
    {
      "fullUrl": "urn:uuid:0f4ba47f-a37e-42a3-be44-d346dbb41195",
      "resource": {
        "resourceType": "Observation",
        "id": "0f4ba47f-a37e-42a3-be44-d346dbb41195",
        "meta": {
          "profile": [
            "http://hl7.eu/fhir/laboratory/StructureDefinition/Observation-resultslab-eu-lab"
          ]
        },
        "performer": [
          {
            "display": "The Central European Lab"
          }
        ],
        "category": [
          {
            "coding": [
              {
                "system": "http://terminology.hl7.org/CodeSystem/observation-category",
                "code": "laboratory"
              }
            ]
          }
        ],
        "code": {
          "coding": [
            {
              "code": "32207-3",
              "system": "http://loinc.org",
              "display": "Platelet distribution width [Entitic volume] in Blood by Automated count"
            }
          ],
          "text": "Platelet distribution width [Entitic volume] in Blood by Automated count"
        },
        "valueQuantity": {
          "system": "http://unitsofmeasure.org",
          "value": 162.7,
          "unit": "fL",
          "code": "fL"
        },
        "referenceRange": [
          {
            "low": {
              "value": 11.6,
              "code": "fL",
              "system": "http://unitsofmeasure.org"
            }
          },
          {
            "high": {
              "value": 17.4,
              "code": "fL",
              "system": "http://unitsofmeasure.org"
            }
          }
        ],
        "interpretation": [
          {
            "coding": [
              {
                "code": "H",
                "system": "http://terminology.hl7.org/CodeSystem/v3-ObservationInterpretation",
                "display": "High"
              }
            ]
          }
        ],
        "text": {
          "status": "generated",
          "div": "<div xmlns=\"http://www.w3.org/1999/xhtml\"><table class=\"hl7__eu__lab__report\"><tr><th>Test</th><th>16-Feb-2025</th><th>Reference&#xA0;Range</th><th>Unit</th></tr><tr><td>Platelet distribution width [Entitic volume] in Blood by Automated count</td><td>162.7</td><td>11.6 - 17.4</td><td>H</td><td>fL</td></tr></table></div>"
        },
        "status": "final",
        "subject": {
          "reference": "urn:uuid:d3ad68cb-7d63-4f1f-92a1-9422958773b3",
          "display": "Gülsen Dörschner"
        },
        "effectiveDateTime": "2025-02-16T21:09:08Z",
        "specimen": {
          "reference": "urn:uuid:5c6e179b-847a-4cd8-a5d8-a6144f2ba790"
        }
      }
    },
    {
      "fullUrl": "urn:uuid:ee7b7917-5efb-4ab4-acef-be2e581725da",
      "resource": {
        "resourceType": "Observation",
        "id": "ee7b7917-5efb-4ab4-acef-be2e581725da",
        "meta": {
          "profile": [
            "http://hl7.eu/fhir/laboratory/StructureDefinition/Observation-resultslab-eu-lab"
          ]
        },
        "performer": [
          {
            "display": "The Central European Lab"
          }
        ],
        "category": [
          {
            "coding": [
              {
                "system": "http://terminology.hl7.org/CodeSystem/observation-category",
                "code": "laboratory"
              }
            ]
          }
        ],
        "code": {
          "coding": [
            {
              "code": "32623-1",
              "system": "http://loinc.org",
              "display": "Platelet mean volume [Entitic volume] in Blood by Automated count"
            }
          ],
          "text": "Platelet mean volume [Entitic volume] in Blood by Automated count"
        },
        "valueQuantity": {
          "system": "http://unitsofmeasure.org",
          "value": 12.2,
          "unit": "fL",
          "code": "fL"
        },
        "referenceRange": [
          {
            "low": {
              "value": 7.4,
              "code": "fL",
              "system": "http://unitsofmeasure.org"
            }
          },
          {
            "high": {
              "value": 12,
              "code": "fL",
              "system": "http://unitsofmeasure.org"
            }
          }
        ],
        "interpretation": [
          {
            "coding": [
              {
                "code": "H",
                "system": "http://terminology.hl7.org/CodeSystem/v3-ObservationInterpretation",
                "display": "High"
              }
            ]
          }
        ],
        "text": {
          "status": "generated",
          "div": "<div xmlns=\"http://www.w3.org/1999/xhtml\"><table class=\"hl7__eu__lab__report\"><tr><th>Test</th><th>16-Feb-2025</th><th>Reference&#xA0;Range</th><th>Unit</th></tr><tr><td>Platelet mean volume [Entitic volume] in Blood by Automated count</td><td>12.2</td><td>7.4 - 12</td><td>H</td><td>fL</td></tr></table></div>"
        },
        "status": "final",
        "subject": {
          "reference": "urn:uuid:d3ad68cb-7d63-4f1f-92a1-9422958773b3",
          "display": "Gülsen Dörschner"
        },
        "effectiveDateTime": "2025-02-16T21:09:08Z",
        "specimen": {
          "reference": "urn:uuid:5c6e179b-847a-4cd8-a5d8-a6144f2ba790"
        }
      }
    },
    {
      "fullUrl": "urn:uuid:2d2152a4-9a92-470a-80fe-f4afc5e99670",
      "resource": {
        "resourceType": "Device",
        "id": "2d2152a4-9a92-470a-80fe-f4afc5e99670",
        "deviceName": [
          {
            "name": "SYNDERAI Synthetic Generator",
            "type": "manufacturer-name"
          }
        ],
        "version": [
          {
            "value": "5.0"
          }
        ],
        "text": {
          "status": "generated",
          "div": "<div xmlns=\"http://www.w3.org/1999/xhtml\">SYNDERAI Synthetic Generator v5.0</div>"
        },
        "status": "active\"",
        "distinctIdentifier": "synderai-generator-50",
        "manufacturer": "SYNDERAI Project"
      }
    },
    {
      "fullUrl": "urn:uuid:49480d55-1998-4d08-ba32-147112268afc",
      "resource": {
        "resourceType": "Provenance",
        "id": "49480d55-1998-4d08-ba32-147112268afc",
        "target": [
          {
            "reference": "Patient/d3ad68cb-7d63-4f1f-92a1-9422958773b3"
          },
          {
            "reference": "Bundle/1442d49b-71cc-4497-b604-f2dc345833d4"
          },
          {
            "reference": "Composition/a3f7e868-870c-4114-a0aa-d04b822cd2d9"
          },
          {
            "reference": "PractitionerRole/66a50115-f8e0-45d3-819b-39fd8c76fa50"
          },
          {
            "reference": "Practitioner/4da946f3-4149-41f0-b5d7-7e2a49197f71"
          },
          {
            "reference": "PractitionerRole/026397c7-12d7-4b5a-9c16-4c140a310091"
          },
          {
            "reference": "Organization/f7cae87b-6197-414e-84e5-ba7722a438b6"
          }
        ],
        "activity": {
          "text": "Synthetic Example Data Generation"
        },
        "policy": [
          "https://synderai.net/synderai-synthetic-data-policy"
        ],
        "agent": [
          {
            "type": {
              "text": "author"
            },
            "who": {
              "reference": "Device/2d2152a4-9a92-470a-80fe-f4afc5e99670"
            }
          }
        ],
        "reason": [
          {
            "text": "Interoperability Testing and Training (non-clinical use)"
          }
        ],
        "text": {
          "status": "generated",
          "div": "<div xmlns=\"http://www.w3.org/1999/xhtml\">Provenance for SYNDERAI Synthetic Example Data Resource</div>"
        },
        "recorded": "2025-02-16T22:09:08Z"
      }
    },
    {
      "fullUrl": "urn:uuid:66a50115-f8e0-45d3-819b-39fd8c76fa50",
      "resource": {
        "resourceType": "PractitionerRole",
        "id": "66a50115-f8e0-45d3-819b-39fd8c76fa50",
        "meta": {
          "profile": [
            "http://hl7.eu/fhir/base/StructureDefinition/practitionerRole-eu"
          ]
        },
        "text": {
          "status": "generated",
          "div": "<div xmlns=\"http://www.w3.org/1999/xhtml\">Laboratory Role Id: 66a50115-f8e0-45d3-819b-39fd8c76fa50</div>"
        },
        "practitioner": {
          "reference": "urn:uuid:4da946f3-4149-41f0-b5d7-7e2a49197f71"
        }
      }
    },
    {
      "fullUrl": "urn:uuid:4da946f3-4149-41f0-b5d7-7e2a49197f71",
      "resource": {
        "resourceType": "Practitioner",
        "id": "4da946f3-4149-41f0-b5d7-7e2a49197f71",
        "meta": {
          "profile": [
            "http://hl7.eu/fhir/base/StructureDefinition/practitioner-eu"
          ]
        },
        "identifier": [
          {
            "assigner": {
              "display": "HL7 Europe"
            },
            "system": "urn:oid:2.16.840.1.113883.2.51.999",
            "value": "8fa92510-38b3-4bd2-b50f-62b6dc62c182"
          }
        ],
        "name": [
          {
            "prefix": [
              "dr"
            ],
            "given": [
              "Ex"
            ],
            "family": "Ample"
          }
        ],
        "address": [
          {
            "line": [
              "Laboratoire Central Européenne",
              "Boulevard du Jardin Botanique 32"
            ],
            "postalCode": "1000",
            "city": "Brussels",
            "country": "Belgium"
          }
        ],
        "text": {
          "status": "generated",
          "div": "<div xmlns=\"http://www.w3.org/1999/xhtml\">Laboratory: Laboratoire Central Européenne, 1000 Brussels, Belgium</div>"
        }
      }
    }
  ],
  "type": "document",
  "timestamp": "2025-02-16T22:09:08Z"
}
