{
  "resourceType": "Bundle",
  "id": "2568b6bf-48da-490f-af32-bd45c559bfe4",
  "meta": {
    "profile": [
      "http://hl7.eu/fhir/laboratory/StructureDefinition/Bundle-eu-lab"
    ]
  },
  "identifier": {
    "assigner": {
      "display": "HL7 Europe"
    },
    "system": "urn:oid:2.16.840.1.113883.2.51.999",
    "value": "9e9a4851-c8cd-4303-9cb8-dff56d580a4d"
  },
  "entry": [
    {
      "fullUrl": "urn:uuid:21e927e5-c30f-4cf4-9d75-35de4c71a0e7",
      "resource": {
        "resourceType": "Composition",
        "id": "21e927e5-c30f-4cf4-9d75-35de4c71a0e7",
        "meta": {
          "profile": [
            "http://hl7.eu/fhir/laboratory/StructureDefinition/Composition-eu-lab"
          ]
        },
        "identifier": {
          "assigner": {
            "display": "HL7 Europe"
          },
          "system": "urn:oid:2.16.840.1.113883.2.51.999",
          "value": "001a9823-08e2-4437-8759-79ec9a0e93fb"
        },
        "author": [
          {
            "reference": "urn:uuid:a32822d7-a4c4-4c3c-935c-4229299d1c78"
          }
        ],
        "category": [
          {
            "coding": [
              {
                "code": "26436-6",
                "system": "http://loinc.org",
                "display": "Laboratory studies (set)"
              }
            ]
          }
        ],
        "type": {
          "coding": [
            {
              "code": "11502-2",
              "system": "http://loinc.org",
              "display": "Laboratory report"
            }
          ],
          "text": "Laboratory Report"
        },
        "section": [
          {
            "code": {
              "coding": [
                {
                  "code": "26436-6",
                  "system": "http://loinc.org",
                  "display": "Laboratory studies (set)"
                }
              ],
              "text": "Laboratory studies"
            },
            "section": [
              {
                "code": {
                  "coding": [
                    {
                      "code": "$18719-5",
                      "system": "http://loinc.org",
                      "display": "Chemistry studies (set)"
                    }
                  ],
                  "text": "Chemistry"
                },
                "entry": [
                  {
                    "reference": "urn:uuid:3eaf24b7-2cd1-465c-a60a-b1dc30a1b95a"
                  },
                  {
                    "reference": "urn:uuid:9f1e62eb-0a33-4bcd-9a1b-dba7b559f241"
                  },
                  {
                    "reference": "urn:uuid:a245c871-abca-43dd-b55f-dfdc30e94083"
                  },
                  {
                    "reference": "urn:uuid:ffe567e9-4025-44f8-814e-4fd4cd20824a"
                  },
                  {
                    "reference": "urn:uuid:28ebacea-34c8-43d4-8255-5d4399783c54"
                  },
                  {
                    "reference": "urn:uuid:467c91a8-c271-4f7d-b121-68111b356b1c"
                  },
                  {
                    "reference": "urn:uuid:390dde1c-5784-498a-b0f4-27496c0a7964"
                  },
                  {
                    "reference": "urn:uuid:be1f1b69-6102-4f07-aafa-44a6f2dfcd57"
                  },
                  {
                    "reference": "urn:uuid:23e040fa-6b36-4cdf-97aa-4f786c51e3fb"
                  },
                  {
                    "reference": "urn:uuid:3efe9b09-6132-4b6f-9b72-7bdf83a64795"
                  },
                  {
                    "reference": "urn:uuid:fbaa4c16-b427-4525-b1bd-352744e43983"
                  },
                  {
                    "reference": "urn:uuid:59bec312-cfcb-4ffb-a6e9-a19f4a393180"
                  },
                  {
                    "reference": "urn:uuid:1cabcf64-e5fe-4004-afad-e7be94768ef8"
                  },
                  {
                    "reference": "urn:uuid:8a118b44-07f9-4ab4-88c4-910a674cb980"
                  },
                  {
                    "reference": "urn:uuid:9f1378bf-cb3b-4361-bd8a-542902c19e1a"
                  },
                  {
                    "reference": "urn:uuid:1fadace0-edad-40c2-b16f-bdaa3f748229"
                  },
                  {
                    "reference": "urn:uuid:5139c810-5ea1-482a-a48e-9386983fedc4"
                  },
                  {
                    "reference": "urn:uuid:6cb0410e-d268-4931-9171-9aa779b84fa5"
                  },
                  {
                    "reference": "urn:uuid:caa5089e-cfb7-4e0a-8b4f-4e2ca56cabc7"
                  }
                ],
                "text": {
                  "status": "generated",
                  "div": "<div xmlns=\"http://www.w3.org/1999/xhtml\"><h3>Chemistry</h3><table class=\"hl7__eu__lab__report\"><thead><tr><th>Test</th><th>10-JUN-2024</th><th>Reference&#xA0;Range</th><th>Unit</th></tr></thead><tbody><tr><td>Glucose [Mass/volume] in Blood</td><td>84.8</td><td>70 - 99</td><td>mg/dL</td></tr><tr><td>Urea nitrogen [Mass/volume] in Blood</td><td>9.7</td><td>7 - 20</td><td>mg/dL</td></tr><tr><td>Creatinine [Mass/volume] in Blood</td><td><strong>3.4 H</strong></td><td>0.7 - 1.3</td><td>mg/dL</td></tr><tr><td>Calcium [Mass/volume] in Blood</td><td>9.0</td><td>8.5 - 10.5</td><td>mg/dL</td></tr><tr><td>Sodium [Moles/volume] in Blood</td><td>143.6</td><td>135 - 145</td><td>mmol/L</td></tr><tr><td>Potassium [Moles/volume] in Blood</td><td>3.9</td><td>3.5 - 5</td><td>mmol/L</td></tr><tr><td>Chloride [Moles/volume] in Blood</td><td>102.2</td><td>98 - 107</td><td>mmol/L</td></tr><tr><td>Carbon dioxide, total [Moles/volume] in Blood</td><td>24.2</td><td>24 - 29</td><td>mmol/L</td></tr><tr><td>Protein [Mass/volume] in Serum or Plasma</td><td><strong>6.2 L</strong></td><td>6.6 - 8.3</td><td>g/dL</td></tr><tr><td>Albumin [Mass/volume] in Serum or Plasma</td><td>3.7</td><td>3.5 - 5.5</td><td>g/dL</td></tr><tr><td>Globulin [Mass/volume] in Serum by calculation</td><td>2.8</td><td>2 - 3.5</td><td>g/L</td></tr><tr><td>Bilirubin.total [Mass/volume] in Serum or Plasma</td><td>0.7</td><td>0.3 - 1.2</td><td>mg/dL</td></tr><tr><td>Alkaline phosphatase [Enzymatic activity/volume] in Serum or Plasma</td><td>132.1</td><td>39 - 136</td><td>U/L</td></tr><tr><td>Alanine aminotransferase [Enzymatic activity/volume] in Serum or Plasma</td><td>27.1</td><td>7 - 52</td><td>U/L</td></tr><tr><td>Aspartate aminotransferase [Enzymatic activity/volume] in Serum or Plasma</td><td>29.8</td><td>10 - 40</td><td>U/L</td></tr><tr><td>Cholesterol [Mass/volume] in Serum or Plasma</td><td>159.6</td><td>125 - 200</td><td>mg/dL</td></tr><tr><td>Triglyceride [Mass/volume] in Serum or Plasma</td><td><strong>165.0 H</strong></td><td>0 - 150</td><td>mg/dL</td></tr><tr><td>Cholesterol in LDL [Mass/volume] in Serum or Plasma by Direct assay</td><td>122.7</td><td>0 - 130</td><td>mg/dL</td></tr><tr><td>Cholesterol in HDL [Mass/volume] in Serum or Plasma</td><td>66.4</td><td>40 - 100</td><td>mg/dL</td></tr></tbody></table></div>"
                },
                "title": "Chemistry"
              }
            ],
            "title": "Laboratory Report"
          },
          {
            "text": {
              "status": "generated",
              "div": "<div xmlns=\"http://www.w3.org/1999/xhtml\"><h3>Annotation</h3><table class=\"hl7__eu__lab__report\"><tr><th>Conclusion and Recommendations based on this report and previous findings known to us</th></tr><tr><td>The patient shows significantly elevated creatinine, suggesting impaired renal function, and mildly low total protein, which may indicate nutritional or hepatic issues. Triglycerides are slightly elevated, increasing cardiovascular risk. Other parameters, including glucose, electrolytes, liver enzymes, and cholesterol fractions, are within normal limits. Renal function should be further evaluated and underlying causes for protein and lipid abnormalities considered.</td></tr></table></div>"
            },
            "code": {
              "coding": [
                {
                  "system": "http://loinc.org",
                  "code": "48767-8",
                  "display": "Annotation comment"
                }
              ]
            },
            "title": "Annotation comment"
          }
        ],
        "status": "final",
        "subject": {
          "reference": "urn:uuid:a093d9e2-d5ef-4ef9-8752-49d4b281a6c7",
          "display": "Gioele Fabbri"
        },
        "date": "2024-06-10T17:46:20Z",
        "title": "Laboratory Report",
        "confidentiality": "N"
      }
    },
    {
      "fullUrl": "urn:uuid:83088000-b7a1-472e-9e19-f438a08ca198",
      "resource": {
        "resourceType": "DiagnosticReport",
        "id": "83088000-b7a1-472e-9e19-f438a08ca198",
        "meta": {
          "profile": [
            "http://hl7.eu/fhir/laboratory/StructureDefinition/DiagnosticReport-eu-lab"
          ]
        },
        "identifier": [
          {
            "assigner": {
              "display": "HL7 Europe"
            },
            "system": "urn:oid:2.16.840.1.113883.2.51.999",
            "value": "f3c70a3e-1b29-4750-8fb8-31bef0f688a3"
          }
        ],
        "extension": [
          {
            "url": "http://hl7.org/fhir/5.0/StructureDefinition/extension-DiagnosticReport.composition",
            "valueReference": {
              "reference": "urn:uuid:001a9823-08e2-4437-8759-79ec9a0e93fb"
            }
          }
        ],
        "category": [
          {
            "coding": [
              {
                "code": "26436-6",
                "system": "http://loinc.org",
                "display": "Laboratory studies (set)"
              }
            ]
          }
        ],
        "specimen": [
          {
            "reference": "urn:uuid:123609d4-971a-4eb9-af3a-9bb0b0b874d8"
          },
          {
            "reference": "urn:uuid:d89215dd-576c-4ac3-8f90-b636baa7ee38"
          },
          {
            "reference": "urn:uuid:90152cfd-2536-4853-a855-32384d0e31c3"
          }
        ],
        "result": [
          {
            "reference": "urn:uuid:3eaf24b7-2cd1-465c-a60a-b1dc30a1b95a"
          },
          {
            "reference": "urn:uuid:9f1e62eb-0a33-4bcd-9a1b-dba7b559f241"
          },
          {
            "reference": "urn:uuid:a245c871-abca-43dd-b55f-dfdc30e94083"
          },
          {
            "reference": "urn:uuid:ffe567e9-4025-44f8-814e-4fd4cd20824a"
          },
          {
            "reference": "urn:uuid:28ebacea-34c8-43d4-8255-5d4399783c54"
          },
          {
            "reference": "urn:uuid:467c91a8-c271-4f7d-b121-68111b356b1c"
          },
          {
            "reference": "urn:uuid:390dde1c-5784-498a-b0f4-27496c0a7964"
          },
          {
            "reference": "urn:uuid:be1f1b69-6102-4f07-aafa-44a6f2dfcd57"
          },
          {
            "reference": "urn:uuid:23e040fa-6b36-4cdf-97aa-4f786c51e3fb"
          },
          {
            "reference": "urn:uuid:3efe9b09-6132-4b6f-9b72-7bdf83a64795"
          },
          {
            "reference": "urn:uuid:fbaa4c16-b427-4525-b1bd-352744e43983"
          },
          {
            "reference": "urn:uuid:59bec312-cfcb-4ffb-a6e9-a19f4a393180"
          },
          {
            "reference": "urn:uuid:1cabcf64-e5fe-4004-afad-e7be94768ef8"
          },
          {
            "reference": "urn:uuid:8a118b44-07f9-4ab4-88c4-910a674cb980"
          },
          {
            "reference": "urn:uuid:9f1378bf-cb3b-4361-bd8a-542902c19e1a"
          },
          {
            "reference": "urn:uuid:1fadace0-edad-40c2-b16f-bdaa3f748229"
          },
          {
            "reference": "urn:uuid:5139c810-5ea1-482a-a48e-9386983fedc4"
          },
          {
            "reference": "urn:uuid:6cb0410e-d268-4931-9171-9aa779b84fa5"
          },
          {
            "reference": "urn:uuid:caa5089e-cfb7-4e0a-8b4f-4e2ca56cabc7"
          }
        ],
        "status": "registered",
        "code": {
          "coding": [
            {
              "code": "11502-2",
              "system": "http://loinc.org",
              "display": "Laboratory report"
            }
          ]
        },
        "subject": {
          "reference": "urn:uuid:a093d9e2-d5ef-4ef9-8752-49d4b281a6c7",
          "display": "Gioele Fabbri"
        }
      }
    },
    {
      "fullUrl": "urn:uuid:a093d9e2-d5ef-4ef9-8752-49d4b281a6c7",
      "resource": {
        "resourceType": "Patient",
        "id": "a093d9e2-d5ef-4ef9-8752-49d4b281a6c7",
        "meta": {
          "security": [
            {
              "system": "http://terminology.hl7.org/CodeSystem/v3-ActReason",
              "code": "HTEST"
            },
            {
              "system": "http://terminology.hl7.org/CodeSystem/v3-ActReason",
              "code": "TRAIN"
            }
          ],
          "tag": [
            {
              "system": "https://synderai.net/fhir/CodeSystem/tags",
              "code": "synthetic",
              "display": "SYNDERAI Synthetic data"
            }
          ],
          "profile": [
            "http://hl7.eu/fhir/base/StructureDefinition/patient-eu-core"
          ]
        },
        "identifier": [
          {
            "type": {
              "coding": [
                {
                  "code": "PT",
                  "system": "http://terminology.hl7.org/CodeSystem/v2-0203"
                }
              ]
            },
            "system": "http://ec.europa.eu/identifier/eci",
            "value": "3631-767680-1"
          },
          {
            "type": {
              "coding": [
                {
                  "code": "MR",
                  "system": "http://terminology.hl7.org/CodeSystem/v2-0203"
                }
              ]
            },
            "system": "http://local.setting.eu/identifier",
            "value": "0a14935e-e0f7-2e1e-46fa-42b10e75d1f9"
          }
        ],
        "name": [
          {
            "family": "Fabbri"
          },
          {
            "given": [
              "Gioele"
            ]
          },
          {
            "text": "Gioele Fabbri"
          }
        ],
        "address": [
          {
            "line": [
              "Canale Armani, 25"
            ],
            "use": "home",
            "type": "physical",
            "postalCode": "23887",
            "city": "Revislate",
            "country": "Italy"
          }
        ],
        "telecom": [
          {
            "system": "phone",
            "value": "+39 0423197768"
          }
        ],
        "extension": [
          {
            "url": "http://hl7.org/fhir/StructureDefinition/patient-nationality",
            "valueCodeableConcept": {
              "coding": [
                {
                  "code": "IT",
                  "system": "http://hl7.org/fhir/ValueSet/country"
                }
              ]
            }
          }
        ],
        "text": {
          "status": "generated",
          "div": "<div xmlns=\"http://www.w3.org/1999/xhtml\"><table class=\"hl7__ips\"><tr><td>Gioele Fabbri</td><td>male</td><td>12-Sep-1972</td></tr></table></div>"
        },
        "gender": "male",
        "birthDate": "1972-09-12"
      }
    },
    {
      "fullUrl": "urn:uuid:451e3718-547d-43a6-82c9-a7cc4e299cfa",
      "resource": {
        "resourceType": "ServiceRequest",
        "id": "451e3718-547d-43a6-82c9-a7cc4e299cfa",
        "meta": {
          "profile": [
            "http://hl7.eu/fhir/laboratory/StructureDefinition/ServiceRequest-eu-lab"
          ]
        },
        "identifier": [
          {
            "system": "http://example.org",
            "value": "46dd347e-2184-492c-9fa4-77e69b7f001a"
          }
        ],
        "specimen": [
          {
            "reference": "urn:uuid:123609d4-971a-4eb9-af3a-9bb0b0b874d8"
          },
          {
            "reference": "urn:uuid:d89215dd-576c-4ac3-8f90-b636baa7ee38"
          },
          {
            "reference": "urn:uuid:90152cfd-2536-4853-a855-32384d0e31c3"
          }
        ],
        "reasonCode": [
          {
            "coding": [
              {
                "code": "271737000",
                "system": "http://snomed.info/sct",
                "display": "Anemia"
              }
            ]
          },
          {
            "coding": [
              {
                "code": "15777000",
                "system": "http://snomed.info/sct",
                "display": "Prediabetes"
              }
            ]
          },
          {
            "coding": [
              {
                "code": "713197008",
                "system": "http://snomed.info/sct",
                "display": "Recurrent rectal polyp"
              }
            ]
          },
          {
            "coding": [
              {
                "code": "68496003",
                "system": "http://snomed.info/sct",
                "display": "Polyp of colon"
              }
            ]
          },
          {
            "coding": [
              {
                "code": "55822004",
                "system": "http://snomed.info/sct",
                "display": "Hyperlipidemia"
              }
            ]
          },
          {
            "coding": [
              {
                "code": "124171000119105",
                "system": "http://snomed.info/sct",
                "display": "Chronic intractable migraine without aura"
              }
            ]
          }
        ],
        "status": "active",
        "intent": "order",
        "code": {
          "coding": [
            {
              "code": "108252007",
              "system": "http://snomed.info/sct",
              "display": "Laboratory procedure"
            }
          ]
        },
        "subject": {
          "reference": "urn:uuid:a093d9e2-d5ef-4ef9-8752-49d4b281a6c7",
          "display": "Gioele Fabbri"
        },
        "requester": {
          "reference": "urn:uuid:9a79afb5-5341-4584-84ec-bd024483f6b3"
        }
      }
    },
    {
      "fullUrl": "urn:uuid:9a79afb5-5341-4584-84ec-bd024483f6b3",
      "resource": {
        "resourceType": "PractitionerRole",
        "id": "9a79afb5-5341-4584-84ec-bd024483f6b3",
        "meta": {
          "profile": [
            "http://hl7.eu/fhir/base/StructureDefinition/practitionerRole-eu"
          ]
        },
        "text": {
          "status": "generated",
          "div": "<div xmlns=\"http://www.w3.org/1999/xhtml\">Provider Role Id: 9a79afb5-5341-4584-84ec-bd024483f6b3</div>"
        },
        "organization": {
          "reference": "urn:uuid:b2aef4f5-9fa7-4678-8fab-8c13d07e28e3"
        }
      }
    },
    {
      "fullUrl": "urn:uuid:b2aef4f5-9fa7-4678-8fab-8c13d07e28e3",
      "resource": {
        "resourceType": "Organization",
        "id": "b2aef4f5-9fa7-4678-8fab-8c13d07e28e3",
        "meta": {
          "profile": [
            "http://hl7.eu/fhir/base/StructureDefinition/organization-eu"
          ]
        },
        "identifier": [
          {
            "assigner": {
              "display": "HL7 Europe"
            },
            "system": "urn:oid:2.16.840.1.113883.2.51.999",
            "value": "9394564c-57e3-46ee-9218-1f758956c215"
          }
        ],
        "address": [
          {
            "line": [
              "Piazza Ospedale 3"
            ],
            "city": "Calcinate",
            "postalCode": "24050",
            "country": "Italy"
          }
        ],
        "text": {
          "status": "generated",
          "div": "<div xmlns=\"http://www.w3.org/1999/xhtml\">Provider Organization: Ospedale di Calcinate &quot;F.M. Passi&quot;</div>"
        },
        "name": "Ospedale di Calcinate &quot;F.M. Passi&quot;"
      }
    },
    {
      "fullUrl": "urn:uuid:123609d4-971a-4eb9-af3a-9bb0b0b874d8",
      "resource": {
        "resourceType": "Specimen",
        "id": "123609d4-971a-4eb9-af3a-9bb0b0b874d8",
        "meta": {
          "profile": [
            "http://hl7.eu/fhir/laboratory/StructureDefinition/Specimen-eu-lab"
          ]
        },
        "collection": {
          "collectedDateTime": "2024-06-10"
        },
        "text": {
          "status": "generated",
          "div": "<div xmlns=\"http://www.w3.org/1999/xhtml\"><table class=\"hl7__eu__lab__report\"><tr><th>Specimen</th><th>Collection Date</th></tr><tr><td>Whole blood specimen (specimen)</td><td><span class=\"nb\">10-Jun-2024</span></td></tr></table></div>"
        },
        "type": {
          "coding": [
            {
              "code": "258580003",
              "system": "http://snomed.info/sct",
              "display": "Whole blood specimen (specimen)"
            }
          ]
        }
      }
    },
    {
      "fullUrl": "urn:uuid:d89215dd-576c-4ac3-8f90-b636baa7ee38",
      "resource": {
        "resourceType": "Specimen",
        "id": "d89215dd-576c-4ac3-8f90-b636baa7ee38",
        "meta": {
          "profile": [
            "http://hl7.eu/fhir/laboratory/StructureDefinition/Specimen-eu-lab"
          ]
        },
        "collection": {
          "collectedDateTime": "2024-06-10"
        },
        "text": {
          "status": "generated",
          "div": "<div xmlns=\"http://www.w3.org/1999/xhtml\"><table class=\"hl7__eu__lab__report\"><tr><th>Specimen</th><th>Collection Date</th></tr><tr><td>Acellular blood (serum or plasma) specimen</td><td><span class=\"nb\">10-Jun-2024</span></td></tr></table></div>"
        },
        "type": {
          "coding": [
            {
              "code": "122592007",
              "system": "http://snomed.info/sct",
              "display": "Acellular blood (serum or plasma) specimen"
            }
          ]
        }
      }
    },
    {
      "fullUrl": "urn:uuid:90152cfd-2536-4853-a855-32384d0e31c3",
      "resource": {
        "resourceType": "Specimen",
        "id": "90152cfd-2536-4853-a855-32384d0e31c3",
        "meta": {
          "profile": [
            "http://hl7.eu/fhir/laboratory/StructureDefinition/Specimen-eu-lab"
          ]
        },
        "collection": {
          "collectedDateTime": "2024-06-10"
        },
        "text": {
          "status": "generated",
          "div": "<div xmlns=\"http://www.w3.org/1999/xhtml\"><table class=\"hl7__eu__lab__report\"><tr><th>Specimen</th><th>Collection Date</th></tr><tr><td>Serum specimen</td><td><span class=\"nb\">10-Jun-2024</span></td></tr></table></div>"
        },
        "type": {
          "coding": [
            {
              "code": "119364003",
              "system": "http://snomed.info/sct",
              "display": "Serum specimen"
            }
          ]
        }
      }
    },
    {
      "fullUrl": "urn:uuid:3eaf24b7-2cd1-465c-a60a-b1dc30a1b95a",
      "resource": {
        "resourceType": "Observation",
        "id": "3eaf24b7-2cd1-465c-a60a-b1dc30a1b95a",
        "meta": {
          "profile": [
            "http://hl7.eu/fhir/laboratory/StructureDefinition/Observation-resultslab-eu-lab"
          ]
        },
        "performer": [
          {
            "display": "The Central European Lab"
          }
        ],
        "category": [
          {
            "coding": [
              {
                "system": "http://terminology.hl7.org/CodeSystem/observation-category",
                "code": "laboratory"
              }
            ]
          }
        ],
        "code": {
          "coding": [
            {
              "code": "2339-0",
              "system": "http://loinc.org",
              "display": "Glucose [Mass/volume] in Blood"
            }
          ],
          "text": "Glucose [Mass/volume] in Blood"
        },
        "valueQuantity": {
          "system": "http://unitsofmeasure.org",
          "value": 84.8,
          "unit": "mg/dL",
          "code": "mg/dL"
        },
        "referenceRange": [
          {
            "low": {
              "value": 70,
              "code": "mg/dL",
              "system": "http://unitsofmeasure.org"
            }
          },
          {
            "high": {
              "value": 99,
              "code": "mg/dL",
              "system": "http://unitsofmeasure.org"
            }
          }
        ],
        "text": {
          "status": "generated",
          "div": "<div xmlns=\"http://www.w3.org/1999/xhtml\"><table class=\"hl7__eu__lab__report\"><tr><th>Test</th><th>10-Jun-2024</th><th>Reference&#xA0;Range</th><th>Unit</th></tr><tr><td>Glucose [Mass/volume] in Blood</td><td>84.8</td><td>70 - 99</td><td></td><td>mg/dL</td></tr></table></div>"
        },
        "status": "final",
        "subject": {
          "reference": "urn:uuid:a093d9e2-d5ef-4ef9-8752-49d4b281a6c7",
          "display": "Gioele Fabbri"
        },
        "effectiveDateTime": "2024-06-10T15:46:20Z",
        "specimen": {
          "reference": "urn:uuid:123609d4-971a-4eb9-af3a-9bb0b0b874d8"
        }
      }
    },
    {
      "fullUrl": "urn:uuid:9f1e62eb-0a33-4bcd-9a1b-dba7b559f241",
      "resource": {
        "resourceType": "Observation",
        "id": "9f1e62eb-0a33-4bcd-9a1b-dba7b559f241",
        "meta": {
          "profile": [
            "http://hl7.eu/fhir/laboratory/StructureDefinition/Observation-resultslab-eu-lab"
          ]
        },
        "performer": [
          {
            "display": "The Central European Lab"
          }
        ],
        "category": [
          {
            "coding": [
              {
                "system": "http://terminology.hl7.org/CodeSystem/observation-category",
                "code": "laboratory"
              }
            ]
          }
        ],
        "code": {
          "coding": [
            {
              "code": "6299-2",
              "system": "http://loinc.org",
              "display": "Urea nitrogen [Mass/volume] in Blood"
            }
          ],
          "text": "Urea nitrogen [Mass/volume] in Blood"
        },
        "valueQuantity": {
          "system": "http://unitsofmeasure.org",
          "value": 9.7,
          "unit": "mg/dL",
          "code": "mg/dL"
        },
        "referenceRange": [
          {
            "low": {
              "value": 7,
              "code": "mg/dL",
              "system": "http://unitsofmeasure.org"
            }
          },
          {
            "high": {
              "value": 20,
              "code": "mg/dL",
              "system": "http://unitsofmeasure.org"
            }
          }
        ],
        "text": {
          "status": "generated",
          "div": "<div xmlns=\"http://www.w3.org/1999/xhtml\"><table class=\"hl7__eu__lab__report\"><tr><th>Test</th><th>10-Jun-2024</th><th>Reference&#xA0;Range</th><th>Unit</th></tr><tr><td>Urea nitrogen [Mass/volume] in Blood</td><td>9.7</td><td>7 - 20</td><td></td><td>mg/dL</td></tr></table></div>"
        },
        "status": "final",
        "subject": {
          "reference": "urn:uuid:a093d9e2-d5ef-4ef9-8752-49d4b281a6c7",
          "display": "Gioele Fabbri"
        },
        "effectiveDateTime": "2024-06-10T15:46:20Z",
        "specimen": {
          "reference": "urn:uuid:123609d4-971a-4eb9-af3a-9bb0b0b874d8"
        }
      }
    },
    {
      "fullUrl": "urn:uuid:a245c871-abca-43dd-b55f-dfdc30e94083",
      "resource": {
        "resourceType": "Observation",
        "id": "a245c871-abca-43dd-b55f-dfdc30e94083",
        "meta": {
          "profile": [
            "http://hl7.eu/fhir/laboratory/StructureDefinition/Observation-resultslab-eu-lab"
          ]
        },
        "performer": [
          {
            "display": "The Central European Lab"
          }
        ],
        "category": [
          {
            "coding": [
              {
                "system": "http://terminology.hl7.org/CodeSystem/observation-category",
                "code": "laboratory"
              }
            ]
          }
        ],
        "code": {
          "coding": [
            {
              "code": "38483-4",
              "system": "http://loinc.org",
              "display": "Creatinine [Mass/volume] in Blood"
            }
          ],
          "text": "Creatinine [Mass/volume] in Blood"
        },
        "valueQuantity": {
          "system": "http://unitsofmeasure.org",
          "value": 3.4,
          "unit": "mg/dL",
          "code": "mg/dL"
        },
        "referenceRange": [
          {
            "low": {
              "value": 0.7,
              "code": "mg/dL",
              "system": "http://unitsofmeasure.org"
            }
          },
          {
            "high": {
              "value": 1.3,
              "code": "mg/dL",
              "system": "http://unitsofmeasure.org"
            }
          }
        ],
        "interpretation": [
          {
            "coding": [
              {
                "code": "H",
                "system": "http://terminology.hl7.org/CodeSystem/v3-ObservationInterpretation",
                "display": "High"
              }
            ]
          }
        ],
        "text": {
          "status": "generated",
          "div": "<div xmlns=\"http://www.w3.org/1999/xhtml\"><table class=\"hl7__eu__lab__report\"><tr><th>Test</th><th>10-Jun-2024</th><th>Reference&#xA0;Range</th><th>Unit</th></tr><tr><td>Creatinine [Mass/volume] in Blood</td><td>3.4</td><td>0.7 - 1.3</td><td>H</td><td>mg/dL</td></tr></table></div>"
        },
        "status": "final",
        "subject": {
          "reference": "urn:uuid:a093d9e2-d5ef-4ef9-8752-49d4b281a6c7",
          "display": "Gioele Fabbri"
        },
        "effectiveDateTime": "2024-06-10T15:46:20Z",
        "specimen": {
          "reference": "urn:uuid:123609d4-971a-4eb9-af3a-9bb0b0b874d8"
        }
      }
    },
    {
      "fullUrl": "urn:uuid:ffe567e9-4025-44f8-814e-4fd4cd20824a",
      "resource": {
        "resourceType": "Observation",
        "id": "ffe567e9-4025-44f8-814e-4fd4cd20824a",
        "meta": {
          "profile": [
            "http://hl7.eu/fhir/laboratory/StructureDefinition/Observation-resultslab-eu-lab"
          ]
        },
        "performer": [
          {
            "display": "The Central European Lab"
          }
        ],
        "category": [
          {
            "coding": [
              {
                "system": "http://terminology.hl7.org/CodeSystem/observation-category",
                "code": "laboratory"
              }
            ]
          }
        ],
        "code": {
          "coding": [
            {
              "code": "49765-1",
              "system": "http://loinc.org",
              "display": "Calcium [Mass/volume] in Blood"
            }
          ],
          "text": "Calcium [Mass/volume] in Blood"
        },
        "valueQuantity": {
          "system": "http://unitsofmeasure.org",
          "value": 9,
          "unit": "mg/dL",
          "code": "mg/dL"
        },
        "referenceRange": [
          {
            "low": {
              "value": 8.5,
              "code": "mg/dL",
              "system": "http://unitsofmeasure.org"
            }
          },
          {
            "high": {
              "value": 10.5,
              "code": "mg/dL",
              "system": "http://unitsofmeasure.org"
            }
          }
        ],
        "text": {
          "status": "generated",
          "div": "<div xmlns=\"http://www.w3.org/1999/xhtml\"><table class=\"hl7__eu__lab__report\"><tr><th>Test</th><th>10-Jun-2024</th><th>Reference&#xA0;Range</th><th>Unit</th></tr><tr><td>Calcium [Mass/volume] in Blood</td><td>9.0</td><td>8.5 - 10.5</td><td></td><td>mg/dL</td></tr></table></div>"
        },
        "status": "final",
        "subject": {
          "reference": "urn:uuid:a093d9e2-d5ef-4ef9-8752-49d4b281a6c7",
          "display": "Gioele Fabbri"
        },
        "effectiveDateTime": "2024-06-10T15:46:20Z",
        "specimen": {
          "reference": "urn:uuid:123609d4-971a-4eb9-af3a-9bb0b0b874d8"
        }
      }
    },
    {
      "fullUrl": "urn:uuid:28ebacea-34c8-43d4-8255-5d4399783c54",
      "resource": {
        "resourceType": "Observation",
        "id": "28ebacea-34c8-43d4-8255-5d4399783c54",
        "meta": {
          "profile": [
            "http://hl7.eu/fhir/laboratory/StructureDefinition/Observation-resultslab-eu-lab"
          ]
        },
        "performer": [
          {
            "display": "The Central European Lab"
          }
        ],
        "category": [
          {
            "coding": [
              {
                "system": "http://terminology.hl7.org/CodeSystem/observation-category",
                "code": "laboratory"
              }
            ]
          }
        ],
        "code": {
          "coding": [
            {
              "code": "2947-0",
              "system": "http://loinc.org",
              "display": "Sodium [Moles/volume] in Blood"
            }
          ],
          "text": "Sodium [Moles/volume] in Blood"
        },
        "valueQuantity": {
          "system": "http://unitsofmeasure.org",
          "value": 143.6,
          "unit": "mmol/L",
          "code": "mmol/L"
        },
        "referenceRange": [
          {
            "low": {
              "value": 135,
              "code": "mmol/L",
              "system": "http://unitsofmeasure.org"
            }
          },
          {
            "high": {
              "value": 145,
              "code": "mmol/L",
              "system": "http://unitsofmeasure.org"
            }
          }
        ],
        "text": {
          "status": "generated",
          "div": "<div xmlns=\"http://www.w3.org/1999/xhtml\"><table class=\"hl7__eu__lab__report\"><tr><th>Test</th><th>10-Jun-2024</th><th>Reference&#xA0;Range</th><th>Unit</th></tr><tr><td>Sodium [Moles/volume] in Blood</td><td>143.6</td><td>135 - 145</td><td></td><td>mmol/L</td></tr></table></div>"
        },
        "status": "final",
        "subject": {
          "reference": "urn:uuid:a093d9e2-d5ef-4ef9-8752-49d4b281a6c7",
          "display": "Gioele Fabbri"
        },
        "effectiveDateTime": "2024-06-10T15:46:20Z",
        "specimen": {
          "reference": "urn:uuid:123609d4-971a-4eb9-af3a-9bb0b0b874d8"
        }
      }
    },
    {
      "fullUrl": "urn:uuid:467c91a8-c271-4f7d-b121-68111b356b1c",
      "resource": {
        "resourceType": "Observation",
        "id": "467c91a8-c271-4f7d-b121-68111b356b1c",
        "meta": {
          "profile": [
            "http://hl7.eu/fhir/laboratory/StructureDefinition/Observation-resultslab-eu-lab"
          ]
        },
        "performer": [
          {
            "display": "The Central European Lab"
          }
        ],
        "category": [
          {
            "coding": [
              {
                "system": "http://terminology.hl7.org/CodeSystem/observation-category",
                "code": "laboratory"
              }
            ]
          }
        ],
        "code": {
          "coding": [
            {
              "code": "6298-4",
              "system": "http://loinc.org",
              "display": "Potassium [Moles/volume] in Blood"
            }
          ],
          "text": "Potassium [Moles/volume] in Blood"
        },
        "valueQuantity": {
          "system": "http://unitsofmeasure.org",
          "value": 3.9,
          "unit": "mmol/L",
          "code": "mmol/L"
        },
        "referenceRange": [
          {
            "low": {
              "value": 3.5,
              "code": "mmol/L",
              "system": "http://unitsofmeasure.org"
            }
          },
          {
            "high": {
              "value": 5,
              "code": "mmol/L",
              "system": "http://unitsofmeasure.org"
            }
          }
        ],
        "text": {
          "status": "generated",
          "div": "<div xmlns=\"http://www.w3.org/1999/xhtml\"><table class=\"hl7__eu__lab__report\"><tr><th>Test</th><th>10-Jun-2024</th><th>Reference&#xA0;Range</th><th>Unit</th></tr><tr><td>Potassium [Moles/volume] in Blood</td><td>3.9</td><td>3.5 - 5</td><td></td><td>mmol/L</td></tr></table></div>"
        },
        "status": "final",
        "subject": {
          "reference": "urn:uuid:a093d9e2-d5ef-4ef9-8752-49d4b281a6c7",
          "display": "Gioele Fabbri"
        },
        "effectiveDateTime": "2024-06-10T15:46:20Z",
        "specimen": {
          "reference": "urn:uuid:123609d4-971a-4eb9-af3a-9bb0b0b874d8"
        }
      }
    },
    {
      "fullUrl": "urn:uuid:390dde1c-5784-498a-b0f4-27496c0a7964",
      "resource": {
        "resourceType": "Observation",
        "id": "390dde1c-5784-498a-b0f4-27496c0a7964",
        "meta": {
          "profile": [
            "http://hl7.eu/fhir/laboratory/StructureDefinition/Observation-resultslab-eu-lab"
          ]
        },
        "performer": [
          {
            "display": "The Central European Lab"
          }
        ],
        "category": [
          {
            "coding": [
              {
                "system": "http://terminology.hl7.org/CodeSystem/observation-category",
                "code": "laboratory"
              }
            ]
          }
        ],
        "code": {
          "coding": [
            {
              "code": "2069-3",
              "system": "http://loinc.org",
              "display": "Chloride [Moles/volume] in Blood"
            }
          ],
          "text": "Chloride [Moles/volume] in Blood"
        },
        "valueQuantity": {
          "system": "http://unitsofmeasure.org",
          "value": 102.2,
          "unit": "mmol/L",
          "code": "mmol/L"
        },
        "referenceRange": [
          {
            "low": {
              "value": 98,
              "code": "mmol/L",
              "system": "http://unitsofmeasure.org"
            }
          },
          {
            "high": {
              "value": 107,
              "code": "mmol/L",
              "system": "http://unitsofmeasure.org"
            }
          }
        ],
        "text": {
          "status": "generated",
          "div": "<div xmlns=\"http://www.w3.org/1999/xhtml\"><table class=\"hl7__eu__lab__report\"><tr><th>Test</th><th>10-Jun-2024</th><th>Reference&#xA0;Range</th><th>Unit</th></tr><tr><td>Chloride [Moles/volume] in Blood</td><td>102.2</td><td>98 - 107</td><td></td><td>mmol/L</td></tr></table></div>"
        },
        "status": "final",
        "subject": {
          "reference": "urn:uuid:a093d9e2-d5ef-4ef9-8752-49d4b281a6c7",
          "display": "Gioele Fabbri"
        },
        "effectiveDateTime": "2024-06-10T15:46:20Z",
        "specimen": {
          "reference": "urn:uuid:123609d4-971a-4eb9-af3a-9bb0b0b874d8"
        }
      }
    },
    {
      "fullUrl": "urn:uuid:be1f1b69-6102-4f07-aafa-44a6f2dfcd57",
      "resource": {
        "resourceType": "Observation",
        "id": "be1f1b69-6102-4f07-aafa-44a6f2dfcd57",
        "meta": {
          "profile": [
            "http://hl7.eu/fhir/laboratory/StructureDefinition/Observation-resultslab-eu-lab"
          ]
        },
        "performer": [
          {
            "display": "The Central European Lab"
          }
        ],
        "category": [
          {
            "coding": [
              {
                "system": "http://terminology.hl7.org/CodeSystem/observation-category",
                "code": "laboratory"
              }
            ]
          }
        ],
        "code": {
          "coding": [
            {
              "code": "20565-8",
              "system": "http://loinc.org",
              "display": "Carbon dioxide, total [Moles/volume] in Blood"
            }
          ],
          "text": "Carbon dioxide, total [Moles/volume] in Blood"
        },
        "valueQuantity": {
          "system": "http://unitsofmeasure.org",
          "value": 24.2,
          "unit": "mmol/L",
          "code": "mmol/L"
        },
        "referenceRange": [
          {
            "low": {
              "value": 24,
              "code": "mmol/L",
              "system": "http://unitsofmeasure.org"
            }
          },
          {
            "high": {
              "value": 29,
              "code": "mmol/L",
              "system": "http://unitsofmeasure.org"
            }
          }
        ],
        "text": {
          "status": "generated",
          "div": "<div xmlns=\"http://www.w3.org/1999/xhtml\"><table class=\"hl7__eu__lab__report\"><tr><th>Test</th><th>10-Jun-2024</th><th>Reference&#xA0;Range</th><th>Unit</th></tr><tr><td>Carbon dioxide, total [Moles/volume] in Blood</td><td>24.2</td><td>24 - 29</td><td></td><td>mmol/L</td></tr></table></div>"
        },
        "status": "final",
        "subject": {
          "reference": "urn:uuid:a093d9e2-d5ef-4ef9-8752-49d4b281a6c7",
          "display": "Gioele Fabbri"
        },
        "effectiveDateTime": "2024-06-10T15:46:20Z",
        "specimen": {
          "reference": "urn:uuid:123609d4-971a-4eb9-af3a-9bb0b0b874d8"
        }
      }
    },
    {
      "fullUrl": "urn:uuid:23e040fa-6b36-4cdf-97aa-4f786c51e3fb",
      "resource": {
        "resourceType": "Observation",
        "id": "23e040fa-6b36-4cdf-97aa-4f786c51e3fb",
        "meta": {
          "profile": [
            "http://hl7.eu/fhir/laboratory/StructureDefinition/Observation-resultslab-eu-lab"
          ]
        },
        "performer": [
          {
            "display": "The Central European Lab"
          }
        ],
        "category": [
          {
            "coding": [
              {
                "system": "http://terminology.hl7.org/CodeSystem/observation-category",
                "code": "laboratory"
              }
            ]
          }
        ],
        "code": {
          "coding": [
            {
              "code": "2885-2",
              "system": "http://loinc.org",
              "display": "Protein [Mass/volume] in Serum or Plasma"
            }
          ],
          "text": "Protein [Mass/volume] in Serum or Plasma"
        },
        "valueQuantity": {
          "system": "http://unitsofmeasure.org",
          "value": 6.2,
          "unit": "g/dL",
          "code": "g/dL"
        },
        "referenceRange": [
          {
            "low": {
              "value": 6.6,
              "code": "g/dL",
              "system": "http://unitsofmeasure.org"
            }
          },
          {
            "high": {
              "value": 8.3,
              "code": "g/dL",
              "system": "http://unitsofmeasure.org"
            }
          }
        ],
        "interpretation": [
          {
            "coding": [
              {
                "code": "L",
                "system": "http://terminology.hl7.org/CodeSystem/v3-ObservationInterpretation",
                "display": "Low"
              }
            ]
          }
        ],
        "text": {
          "status": "generated",
          "div": "<div xmlns=\"http://www.w3.org/1999/xhtml\"><table class=\"hl7__eu__lab__report\"><tr><th>Test</th><th>10-Jun-2024</th><th>Reference&#xA0;Range</th><th>Unit</th></tr><tr><td>Protein [Mass/volume] in Serum or Plasma</td><td>6.2</td><td>6.6 - 8.3</td><td>L</td><td>g/dL</td></tr></table></div>"
        },
        "status": "final",
        "subject": {
          "reference": "urn:uuid:a093d9e2-d5ef-4ef9-8752-49d4b281a6c7",
          "display": "Gioele Fabbri"
        },
        "effectiveDateTime": "2024-06-10T15:46:20Z",
        "specimen": {
          "reference": "urn:uuid:d89215dd-576c-4ac3-8f90-b636baa7ee38"
        }
      }
    },
    {
      "fullUrl": "urn:uuid:3efe9b09-6132-4b6f-9b72-7bdf83a64795",
      "resource": {
        "resourceType": "Observation",
        "id": "3efe9b09-6132-4b6f-9b72-7bdf83a64795",
        "meta": {
          "profile": [
            "http://hl7.eu/fhir/laboratory/StructureDefinition/Observation-resultslab-eu-lab"
          ]
        },
        "performer": [
          {
            "display": "The Central European Lab"
          }
        ],
        "category": [
          {
            "coding": [
              {
                "system": "http://terminology.hl7.org/CodeSystem/observation-category",
                "code": "laboratory"
              }
            ]
          }
        ],
        "code": {
          "coding": [
            {
              "code": "1751-7",
              "system": "http://loinc.org",
              "display": "Albumin [Mass/volume] in Serum or Plasma"
            }
          ],
          "text": "Albumin [Mass/volume] in Serum or Plasma"
        },
        "valueQuantity": {
          "system": "http://unitsofmeasure.org",
          "value": 3.7,
          "unit": "g/dL",
          "code": "g/dL"
        },
        "referenceRange": [
          {
            "low": {
              "value": 3.5,
              "code": "g/dL",
              "system": "http://unitsofmeasure.org"
            }
          },
          {
            "high": {
              "value": 5.5,
              "code": "g/dL",
              "system": "http://unitsofmeasure.org"
            }
          }
        ],
        "text": {
          "status": "generated",
          "div": "<div xmlns=\"http://www.w3.org/1999/xhtml\"><table class=\"hl7__eu__lab__report\"><tr><th>Test</th><th>10-Jun-2024</th><th>Reference&#xA0;Range</th><th>Unit</th></tr><tr><td>Albumin [Mass/volume] in Serum or Plasma</td><td>3.7</td><td>3.5 - 5.5</td><td></td><td>g/dL</td></tr></table></div>"
        },
        "status": "final",
        "subject": {
          "reference": "urn:uuid:a093d9e2-d5ef-4ef9-8752-49d4b281a6c7",
          "display": "Gioele Fabbri"
        },
        "effectiveDateTime": "2024-06-10T15:46:20Z",
        "specimen": {
          "reference": "urn:uuid:d89215dd-576c-4ac3-8f90-b636baa7ee38"
        }
      }
    },
    {
      "fullUrl": "urn:uuid:fbaa4c16-b427-4525-b1bd-352744e43983",
      "resource": {
        "resourceType": "Observation",
        "id": "fbaa4c16-b427-4525-b1bd-352744e43983",
        "meta": {
          "profile": [
            "http://hl7.eu/fhir/laboratory/StructureDefinition/Observation-resultslab-eu-lab"
          ]
        },
        "performer": [
          {
            "display": "The Central European Lab"
          }
        ],
        "category": [
          {
            "coding": [
              {
                "system": "http://terminology.hl7.org/CodeSystem/observation-category",
                "code": "laboratory"
              }
            ]
          }
        ],
        "code": {
          "coding": [
            {
              "code": "10834-0",
              "system": "http://loinc.org",
              "display": "Globulin [Mass/volume] in Serum by calculation"
            }
          ],
          "text": "Globulin [Mass/volume] in Serum by calculation"
        },
        "valueQuantity": {
          "system": "http://unitsofmeasure.org",
          "value": 2.8,
          "unit": "g/L",
          "code": "g/L"
        },
        "referenceRange": [
          {
            "low": {
              "value": 2,
              "code": "g/L",
              "system": "http://unitsofmeasure.org"
            }
          },
          {
            "high": {
              "value": 3.5,
              "code": "g/L",
              "system": "http://unitsofmeasure.org"
            }
          }
        ],
        "text": {
          "status": "generated",
          "div": "<div xmlns=\"http://www.w3.org/1999/xhtml\"><table class=\"hl7__eu__lab__report\"><tr><th>Test</th><th>10-Jun-2024</th><th>Reference&#xA0;Range</th><th>Unit</th></tr><tr><td>Globulin [Mass/volume] in Serum by calculation</td><td>2.8</td><td>2 - 3.5</td><td></td><td>g/L</td></tr></table></div>"
        },
        "status": "final",
        "subject": {
          "reference": "urn:uuid:a093d9e2-d5ef-4ef9-8752-49d4b281a6c7",
          "display": "Gioele Fabbri"
        },
        "effectiveDateTime": "2024-06-10T15:46:20Z",
        "specimen": {
          "reference": "urn:uuid:90152cfd-2536-4853-a855-32384d0e31c3"
        }
      }
    },
    {
      "fullUrl": "urn:uuid:59bec312-cfcb-4ffb-a6e9-a19f4a393180",
      "resource": {
        "resourceType": "Observation",
        "id": "59bec312-cfcb-4ffb-a6e9-a19f4a393180",
        "meta": {
          "profile": [
            "http://hl7.eu/fhir/laboratory/StructureDefinition/Observation-resultslab-eu-lab"
          ]
        },
        "performer": [
          {
            "display": "The Central European Lab"
          }
        ],
        "category": [
          {
            "coding": [
              {
                "system": "http://terminology.hl7.org/CodeSystem/observation-category",
                "code": "laboratory"
              }
            ]
          }
        ],
        "code": {
          "coding": [
            {
              "code": "1975-2",
              "system": "http://loinc.org",
              "display": "Bilirubin.total [Mass/volume] in Serum or Plasma"
            }
          ],
          "text": "Bilirubin.total [Mass/volume] in Serum or Plasma"
        },
        "valueQuantity": {
          "system": "http://unitsofmeasure.org",
          "value": 0.7,
          "unit": "mg/dL",
          "code": "mg/dL"
        },
        "referenceRange": [
          {
            "low": {
              "value": 0.3,
              "code": "mg/dL",
              "system": "http://unitsofmeasure.org"
            }
          },
          {
            "high": {
              "value": 1.2,
              "code": "mg/dL",
              "system": "http://unitsofmeasure.org"
            }
          }
        ],
        "text": {
          "status": "generated",
          "div": "<div xmlns=\"http://www.w3.org/1999/xhtml\"><table class=\"hl7__eu__lab__report\"><tr><th>Test</th><th>10-Jun-2024</th><th>Reference&#xA0;Range</th><th>Unit</th></tr><tr><td>Bilirubin.total [Mass/volume] in Serum or Plasma</td><td>0.7</td><td>0.3 - 1.2</td><td></td><td>mg/dL</td></tr></table></div>"
        },
        "status": "final",
        "subject": {
          "reference": "urn:uuid:a093d9e2-d5ef-4ef9-8752-49d4b281a6c7",
          "display": "Gioele Fabbri"
        },
        "effectiveDateTime": "2024-06-10T15:46:20Z",
        "specimen": {
          "reference": "urn:uuid:d89215dd-576c-4ac3-8f90-b636baa7ee38"
        }
      }
    },
    {
      "fullUrl": "urn:uuid:1cabcf64-e5fe-4004-afad-e7be94768ef8",
      "resource": {
        "resourceType": "Observation",
        "id": "1cabcf64-e5fe-4004-afad-e7be94768ef8",
        "meta": {
          "profile": [
            "http://hl7.eu/fhir/laboratory/StructureDefinition/Observation-resultslab-eu-lab"
          ]
        },
        "performer": [
          {
            "display": "The Central European Lab"
          }
        ],
        "category": [
          {
            "coding": [
              {
                "system": "http://terminology.hl7.org/CodeSystem/observation-category",
                "code": "laboratory"
              }
            ]
          }
        ],
        "code": {
          "coding": [
            {
              "code": "6768-6",
              "system": "http://loinc.org",
              "display": "Alkaline phosphatase [Enzymatic activity/volume] in Serum or Plasma"
            }
          ],
          "text": "Alkaline phosphatase [Enzymatic activity/volume] in Serum or Plasma"
        },
        "valueQuantity": {
          "system": "http://unitsofmeasure.org",
          "value": 132.1,
          "unit": "U/L",
          "code": "U/L"
        },
        "referenceRange": [
          {
            "low": {
              "value": 39,
              "code": "U/L",
              "system": "http://unitsofmeasure.org"
            }
          },
          {
            "high": {
              "value": 136,
              "code": "U/L",
              "system": "http://unitsofmeasure.org"
            }
          }
        ],
        "text": {
          "status": "generated",
          "div": "<div xmlns=\"http://www.w3.org/1999/xhtml\"><table class=\"hl7__eu__lab__report\"><tr><th>Test</th><th>10-Jun-2024</th><th>Reference&#xA0;Range</th><th>Unit</th></tr><tr><td>Alkaline phosphatase [Enzymatic activity/volume] in Serum or Plasma</td><td>132.1</td><td>39 - 136</td><td></td><td>U/L</td></tr></table></div>"
        },
        "status": "final",
        "subject": {
          "reference": "urn:uuid:a093d9e2-d5ef-4ef9-8752-49d4b281a6c7",
          "display": "Gioele Fabbri"
        },
        "effectiveDateTime": "2024-06-10T15:46:20Z",
        "specimen": {
          "reference": "urn:uuid:d89215dd-576c-4ac3-8f90-b636baa7ee38"
        }
      }
    },
    {
      "fullUrl": "urn:uuid:8a118b44-07f9-4ab4-88c4-910a674cb980",
      "resource": {
        "resourceType": "Observation",
        "id": "8a118b44-07f9-4ab4-88c4-910a674cb980",
        "meta": {
          "profile": [
            "http://hl7.eu/fhir/laboratory/StructureDefinition/Observation-resultslab-eu-lab"
          ]
        },
        "performer": [
          {
            "display": "The Central European Lab"
          }
        ],
        "category": [
          {
            "coding": [
              {
                "system": "http://terminology.hl7.org/CodeSystem/observation-category",
                "code": "laboratory"
              }
            ]
          }
        ],
        "code": {
          "coding": [
            {
              "code": "1742-6",
              "system": "http://loinc.org",
              "display": "Alanine aminotransferase [Enzymatic activity/volume] in Serum or Plasma"
            }
          ],
          "text": "Alanine aminotransferase [Enzymatic activity/volume] in Serum or Plasma"
        },
        "valueQuantity": {
          "system": "http://unitsofmeasure.org",
          "value": 27.1,
          "unit": "U/L",
          "code": "U/L"
        },
        "referenceRange": [
          {
            "low": {
              "value": 7,
              "code": "U/L",
              "system": "http://unitsofmeasure.org"
            }
          },
          {
            "high": {
              "value": 52,
              "code": "U/L",
              "system": "http://unitsofmeasure.org"
            }
          }
        ],
        "text": {
          "status": "generated",
          "div": "<div xmlns=\"http://www.w3.org/1999/xhtml\"><table class=\"hl7__eu__lab__report\"><tr><th>Test</th><th>10-Jun-2024</th><th>Reference&#xA0;Range</th><th>Unit</th></tr><tr><td>Alanine aminotransferase [Enzymatic activity/volume] in Serum or Plasma</td><td>27.1</td><td>7 - 52</td><td></td><td>U/L</td></tr></table></div>"
        },
        "status": "final",
        "subject": {
          "reference": "urn:uuid:a093d9e2-d5ef-4ef9-8752-49d4b281a6c7",
          "display": "Gioele Fabbri"
        },
        "effectiveDateTime": "2024-06-10T15:46:20Z",
        "specimen": {
          "reference": "urn:uuid:d89215dd-576c-4ac3-8f90-b636baa7ee38"
        }
      }
    },
    {
      "fullUrl": "urn:uuid:9f1378bf-cb3b-4361-bd8a-542902c19e1a",
      "resource": {
        "resourceType": "Observation",
        "id": "9f1378bf-cb3b-4361-bd8a-542902c19e1a",
        "meta": {
          "profile": [
            "http://hl7.eu/fhir/laboratory/StructureDefinition/Observation-resultslab-eu-lab"
          ]
        },
        "performer": [
          {
            "display": "The Central European Lab"
          }
        ],
        "category": [
          {
            "coding": [
              {
                "system": "http://terminology.hl7.org/CodeSystem/observation-category",
                "code": "laboratory"
              }
            ]
          }
        ],
        "code": {
          "coding": [
            {
              "code": "1920-8",
              "system": "http://loinc.org",
              "display": "Aspartate aminotransferase [Enzymatic activity/volume] in Serum or Plasma"
            }
          ],
          "text": "Aspartate aminotransferase [Enzymatic activity/volume] in Serum or Plasma"
        },
        "valueQuantity": {
          "system": "http://unitsofmeasure.org",
          "value": 29.8,
          "unit": "U/L",
          "code": "U/L"
        },
        "referenceRange": [
          {
            "low": {
              "value": 10,
              "code": "U/L",
              "system": "http://unitsofmeasure.org"
            }
          },
          {
            "high": {
              "value": 40,
              "code": "U/L",
              "system": "http://unitsofmeasure.org"
            }
          }
        ],
        "text": {
          "status": "generated",
          "div": "<div xmlns=\"http://www.w3.org/1999/xhtml\"><table class=\"hl7__eu__lab__report\"><tr><th>Test</th><th>10-Jun-2024</th><th>Reference&#xA0;Range</th><th>Unit</th></tr><tr><td>Aspartate aminotransferase [Enzymatic activity/volume] in Serum or Plasma</td><td>29.8</td><td>10 - 40</td><td></td><td>U/L</td></tr></table></div>"
        },
        "status": "final",
        "subject": {
          "reference": "urn:uuid:a093d9e2-d5ef-4ef9-8752-49d4b281a6c7",
          "display": "Gioele Fabbri"
        },
        "effectiveDateTime": "2024-06-10T15:46:20Z",
        "specimen": {
          "reference": "urn:uuid:d89215dd-576c-4ac3-8f90-b636baa7ee38"
        }
      }
    },
    {
      "fullUrl": "urn:uuid:1fadace0-edad-40c2-b16f-bdaa3f748229",
      "resource": {
        "resourceType": "Observation",
        "id": "1fadace0-edad-40c2-b16f-bdaa3f748229",
        "meta": {
          "profile": [
            "http://hl7.eu/fhir/laboratory/StructureDefinition/Observation-resultslab-eu-lab"
          ]
        },
        "performer": [
          {
            "display": "The Central European Lab"
          }
        ],
        "category": [
          {
            "coding": [
              {
                "system": "http://terminology.hl7.org/CodeSystem/observation-category",
                "code": "laboratory"
              }
            ]
          }
        ],
        "code": {
          "coding": [
            {
              "code": "2093-3",
              "system": "http://loinc.org",
              "display": "Cholesterol [Mass/volume] in Serum or Plasma"
            }
          ],
          "text": "Cholesterol [Mass/volume] in Serum or Plasma"
        },
        "valueQuantity": {
          "system": "http://unitsofmeasure.org",
          "value": 159.6,
          "unit": "mg/dL",
          "code": "mg/dL"
        },
        "referenceRange": [
          {
            "low": {
              "value": 125,
              "code": "mg/dL",
              "system": "http://unitsofmeasure.org"
            }
          },
          {
            "high": {
              "value": 200,
              "code": "mg/dL",
              "system": "http://unitsofmeasure.org"
            }
          }
        ],
        "text": {
          "status": "generated",
          "div": "<div xmlns=\"http://www.w3.org/1999/xhtml\"><table class=\"hl7__eu__lab__report\"><tr><th>Test</th><th>10-Jun-2024</th><th>Reference&#xA0;Range</th><th>Unit</th></tr><tr><td>Cholesterol [Mass/volume] in Serum or Plasma</td><td>159.6</td><td>125 - 200</td><td></td><td>mg/dL</td></tr></table></div>"
        },
        "status": "final",
        "subject": {
          "reference": "urn:uuid:a093d9e2-d5ef-4ef9-8752-49d4b281a6c7",
          "display": "Gioele Fabbri"
        },
        "effectiveDateTime": "2024-06-10T15:46:20Z",
        "specimen": {
          "reference": "urn:uuid:d89215dd-576c-4ac3-8f90-b636baa7ee38"
        }
      }
    },
    {
      "fullUrl": "urn:uuid:5139c810-5ea1-482a-a48e-9386983fedc4",
      "resource": {
        "resourceType": "Observation",
        "id": "5139c810-5ea1-482a-a48e-9386983fedc4",
        "meta": {
          "profile": [
            "http://hl7.eu/fhir/laboratory/StructureDefinition/Observation-resultslab-eu-lab"
          ]
        },
        "performer": [
          {
            "display": "The Central European Lab"
          }
        ],
        "category": [
          {
            "coding": [
              {
                "system": "http://terminology.hl7.org/CodeSystem/observation-category",
                "code": "laboratory"
              }
            ]
          }
        ],
        "code": {
          "coding": [
            {
              "code": "2571-8",
              "system": "http://loinc.org",
              "display": "Triglyceride [Mass/volume] in Serum or Plasma"
            }
          ],
          "text": "Triglyceride [Mass/volume] in Serum or Plasma"
        },
        "valueQuantity": {
          "system": "http://unitsofmeasure.org",
          "value": 165,
          "unit": "mg/dL",
          "code": "mg/dL"
        },
        "referenceRange": [
          {
            "low": {
              "value": 0,
              "code": "mg/dL",
              "system": "http://unitsofmeasure.org"
            }
          },
          {
            "high": {
              "value": 150,
              "code": "mg/dL",
              "system": "http://unitsofmeasure.org"
            }
          }
        ],
        "interpretation": [
          {
            "coding": [
              {
                "code": "H",
                "system": "http://terminology.hl7.org/CodeSystem/v3-ObservationInterpretation",
                "display": "High"
              }
            ]
          }
        ],
        "text": {
          "status": "generated",
          "div": "<div xmlns=\"http://www.w3.org/1999/xhtml\"><table class=\"hl7__eu__lab__report\"><tr><th>Test</th><th>10-Jun-2024</th><th>Reference&#xA0;Range</th><th>Unit</th></tr><tr><td>Triglyceride [Mass/volume] in Serum or Plasma</td><td>165.0</td><td>0 - 150</td><td>H</td><td>mg/dL</td></tr></table></div>"
        },
        "status": "final",
        "subject": {
          "reference": "urn:uuid:a093d9e2-d5ef-4ef9-8752-49d4b281a6c7",
          "display": "Gioele Fabbri"
        },
        "effectiveDateTime": "2024-06-10T15:46:20Z",
        "specimen": {
          "reference": "urn:uuid:d89215dd-576c-4ac3-8f90-b636baa7ee38"
        }
      }
    },
    {
      "fullUrl": "urn:uuid:6cb0410e-d268-4931-9171-9aa779b84fa5",
      "resource": {
        "resourceType": "Observation",
        "id": "6cb0410e-d268-4931-9171-9aa779b84fa5",
        "meta": {
          "profile": [
            "http://hl7.eu/fhir/laboratory/StructureDefinition/Observation-resultslab-eu-lab"
          ]
        },
        "performer": [
          {
            "display": "The Central European Lab"
          }
        ],
        "category": [
          {
            "coding": [
              {
                "system": "http://terminology.hl7.org/CodeSystem/observation-category",
                "code": "laboratory"
              }
            ]
          }
        ],
        "code": {
          "coding": [
            {
              "code": "18262-6",
              "system": "http://loinc.org",
              "display": "Cholesterol in LDL [Mass/volume] in Serum or Plasma by Direct assay"
            }
          ],
          "text": "Cholesterol in LDL [Mass/volume] in Serum or Plasma by Direct assay"
        },
        "valueQuantity": {
          "system": "http://unitsofmeasure.org",
          "value": 122.7,
          "unit": "mg/dL",
          "code": "mg/dL"
        },
        "referenceRange": [
          {
            "low": {
              "value": 0,
              "code": "mg/dL",
              "system": "http://unitsofmeasure.org"
            }
          },
          {
            "high": {
              "value": 130,
              "code": "mg/dL",
              "system": "http://unitsofmeasure.org"
            }
          }
        ],
        "text": {
          "status": "generated",
          "div": "<div xmlns=\"http://www.w3.org/1999/xhtml\"><table class=\"hl7__eu__lab__report\"><tr><th>Test</th><th>10-Jun-2024</th><th>Reference&#xA0;Range</th><th>Unit</th></tr><tr><td>Cholesterol in LDL [Mass/volume] in Serum or Plasma by Direct assay</td><td>122.7</td><td>0 - 130</td><td></td><td>mg/dL</td></tr></table></div>"
        },
        "status": "final",
        "subject": {
          "reference": "urn:uuid:a093d9e2-d5ef-4ef9-8752-49d4b281a6c7",
          "display": "Gioele Fabbri"
        },
        "effectiveDateTime": "2024-06-10T15:46:20Z",
        "specimen": {
          "reference": "urn:uuid:d89215dd-576c-4ac3-8f90-b636baa7ee38"
        }
      }
    },
    {
      "fullUrl": "urn:uuid:caa5089e-cfb7-4e0a-8b4f-4e2ca56cabc7",
      "resource": {
        "resourceType": "Observation",
        "id": "caa5089e-cfb7-4e0a-8b4f-4e2ca56cabc7",
        "meta": {
          "profile": [
            "http://hl7.eu/fhir/laboratory/StructureDefinition/Observation-resultslab-eu-lab"
          ]
        },
        "performer": [
          {
            "display": "The Central European Lab"
          }
        ],
        "category": [
          {
            "coding": [
              {
                "system": "http://terminology.hl7.org/CodeSystem/observation-category",
                "code": "laboratory"
              }
            ]
          }
        ],
        "code": {
          "coding": [
            {
              "code": "2085-9",
              "system": "http://loinc.org",
              "display": "Cholesterol in HDL [Mass/volume] in Serum or Plasma"
            }
          ],
          "text": "Cholesterol in HDL [Mass/volume] in Serum or Plasma"
        },
        "valueQuantity": {
          "system": "http://unitsofmeasure.org",
          "value": 66.4,
          "unit": "mg/dL",
          "code": "mg/dL"
        },
        "referenceRange": [
          {
            "low": {
              "value": 40,
              "code": "mg/dL",
              "system": "http://unitsofmeasure.org"
            }
          },
          {
            "high": {
              "value": 100,
              "code": "mg/dL",
              "system": "http://unitsofmeasure.org"
            }
          }
        ],
        "text": {
          "status": "generated",
          "div": "<div xmlns=\"http://www.w3.org/1999/xhtml\"><table class=\"hl7__eu__lab__report\"><tr><th>Test</th><th>10-Jun-2024</th><th>Reference&#xA0;Range</th><th>Unit</th></tr><tr><td>Cholesterol in HDL [Mass/volume] in Serum or Plasma</td><td>66.4</td><td>40 - 100</td><td></td><td>mg/dL</td></tr></table></div>"
        },
        "status": "final",
        "subject": {
          "reference": "urn:uuid:a093d9e2-d5ef-4ef9-8752-49d4b281a6c7",
          "display": "Gioele Fabbri"
        },
        "effectiveDateTime": "2024-06-10T15:46:20Z",
        "specimen": {
          "reference": "urn:uuid:d89215dd-576c-4ac3-8f90-b636baa7ee38"
        }
      }
    },
    {
      "fullUrl": "urn:uuid:df06a30e-6795-493d-baf9-21ca55027709",
      "resource": {
        "resourceType": "Device",
        "id": "df06a30e-6795-493d-baf9-21ca55027709",
        "deviceName": [
          {
            "name": "SYNDERAI Synthetic Generator",
            "type": "manufacturer-name"
          }
        ],
        "version": [
          {
            "value": "5.0"
          }
        ],
        "text": {
          "status": "generated",
          "div": "<div xmlns=\"http://www.w3.org/1999/xhtml\">SYNDERAI Synthetic Generator v5.0</div>"
        },
        "status": "active\"",
        "distinctIdentifier": "synderai-generator-50",
        "manufacturer": "SYNDERAI Project"
      }
    },
    {
      "fullUrl": "urn:uuid:c813c9a6-b46e-4801-a558-fbfd4bcc1c46",
      "resource": {
        "resourceType": "Provenance",
        "id": "c813c9a6-b46e-4801-a558-fbfd4bcc1c46",
        "target": [
          {
            "reference": "Patient/a093d9e2-d5ef-4ef9-8752-49d4b281a6c7"
          },
          {
            "reference": "Bundle/2568b6bf-48da-490f-af32-bd45c559bfe4"
          },
          {
            "reference": "Composition/21e927e5-c30f-4cf4-9d75-35de4c71a0e7"
          },
          {
            "reference": "PractitionerRole/a32822d7-a4c4-4c3c-935c-4229299d1c78"
          },
          {
            "reference": "Practitioner/9f247872-23d2-4418-a799-233276f4f09f"
          },
          {
            "reference": "PractitionerRole/9a79afb5-5341-4584-84ec-bd024483f6b3"
          },
          {
            "reference": "Organization/b2aef4f5-9fa7-4678-8fab-8c13d07e28e3"
          }
        ],
        "activity": {
          "text": "Synthetic Example Data Generation"
        },
        "policy": [
          "https://synderai.net/synderai-synthetic-data-policy"
        ],
        "agent": [
          {
            "type": {
              "text": "author"
            },
            "who": {
              "reference": "Device/df06a30e-6795-493d-baf9-21ca55027709"
            }
          }
        ],
        "reason": [
          {
            "text": "Interoperability Testing and Training (non-clinical use)"
          }
        ],
        "text": {
          "status": "generated",
          "div": "<div xmlns=\"http://www.w3.org/1999/xhtml\">Provenance for SYNDERAI Synthetic Example Data Resource</div>"
        },
        "recorded": "2024-06-10T17:46:20Z"
      }
    },
    {
      "fullUrl": "urn:uuid:a32822d7-a4c4-4c3c-935c-4229299d1c78",
      "resource": {
        "resourceType": "PractitionerRole",
        "id": "a32822d7-a4c4-4c3c-935c-4229299d1c78",
        "meta": {
          "profile": [
            "http://hl7.eu/fhir/base/StructureDefinition/practitionerRole-eu"
          ]
        },
        "text": {
          "status": "generated",
          "div": "<div xmlns=\"http://www.w3.org/1999/xhtml\">Laboratory Role Id: a32822d7-a4c4-4c3c-935c-4229299d1c78</div>"
        },
        "practitioner": {
          "reference": "urn:uuid:9f247872-23d2-4418-a799-233276f4f09f"
        }
      }
    },
    {
      "fullUrl": "urn:uuid:9f247872-23d2-4418-a799-233276f4f09f",
      "resource": {
        "resourceType": "Practitioner",
        "id": "9f247872-23d2-4418-a799-233276f4f09f",
        "meta": {
          "profile": [
            "http://hl7.eu/fhir/base/StructureDefinition/practitioner-eu"
          ]
        },
        "identifier": [
          {
            "assigner": {
              "display": "HL7 Europe"
            },
            "system": "urn:oid:2.16.840.1.113883.2.51.999",
            "value": "6199aa1c-3907-4d18-b3c9-ea099fbb4c60"
          }
        ],
        "name": [
          {
            "prefix": [
              "dr"
            ],
            "given": [
              "Ex"
            ],
            "family": "Ample"
          }
        ],
        "address": [
          {
            "line": [
              "Laboratoire Central Européenne",
              "Boulevard du Jardin Botanique 32"
            ],
            "postalCode": "1000",
            "city": "Brussels",
            "country": "Belgium"
          }
        ],
        "text": {
          "status": "generated",
          "div": "<div xmlns=\"http://www.w3.org/1999/xhtml\">Laboratory: Laboratoire Central Européenne, 1000 Brussels, Belgium</div>"
        }
      }
    }
  ],
  "type": "document",
  "timestamp": "2024-06-10T17:46:20Z"
}
