<Bundle xmlns="http://hl7.org/fhir">
   <id value="b26fc513-4b53-451a-a2e2-0c1b4cedcdb9"/>
   <meta>
      <profile value="http://hl7.eu/fhir/laboratory/StructureDefinition/Bundle-eu-lab"/>
   </meta>
   <identifier>
      <system value="urn:oid:2.16.840.1.113883.2.51.999"/>
      <value value="a585d3cc-ed15-42b6-aa6a-67604a6dc61a"/>
      <assigner>
         <display value="HL7 Europe"/>
      </assigner>
   </identifier>
   <type value="document"/>
   <timestamp value="2017-09-29T23:58:43Z"/>
   <entry>
      <fullUrl value="urn:uuid:4881bbfe-6329-43d3-8df7-5fd088b2c3f6"/>
      <resource>
         <Composition>
            <id value="4881bbfe-6329-43d3-8df7-5fd088b2c3f6"/>
            <meta>
               <profile value="http://hl7.eu/fhir/laboratory/StructureDefinition/Composition-eu-lab"/>
            </meta>
            <identifier>
               <system value="urn:oid:2.16.840.1.113883.2.51.999"/>
               <value value="a9362716-264a-4119-b709-4cc3abfcfb9d"/>
               <assigner>
                  <display value="HL7 Europe"/>
               </assigner>
            </identifier>
            <status value="final"/>
            <type>
               <coding>
                  <system value="http://loinc.org"/>
                  <code value="11502-2"/>
                  <display value="Laboratory report"/>
               </coding>
               <text value="Laboratory Report"/>
            </type>
            <category>
               <coding>
                  <system value="http://loinc.org"/>
                  <code value="26436-6"/>
                  <display value="Laboratory studies (set)"/>
               </coding>
            </category>
            <subject>
               <reference value="urn:uuid:edcd2e15-c25b-4c4e-b9b7-d48a02d8979e"/>
               <display value="Hynek Kubíčková"/>
            </subject>
            <date value="2017-09-29T23:58:43Z"/>
            <author>
               <reference value="urn:uuid:b9894c83-cdb6-4320-ba96-0da34c775b1a"/>
            </author>
            <title value="Laboratory Report"/>
            <confidentiality value="N"/>
            <section>
               <title value="Laboratory Report"/>
               <code>
                  <coding>
                     <system value="http://loinc.org"/>
                     <code value="26436-6"/>
                     <display value="Laboratory studies (set)"/>
                  </coding>
                  <text value="Laboratory studies"/>
               </code>
               <section>
                  <title value="Allergens"/>
                  <code>
                     <coding>
                        <system value="http://loinc.org"/>
                        <code value="$20662-3"/>
                        <display value="Allergens tested for in Serum"/>
                     </coding>
                     <text value="Allergens"/>
                  </code>
                  <text>
                     <status value="generated"/>
                     <div xmlns="http://www.w3.org/1999/xhtml">
                        <h3>Allergens</h3>
                        <table class="hl7__eu__lab__report">
                           <thead>
                              <tr>
                                 <th>Test</th>
                                 <th>29-SEP-2017</th>
                                 <th>Reference Range</th>
                                 <th>Unit</th>
                              </tr>
                           </thead>
                           <tbody>
                              <tr>
                                 <td>Peanut IgE Ab [Units/volume] in Serum</td>
                                 <td>0.3</td>
                                 <td>0 - 0.35</td>
                                 <td>kU/L</td>
                              </tr>
                              <tr>
                                 <td>Walnut IgE Ab [Units/volume] in Serum</td>
                                 <td>0.1</td>
                                 <td>0 - 100</td>
                                 <td>kU/L</td>
                              </tr>
                              <tr>
                                 <td>Codfish IgE Ab [Units/volume] in Serum</td>
                                 <td>0.3</td>
                                 <td>0 - 100</td>
                                 <td>kU/L</td>
                              </tr>
                              <tr>
                                 <td>Shrimp IgE Ab [Units/volume] in Serum</td>
                                 <td>0.0</td>
                                 <td>0 - 0.35</td>
                                 <td>kU/L</td>
                              </tr>
                              <tr>
                                 <td>Wheat IgE Ab [Units/volume] in Serum</td>
                                 <td>0.1</td>
                                 <td>0 - 100</td>
                                 <td>kU/L</td>
                              </tr>
                              <tr>
                                 <td>Egg white IgE Ab [Units/volume] in Serum</td>
                                 <td>0.3</td>
                                 <td>0 - 100</td>
                                 <td>kU/L</td>
                              </tr>
                              <tr>
                                 <td>Soybean IgE Ab [Units/volume] in Serum</td>
                                 <td>0.3</td>
                                 <td>0 - 0.35</td>
                                 <td>kU/L</td>
                              </tr>
                              <tr>
                                 <td>Cow milk IgE Ab [Units/volume] in Serum</td>
                                 <td>0.3</td>
                                 <td>0 - 0.35</td>
                                 <td>kU/L</td>
                              </tr>
                              <tr>
                                 <td>White Oak IgE Ab [Units/volume] in Serum</td>
                                 <td>0.2</td>
                                 <td>0 - 100</td>
                                 <td>kU/L</td>
                              </tr>
                              <tr>
                                 <td>Common Ragweed IgE Ab [Units/volume] in Serum</td>
                                 <td>0.3</td>
                                 <td>0 - 0.35</td>
                                 <td>kU/L</td>
                              </tr>
                              <tr>
                                 <td>Cat dander IgE Ab [Units/volume] in Serum</td>
                                 <td>0.3</td>
                                 <td>0 - 0.35</td>
                                 <td>kU/L</td>
                              </tr>
                              <tr>
                                 <td>American house dust mite IgE Ab [Units/volume] in Serum</td>
                                 <td>0.2</td>
                                 <td>0 - 0.35</td>
                                 <td>kU/L</td>
                              </tr>
                              <tr>
                                 <td>Cladosporium herbarum IgE Ab [Units/volume] in Serum</td>
                                 <td>0.3</td>
                                 <td>0 - 0.35</td>
                                 <td>kU/L</td>
                              </tr>
                              <tr>
                                 <td>Honey bee IgE Ab [Units/volume] in Serum</td>
                                 <td>0.1</td>
                                 <td>0 - 0.35</td>
                                 <td>kU/L</td>
                              </tr>
                              <tr>
                                 <td>Latex IgE Ab [Units/volume] in Serum</td>
                                 <td>0.3</td>
                                 <td>0 - 0.7</td>
                                 <td>kU/L</td>
                              </tr>
                           </tbody>
                        </table>
                     </div>
                  </text>
                  <entry>
                     <reference value="urn:uuid:5ad607ec-681f-46dd-987c-6d476c0c0f6d"/>
                  </entry>
                  <entry>
                     <reference value="urn:uuid:3aa0df41-5326-4883-a731-950c57b0a997"/>
                  </entry>
                  <entry>
                     <reference value="urn:uuid:773b0774-c96e-4634-b4fc-a1f6e9253282"/>
                  </entry>
                  <entry>
                     <reference value="urn:uuid:84da2a07-14c4-46bc-8236-f3e644ce6159"/>
                  </entry>
                  <entry>
                     <reference value="urn:uuid:44742f6b-3ae7-45f5-9e0b-8440d12635e9"/>
                  </entry>
                  <entry>
                     <reference value="urn:uuid:63f6b135-5471-4c4c-a82c-6867a65d3fe2"/>
                  </entry>
                  <entry>
                     <reference value="urn:uuid:c9c79aea-51e2-44f4-9bc5-d6352d23a59d"/>
                  </entry>
                  <entry>
                     <reference value="urn:uuid:afea60ef-ebdb-4014-9160-f19c48940b42"/>
                  </entry>
                  <entry>
                     <reference value="urn:uuid:b702f703-3cc2-4e9c-b9c5-b2bee2cc91ed"/>
                  </entry>
                  <entry>
                     <reference value="urn:uuid:db9936a0-aec8-41e3-b2ea-e54e3721760a"/>
                  </entry>
                  <entry>
                     <reference value="urn:uuid:31164eee-6f0b-4d5f-82f6-85f02d5ef36d"/>
                  </entry>
                  <entry>
                     <reference value="urn:uuid:10098fe6-b82f-48b6-af54-825a25452403"/>
                  </entry>
                  <entry>
                     <reference value="urn:uuid:3936669f-8e49-4ed4-ad5e-ce5312a5e335"/>
                  </entry>
                  <entry>
                     <reference value="urn:uuid:28a9c784-9f93-4061-b883-7ede804d019b"/>
                  </entry>
                  <entry>
                     <reference value="urn:uuid:b7b0115d-c67e-4613-9d60-d7c2eee8d6ff"/>
                  </entry>
               </section>
            </section>
            <section>
               <title value="Annotation comment"/>
               <code>
                  <coding>
                     <system value="http://loinc.org"/>
                     <code value="48767-8"/>
                     <display value="Annotation comment"/>
                  </coding>
               </code>
               <text>
                  <status value="generated"/>
                  <div xmlns="http://www.w3.org/1999/xhtml">
                     <h3>Annotation</h3>
                     <table class="hl7__eu__lab__report">
                        <tr>
                           <th>Conclusion and Recommendations based on this report and previous findings known to us</th>
                        </tr>
                        <tr>
                           <td>All tested specific IgE antibodies are within normal limits, with no significant sensitization detected to common food or environmental allergens. No laboratory evidence of IgE-mediated allergy is present based on these results. Clinical correlation is recommended if symptoms persist.</td>
                        </tr>
                     </table>
                  </div>
               </text>
            </section>
         </Composition>
      </resource>
   </entry>
   <entry>
      <fullUrl value="urn:uuid:02e73a0b-a4db-46fc-8c37-cfeb824ec315"/>
      <resource>
         <DiagnosticReport>
            <id value="02e73a0b-a4db-46fc-8c37-cfeb824ec315"/>
            <meta>
               <profile value="http://hl7.eu/fhir/laboratory/StructureDefinition/DiagnosticReport-eu-lab"/>
            </meta>
            <extension url="http://hl7.org/fhir/5.0/StructureDefinition/extension-DiagnosticReport.composition">
               <valueReference>
                  <reference value="urn:uuid:a9362716-264a-4119-b709-4cc3abfcfb9d"/>
               </valueReference>
            </extension>
            <identifier>
               <system value="urn:oid:2.16.840.1.113883.2.51.999"/>
               <value value="73f37937-7243-4f8f-8486-ebc9425457e8"/>
               <assigner>
                  <display value="HL7 Europe"/>
               </assigner>
            </identifier>
            <status value="registered"/>
            <category>
               <coding>
                  <system value="http://loinc.org"/>
                  <code value="26436-6"/>
                  <display value="Laboratory studies (set)"/>
               </coding>
            </category>
            <code>
               <coding>
                  <system value="http://loinc.org"/>
                  <code value="11502-2"/>
                  <display value="Laboratory report"/>
               </coding>
            </code>
            <subject>
               <reference value="urn:uuid:edcd2e15-c25b-4c4e-b9b7-d48a02d8979e"/>
               <display value="Hynek Kubíčková"/>
            </subject>
            <specimen>
               <reference value="urn:uuid:d8f5afc9-fc63-4e2b-bf52-2700fbe5fe8b"/>
            </specimen>
            <result>
               <reference value="urn:uuid:5ad607ec-681f-46dd-987c-6d476c0c0f6d"/>
            </result>
            <result>
               <reference value="urn:uuid:3aa0df41-5326-4883-a731-950c57b0a997"/>
            </result>
            <result>
               <reference value="urn:uuid:773b0774-c96e-4634-b4fc-a1f6e9253282"/>
            </result>
            <result>
               <reference value="urn:uuid:84da2a07-14c4-46bc-8236-f3e644ce6159"/>
            </result>
            <result>
               <reference value="urn:uuid:44742f6b-3ae7-45f5-9e0b-8440d12635e9"/>
            </result>
            <result>
               <reference value="urn:uuid:63f6b135-5471-4c4c-a82c-6867a65d3fe2"/>
            </result>
            <result>
               <reference value="urn:uuid:c9c79aea-51e2-44f4-9bc5-d6352d23a59d"/>
            </result>
            <result>
               <reference value="urn:uuid:afea60ef-ebdb-4014-9160-f19c48940b42"/>
            </result>
            <result>
               <reference value="urn:uuid:b702f703-3cc2-4e9c-b9c5-b2bee2cc91ed"/>
            </result>
            <result>
               <reference value="urn:uuid:db9936a0-aec8-41e3-b2ea-e54e3721760a"/>
            </result>
            <result>
               <reference value="urn:uuid:31164eee-6f0b-4d5f-82f6-85f02d5ef36d"/>
            </result>
            <result>
               <reference value="urn:uuid:10098fe6-b82f-48b6-af54-825a25452403"/>
            </result>
            <result>
               <reference value="urn:uuid:3936669f-8e49-4ed4-ad5e-ce5312a5e335"/>
            </result>
            <result>
               <reference value="urn:uuid:28a9c784-9f93-4061-b883-7ede804d019b"/>
            </result>
            <result>
               <reference value="urn:uuid:b7b0115d-c67e-4613-9d60-d7c2eee8d6ff"/>
            </result>
         </DiagnosticReport>
      </resource>
   </entry>
   <entry>
      <fullUrl value="urn:uuid:edcd2e15-c25b-4c4e-b9b7-d48a02d8979e"/>
      <resource>
         <Patient>
            <id value="edcd2e15-c25b-4c4e-b9b7-d48a02d8979e"/>
            <meta>
               <profile value="http://hl7.eu/fhir/base/StructureDefinition/patient-eu-core"/>
               <security>
                  <system value="http://terminology.hl7.org/CodeSystem/v3-ActReason"/>
                  <code value="HTEST"/>
               </security>
               <security>
                  <system value="http://terminology.hl7.org/CodeSystem/v3-ActReason"/>
                  <code value="TRAIN"/>
               </security>
               <tag>
                  <system value="https://synderai.net/fhir/CodeSystem/tags"/>
                  <code value="synthetic"/>
                  <display value="SYNDERAI Synthetic data"/>
               </tag>
            </meta>
            <text>
               <status value="generated"/>
               <div xmlns="http://www.w3.org/1999/xhtml">
                  <table class="hl7__ips">
                     <tr>
                        <td>Hynek Kubíčková</td>
                        <td>male</td>
                        <td>24-Jun-2005</td>
                     </tr>
                  </table>
               </div>
            </text>
            <extension url="http://hl7.org/fhir/StructureDefinition/patient-nationality">
               <valueCodeableConcept>
                  <coding>
                     <system value="http://hl7.org/fhir/ValueSet/country"/>
                     <code value="CZ"/>
                  </coding>
               </valueCodeableConcept>
            </extension>
            <identifier>
               <type>
                  <coding>
                     <system value="http://terminology.hl7.org/CodeSystem/v2-0203"/>
                     <code value="PT"/>
                  </coding>
               </type>
               <system value="http://ec.europa.eu/identifier/eci"/>
               <value value="9771-756399-9"/>
            </identifier>
            <identifier>
               <type>
                  <coding>
                     <system value="http://terminology.hl7.org/CodeSystem/v2-0203"/>
                     <code value="MR"/>
                  </coding>
               </type>
               <system value="http://local.setting.eu/identifier"/>
               <value value="0a9c3ea6-b526-4dcc-cde1-545cdfca14b2"/>
            </identifier>
            <name>
               <family value="Kubíčková"/>
            </name>
            <name>
               <given value="Hynek"/>
            </name>
            <name>
               <text value="Hynek Kubíčková"/>
            </name>
            <telecom>
               <system value="phone"/>
               <value value="+420 605 458 784"/>
            </telecom>
            <gender value="male"/>
            <birthDate value="2005-06-24"/>
            <address>
               <use value="home"/>
               <type value="physical"/>
               <line value="Vraňanská 9"/>
               <city value="Frýdlant nad Ostravicí"/>
               <postalCode value="739 11"/>
               <country value="Czechia"/>
            </address>
         </Patient>
      </resource>
   </entry>
   <entry>
      <fullUrl value="urn:uuid:a7f2a766-3579-41c9-82e7-171969c4a9f0"/>
      <resource>
         <ServiceRequest>
            <id value="a7f2a766-3579-41c9-82e7-171969c4a9f0"/>
            <meta>
               <profile value="http://hl7.eu/fhir/laboratory/StructureDefinition/ServiceRequest-eu-lab"/>
            </meta>
            <identifier>
               <system value="http://example.org"/>
               <value value="4f239b41-6143-43c4-b97c-b41999465f88"/>
            </identifier>
            <status value="active"/>
            <intent value="order"/>
            <code>
               <coding>
                  <system value="http://snomed.info/sct"/>
                  <code value="108252007"/>
                  <display value="Laboratory procedure"/>
               </coding>
            </code>
            <subject>
               <reference value="urn:uuid:edcd2e15-c25b-4c4e-b9b7-d48a02d8979e"/>
               <display value="Hynek Kubíčková"/>
            </subject>
            <requester>
               <reference value="urn:uuid:654485fc-7377-44a5-b917-2294a6eb35a2"/>
            </requester>
            <specimen>
               <reference value="urn:uuid:d8f5afc9-fc63-4e2b-bf52-2700fbe5fe8b"/>
            </specimen>
         </ServiceRequest>
      </resource>
   </entry>
   <entry>
      <fullUrl value="urn:uuid:654485fc-7377-44a5-b917-2294a6eb35a2"/>
      <resource>
         <PractitionerRole>
            <id value="654485fc-7377-44a5-b917-2294a6eb35a2"/>
            <meta>
               <profile value="http://hl7.eu/fhir/base/StructureDefinition/practitionerRole-eu"/>
            </meta>
            <text>
               <status value="generated"/>
               <div xmlns="http://www.w3.org/1999/xhtml">Provider Role Id: 654485fc-7377-44a5-b917-2294a6eb35a2</div>
            </text>
            <organization>
               <reference value="urn:uuid:bd0a11f5-72c4-45fc-ba5b-f0f988a84041"/>
            </organization>
         </PractitionerRole>
      </resource>
   </entry>
   <entry>
      <fullUrl value="urn:uuid:bd0a11f5-72c4-45fc-ba5b-f0f988a84041"/>
      <resource>
         <Organization>
            <id value="bd0a11f5-72c4-45fc-ba5b-f0f988a84041"/>
            <meta>
               <profile value="http://hl7.eu/fhir/base/StructureDefinition/organization-eu"/>
            </meta>
            <text>
               <status value="generated"/>
               <div xmlns="http://www.w3.org/1999/xhtml">Provider Organization: Beskydské rehabilitační centrum</div>
            </text>
            <identifier>
               <system value="urn:oid:2.16.840.1.113883.2.51.999"/>
               <value value="26906cfa-56f6-45e8-8af1-0b51153dd945"/>
               <assigner>
                  <display value="HL7 Europe"/>
               </assigner>
            </identifier>
            <name value="Beskydské rehabilitační centrum"/>
            <address>
               <city value="Čeladná"/>
               <postalCode value="739 12"/>
               <country value="Czechia"/>
            </address>
         </Organization>
      </resource>
   </entry>
   <entry>
      <fullUrl value="urn:uuid:d8f5afc9-fc63-4e2b-bf52-2700fbe5fe8b"/>
      <resource>
         <Specimen>
            <id value="d8f5afc9-fc63-4e2b-bf52-2700fbe5fe8b"/>
            <meta>
               <profile value="http://hl7.eu/fhir/laboratory/StructureDefinition/Specimen-eu-lab"/>
            </meta>
            <text>
               <status value="generated"/>
               <div xmlns="http://www.w3.org/1999/xhtml">
                  <table class="hl7__eu__lab__report">
                     <tr>
                        <th>Specimen</th>
                        <th>Collection Date</th>
                     </tr>
                     <tr>
                        <td>Serum specimen</td>
                        <td>
                           <span class="nb">29-Sep-2017</span>
                        </td>
                     </tr>
                  </table>
               </div>
            </text>
            <type>
               <coding>
                  <system value="http://snomed.info/sct"/>
                  <code value="119364003"/>
                  <display value="Serum specimen"/>
               </coding>
            </type>
            <collection>
               <collectedDateTime value="2017-09-29"/>
            </collection>
         </Specimen>
      </resource>
   </entry>
   <entry>
      <fullUrl value="urn:uuid:5ad607ec-681f-46dd-987c-6d476c0c0f6d"/>
      <resource>
         <Observation>
            <id value="5ad607ec-681f-46dd-987c-6d476c0c0f6d"/>
            <meta>
               <profile value="http://hl7.eu/fhir/laboratory/StructureDefinition/Observation-resultslab-eu-lab"/>
            </meta>
            <text>
               <status value="generated"/>
               <div xmlns="http://www.w3.org/1999/xhtml">
                  <table class="hl7__eu__lab__report">
                     <tr>
                        <th>Test</th>
                        <th>29-Sep-2017</th>
                        <th>Reference Range</th>
                        <th>Unit</th>
                     </tr>
                     <tr>
                        <td>Peanut IgE Ab [Units/volume] in Serum</td>
                        <td>0.3</td>
                        <td>0 - 0.35</td>
                        <td/>
                        <td>kU/L</td>
                     </tr>
                  </table>
               </div>
            </text>
            <status value="final"/>
            <category>
               <coding>
                  <system value="http://terminology.hl7.org/CodeSystem/observation-category"/>
                  <code value="laboratory"/>
               </coding>
            </category>
            <code>
               <coding>
                  <system value="http://loinc.org"/>
                  <code value="6206-7"/>
                  <display value="Peanut IgE Ab [Units/volume] in Serum"/>
               </coding>
               <text value="Peanut IgE Ab [Units/volume] in Serum"/>
            </code>
            <subject>
               <reference value="urn:uuid:edcd2e15-c25b-4c4e-b9b7-d48a02d8979e"/>
               <display value="Hynek Kubíčková"/>
            </subject>
            <effectiveDateTime value="2017-09-29T21:58:43Z"/>
            <performer>
               <display value="The Central European Lab"/>
            </performer>
            <valueQuantity>
               <value value="0.3"/>
               <unit value="kU/L"/>
               <system value="http://unitsofmeasure.org"/>
               <code value="kU/L"/>
            </valueQuantity>
            <specimen>
               <reference value="urn:uuid:d8f5afc9-fc63-4e2b-bf52-2700fbe5fe8b"/>
            </specimen>
            <referenceRange>
               <low>
                  <value value="0"/>
                  <system value="http://unitsofmeasure.org"/>
                  <code value="kU/L"/>
               </low>
            </referenceRange>
            <referenceRange>
               <high>
                  <value value="0.35"/>
                  <system value="http://unitsofmeasure.org"/>
                  <code value="kU/L"/>
               </high>
            </referenceRange>
         </Observation>
      </resource>
   </entry>
   <entry>
      <fullUrl value="urn:uuid:3aa0df41-5326-4883-a731-950c57b0a997"/>
      <resource>
         <Observation>
            <id value="3aa0df41-5326-4883-a731-950c57b0a997"/>
            <meta>
               <profile value="http://hl7.eu/fhir/laboratory/StructureDefinition/Observation-resultslab-eu-lab"/>
            </meta>
            <text>
               <status value="generated"/>
               <div xmlns="http://www.w3.org/1999/xhtml">
                  <table class="hl7__eu__lab__report">
                     <tr>
                        <th>Test</th>
                        <th>29-Sep-2017</th>
                        <th>Reference Range</th>
                        <th>Unit</th>
                     </tr>
                     <tr>
                        <td>Walnut IgE Ab [Units/volume] in Serum</td>
                        <td>0.1</td>
                        <td>0 - 100</td>
                        <td/>
                        <td>kU/L</td>
                     </tr>
                  </table>
               </div>
            </text>
            <status value="final"/>
            <category>
               <coding>
                  <system value="http://terminology.hl7.org/CodeSystem/observation-category"/>
                  <code value="laboratory"/>
               </coding>
            </category>
            <code>
               <coding>
                  <system value="http://loinc.org"/>
                  <code value="6273-7"/>
                  <display value="Walnut IgE Ab [Units/volume] in Serum"/>
               </coding>
               <text value="Walnut IgE Ab [Units/volume] in Serum"/>
            </code>
            <subject>
               <reference value="urn:uuid:edcd2e15-c25b-4c4e-b9b7-d48a02d8979e"/>
               <display value="Hynek Kubíčková"/>
            </subject>
            <effectiveDateTime value="2017-09-29T21:58:43Z"/>
            <performer>
               <display value="The Central European Lab"/>
            </performer>
            <valueQuantity>
               <value value="0.1"/>
               <unit value="kU/L"/>
               <system value="http://unitsofmeasure.org"/>
               <code value="kU/L"/>
            </valueQuantity>
            <specimen>
               <reference value="urn:uuid:d8f5afc9-fc63-4e2b-bf52-2700fbe5fe8b"/>
            </specimen>
            <referenceRange>
               <low>
                  <value value="0"/>
                  <system value="http://unitsofmeasure.org"/>
                  <code value="kU/L"/>
               </low>
            </referenceRange>
            <referenceRange>
               <high>
                  <value value="100"/>
                  <system value="http://unitsofmeasure.org"/>
                  <code value="kU/L"/>
               </high>
            </referenceRange>
         </Observation>
      </resource>
   </entry>
   <entry>
      <fullUrl value="urn:uuid:773b0774-c96e-4634-b4fc-a1f6e9253282"/>
      <resource>
         <Observation>
            <id value="773b0774-c96e-4634-b4fc-a1f6e9253282"/>
            <meta>
               <profile value="http://hl7.eu/fhir/laboratory/StructureDefinition/Observation-resultslab-eu-lab"/>
            </meta>
            <text>
               <status value="generated"/>
               <div xmlns="http://www.w3.org/1999/xhtml">
                  <table class="hl7__eu__lab__report">
                     <tr>
                        <th>Test</th>
                        <th>29-Sep-2017</th>
                        <th>Reference Range</th>
                        <th>Unit</th>
                     </tr>
                     <tr>
                        <td>Codfish IgE Ab [Units/volume] in Serum</td>
                        <td>0.3</td>
                        <td>0 - 100</td>
                        <td/>
                        <td>kU/L</td>
                     </tr>
                  </table>
               </div>
            </text>
            <status value="final"/>
            <category>
               <coding>
                  <system value="http://terminology.hl7.org/CodeSystem/observation-category"/>
                  <code value="laboratory"/>
               </coding>
            </category>
            <code>
               <coding>
                  <system value="http://loinc.org"/>
                  <code value="6082-2"/>
                  <display value="Codfish IgE Ab [Units/volume] in Serum"/>
               </coding>
               <text value="Codfish IgE Ab [Units/volume] in Serum"/>
            </code>
            <subject>
               <reference value="urn:uuid:edcd2e15-c25b-4c4e-b9b7-d48a02d8979e"/>
               <display value="Hynek Kubíčková"/>
            </subject>
            <effectiveDateTime value="2017-09-29T21:58:43Z"/>
            <performer>
               <display value="The Central European Lab"/>
            </performer>
            <valueQuantity>
               <value value="0.3"/>
               <unit value="kU/L"/>
               <system value="http://unitsofmeasure.org"/>
               <code value="kU/L"/>
            </valueQuantity>
            <specimen>
               <reference value="urn:uuid:d8f5afc9-fc63-4e2b-bf52-2700fbe5fe8b"/>
            </specimen>
            <referenceRange>
               <low>
                  <value value="0"/>
                  <system value="http://unitsofmeasure.org"/>
                  <code value="kU/L"/>
               </low>
            </referenceRange>
            <referenceRange>
               <high>
                  <value value="100"/>
                  <system value="http://unitsofmeasure.org"/>
                  <code value="kU/L"/>
               </high>
            </referenceRange>
         </Observation>
      </resource>
   </entry>
   <entry>
      <fullUrl value="urn:uuid:84da2a07-14c4-46bc-8236-f3e644ce6159"/>
      <resource>
         <Observation>
            <id value="84da2a07-14c4-46bc-8236-f3e644ce6159"/>
            <meta>
               <profile value="http://hl7.eu/fhir/laboratory/StructureDefinition/Observation-resultslab-eu-lab"/>
            </meta>
            <text>
               <status value="generated"/>
               <div xmlns="http://www.w3.org/1999/xhtml">
                  <table class="hl7__eu__lab__report">
                     <tr>
                        <th>Test</th>
                        <th>29-Sep-2017</th>
                        <th>Reference Range</th>
                        <th>Unit</th>
                     </tr>
                     <tr>
                        <td>Shrimp IgE Ab [Units/volume] in Serum</td>
                        <td>0.0</td>
                        <td>0 - 0.35</td>
                        <td/>
                        <td>kU/L</td>
                     </tr>
                  </table>
               </div>
            </text>
            <status value="final"/>
            <category>
               <coding>
                  <system value="http://terminology.hl7.org/CodeSystem/observation-category"/>
                  <code value="laboratory"/>
               </coding>
            </category>
            <code>
               <coding>
                  <system value="http://loinc.org"/>
                  <code value="6246-3"/>
                  <display value="Shrimp IgE Ab [Units/volume] in Serum"/>
               </coding>
               <text value="Shrimp IgE Ab [Units/volume] in Serum"/>
            </code>
            <subject>
               <reference value="urn:uuid:edcd2e15-c25b-4c4e-b9b7-d48a02d8979e"/>
               <display value="Hynek Kubíčková"/>
            </subject>
            <effectiveDateTime value="2017-09-29T21:58:43Z"/>
            <performer>
               <display value="The Central European Lab"/>
            </performer>
            <valueQuantity>
               <value value="0"/>
               <unit value="kU/L"/>
               <system value="http://unitsofmeasure.org"/>
               <code value="kU/L"/>
            </valueQuantity>
            <specimen>
               <reference value="urn:uuid:d8f5afc9-fc63-4e2b-bf52-2700fbe5fe8b"/>
            </specimen>
            <referenceRange>
               <low>
                  <value value="0"/>
                  <system value="http://unitsofmeasure.org"/>
                  <code value="kU/L"/>
               </low>
            </referenceRange>
            <referenceRange>
               <high>
                  <value value="0.35"/>
                  <system value="http://unitsofmeasure.org"/>
                  <code value="kU/L"/>
               </high>
            </referenceRange>
         </Observation>
      </resource>
   </entry>
   <entry>
      <fullUrl value="urn:uuid:44742f6b-3ae7-45f5-9e0b-8440d12635e9"/>
      <resource>
         <Observation>
            <id value="44742f6b-3ae7-45f5-9e0b-8440d12635e9"/>
            <meta>
               <profile value="http://hl7.eu/fhir/laboratory/StructureDefinition/Observation-resultslab-eu-lab"/>
            </meta>
            <text>
               <status value="generated"/>
               <div xmlns="http://www.w3.org/1999/xhtml">
                  <table class="hl7__eu__lab__report">
                     <tr>
                        <th>Test</th>
                        <th>29-Sep-2017</th>
                        <th>Reference Range</th>
                        <th>Unit</th>
                     </tr>
                     <tr>
                        <td>Wheat IgE Ab [Units/volume] in Serum</td>
                        <td>0.1</td>
                        <td>0 - 100</td>
                        <td/>
                        <td>kU/L</td>
                     </tr>
                  </table>
               </div>
            </text>
            <status value="final"/>
            <category>
               <coding>
                  <system value="http://terminology.hl7.org/CodeSystem/observation-category"/>
                  <code value="laboratory"/>
               </coding>
            </category>
            <code>
               <coding>
                  <system value="http://loinc.org"/>
                  <code value="6276-0"/>
                  <display value="Wheat IgE Ab [Units/volume] in Serum"/>
               </coding>
               <text value="Wheat IgE Ab [Units/volume] in Serum"/>
            </code>
            <subject>
               <reference value="urn:uuid:edcd2e15-c25b-4c4e-b9b7-d48a02d8979e"/>
               <display value="Hynek Kubíčková"/>
            </subject>
            <effectiveDateTime value="2017-09-29T21:58:43Z"/>
            <performer>
               <display value="The Central European Lab"/>
            </performer>
            <valueQuantity>
               <value value="0.1"/>
               <unit value="kU/L"/>
               <system value="http://unitsofmeasure.org"/>
               <code value="kU/L"/>
            </valueQuantity>
            <specimen>
               <reference value="urn:uuid:d8f5afc9-fc63-4e2b-bf52-2700fbe5fe8b"/>
            </specimen>
            <referenceRange>
               <low>
                  <value value="0"/>
                  <system value="http://unitsofmeasure.org"/>
                  <code value="kU/L"/>
               </low>
            </referenceRange>
            <referenceRange>
               <high>
                  <value value="100"/>
                  <system value="http://unitsofmeasure.org"/>
                  <code value="kU/L"/>
               </high>
            </referenceRange>
         </Observation>
      </resource>
   </entry>
   <entry>
      <fullUrl value="urn:uuid:63f6b135-5471-4c4c-a82c-6867a65d3fe2"/>
      <resource>
         <Observation>
            <id value="63f6b135-5471-4c4c-a82c-6867a65d3fe2"/>
            <meta>
               <profile value="http://hl7.eu/fhir/laboratory/StructureDefinition/Observation-resultslab-eu-lab"/>
            </meta>
            <text>
               <status value="generated"/>
               <div xmlns="http://www.w3.org/1999/xhtml">
                  <table class="hl7__eu__lab__report">
                     <tr>
                        <th>Test</th>
                        <th>29-Sep-2017</th>
                        <th>Reference Range</th>
                        <th>Unit</th>
                     </tr>
                     <tr>
                        <td>Egg white IgE Ab [Units/volume] in Serum</td>
                        <td>0.3</td>
                        <td>0 - 100</td>
                        <td/>
                        <td>kU/L</td>
                     </tr>
                  </table>
               </div>
            </text>
            <status value="final"/>
            <category>
               <coding>
                  <system value="http://terminology.hl7.org/CodeSystem/observation-category"/>
                  <code value="laboratory"/>
               </coding>
            </category>
            <code>
               <coding>
                  <system value="http://loinc.org"/>
                  <code value="6106-9"/>
                  <display value="Egg white IgE Ab [Units/volume] in Serum"/>
               </coding>
               <text value="Egg white IgE Ab [Units/volume] in Serum"/>
            </code>
            <subject>
               <reference value="urn:uuid:edcd2e15-c25b-4c4e-b9b7-d48a02d8979e"/>
               <display value="Hynek Kubíčková"/>
            </subject>
            <effectiveDateTime value="2017-09-29T21:58:43Z"/>
            <performer>
               <display value="The Central European Lab"/>
            </performer>
            <valueQuantity>
               <value value="0.3"/>
               <unit value="kU/L"/>
               <system value="http://unitsofmeasure.org"/>
               <code value="kU/L"/>
            </valueQuantity>
            <specimen>
               <reference value="urn:uuid:d8f5afc9-fc63-4e2b-bf52-2700fbe5fe8b"/>
            </specimen>
            <referenceRange>
               <low>
                  <value value="0"/>
                  <system value="http://unitsofmeasure.org"/>
                  <code value="kU/L"/>
               </low>
            </referenceRange>
            <referenceRange>
               <high>
                  <value value="100"/>
                  <system value="http://unitsofmeasure.org"/>
                  <code value="kU/L"/>
               </high>
            </referenceRange>
         </Observation>
      </resource>
   </entry>
   <entry>
      <fullUrl value="urn:uuid:c9c79aea-51e2-44f4-9bc5-d6352d23a59d"/>
      <resource>
         <Observation>
            <id value="c9c79aea-51e2-44f4-9bc5-d6352d23a59d"/>
            <meta>
               <profile value="http://hl7.eu/fhir/laboratory/StructureDefinition/Observation-resultslab-eu-lab"/>
            </meta>
            <text>
               <status value="generated"/>
               <div xmlns="http://www.w3.org/1999/xhtml">
                  <table class="hl7__eu__lab__report">
                     <tr>
                        <th>Test</th>
                        <th>29-Sep-2017</th>
                        <th>Reference Range</th>
                        <th>Unit</th>
                     </tr>
                     <tr>
                        <td>Soybean IgE Ab [Units/volume] in Serum</td>
                        <td>0.3</td>
                        <td>0 - 0.35</td>
                        <td/>
                        <td>kU/L</td>
                     </tr>
                  </table>
               </div>
            </text>
            <status value="final"/>
            <category>
               <coding>
                  <system value="http://terminology.hl7.org/CodeSystem/observation-category"/>
                  <code value="laboratory"/>
               </coding>
            </category>
            <code>
               <coding>
                  <system value="http://loinc.org"/>
                  <code value="6248-9"/>
                  <display value="Soybean IgE Ab [Units/volume] in Serum"/>
               </coding>
               <text value="Soybean IgE Ab [Units/volume] in Serum"/>
            </code>
            <subject>
               <reference value="urn:uuid:edcd2e15-c25b-4c4e-b9b7-d48a02d8979e"/>
               <display value="Hynek Kubíčková"/>
            </subject>
            <effectiveDateTime value="2017-09-29T21:58:43Z"/>
            <performer>
               <display value="The Central European Lab"/>
            </performer>
            <valueQuantity>
               <value value="0.3"/>
               <unit value="kU/L"/>
               <system value="http://unitsofmeasure.org"/>
               <code value="kU/L"/>
            </valueQuantity>
            <specimen>
               <reference value="urn:uuid:d8f5afc9-fc63-4e2b-bf52-2700fbe5fe8b"/>
            </specimen>
            <referenceRange>
               <low>
                  <value value="0"/>
                  <system value="http://unitsofmeasure.org"/>
                  <code value="kU/L"/>
               </low>
            </referenceRange>
            <referenceRange>
               <high>
                  <value value="0.35"/>
                  <system value="http://unitsofmeasure.org"/>
                  <code value="kU/L"/>
               </high>
            </referenceRange>
         </Observation>
      </resource>
   </entry>
   <entry>
      <fullUrl value="urn:uuid:afea60ef-ebdb-4014-9160-f19c48940b42"/>
      <resource>
         <Observation>
            <id value="afea60ef-ebdb-4014-9160-f19c48940b42"/>
            <meta>
               <profile value="http://hl7.eu/fhir/laboratory/StructureDefinition/Observation-resultslab-eu-lab"/>
            </meta>
            <text>
               <status value="generated"/>
               <div xmlns="http://www.w3.org/1999/xhtml">
                  <table class="hl7__eu__lab__report">
                     <tr>
                        <th>Test</th>
                        <th>29-Sep-2017</th>
                        <th>Reference Range</th>
                        <th>Unit</th>
                     </tr>
                     <tr>
                        <td>Cow milk IgE Ab [Units/volume] in Serum</td>
                        <td>0.3</td>
                        <td>0 - 0.35</td>
                        <td/>
                        <td>kU/L</td>
                     </tr>
                  </table>
               </div>
            </text>
            <status value="final"/>
            <category>
               <coding>
                  <system value="http://terminology.hl7.org/CodeSystem/observation-category"/>
                  <code value="laboratory"/>
               </coding>
            </category>
            <code>
               <coding>
                  <system value="http://loinc.org"/>
                  <code value="7258-7"/>
                  <display value="Cow milk IgE Ab [Units/volume] in Serum"/>
               </coding>
               <text value="Cow milk IgE Ab [Units/volume] in Serum"/>
            </code>
            <subject>
               <reference value="urn:uuid:edcd2e15-c25b-4c4e-b9b7-d48a02d8979e"/>
               <display value="Hynek Kubíčková"/>
            </subject>
            <effectiveDateTime value="2017-09-29T21:58:43Z"/>
            <performer>
               <display value="The Central European Lab"/>
            </performer>
            <valueQuantity>
               <value value="0.3"/>
               <unit value="kU/L"/>
               <system value="http://unitsofmeasure.org"/>
               <code value="kU/L"/>
            </valueQuantity>
            <specimen>
               <reference value="urn:uuid:d8f5afc9-fc63-4e2b-bf52-2700fbe5fe8b"/>
            </specimen>
            <referenceRange>
               <low>
                  <value value="0"/>
                  <system value="http://unitsofmeasure.org"/>
                  <code value="kU/L"/>
               </low>
            </referenceRange>
            <referenceRange>
               <high>
                  <value value="0.35"/>
                  <system value="http://unitsofmeasure.org"/>
                  <code value="kU/L"/>
               </high>
            </referenceRange>
         </Observation>
      </resource>
   </entry>
   <entry>
      <fullUrl value="urn:uuid:b702f703-3cc2-4e9c-b9c5-b2bee2cc91ed"/>
      <resource>
         <Observation>
            <id value="b702f703-3cc2-4e9c-b9c5-b2bee2cc91ed"/>
            <meta>
               <profile value="http://hl7.eu/fhir/laboratory/StructureDefinition/Observation-resultslab-eu-lab"/>
            </meta>
            <text>
               <status value="generated"/>
               <div xmlns="http://www.w3.org/1999/xhtml">
                  <table class="hl7__eu__lab__report">
                     <tr>
                        <th>Test</th>
                        <th>29-Sep-2017</th>
                        <th>Reference Range</th>
                        <th>Unit</th>
                     </tr>
                     <tr>
                        <td>White Oak IgE Ab [Units/volume] in Serum</td>
                        <td>0.2</td>
                        <td>0 - 100</td>
                        <td/>
                        <td>kU/L</td>
                     </tr>
                  </table>
               </div>
            </text>
            <status value="final"/>
            <category>
               <coding>
                  <system value="http://terminology.hl7.org/CodeSystem/observation-category"/>
                  <code value="laboratory"/>
               </coding>
            </category>
            <code>
               <coding>
                  <system value="http://loinc.org"/>
                  <code value="6189-5"/>
                  <display value="White Oak IgE Ab [Units/volume] in Serum"/>
               </coding>
               <text value="White Oak IgE Ab [Units/volume] in Serum"/>
            </code>
            <subject>
               <reference value="urn:uuid:edcd2e15-c25b-4c4e-b9b7-d48a02d8979e"/>
               <display value="Hynek Kubíčková"/>
            </subject>
            <effectiveDateTime value="2017-09-29T21:58:43Z"/>
            <performer>
               <display value="The Central European Lab"/>
            </performer>
            <valueQuantity>
               <value value="0.2"/>
               <unit value="kU/L"/>
               <system value="http://unitsofmeasure.org"/>
               <code value="kU/L"/>
            </valueQuantity>
            <specimen>
               <reference value="urn:uuid:d8f5afc9-fc63-4e2b-bf52-2700fbe5fe8b"/>
            </specimen>
            <referenceRange>
               <low>
                  <value value="0"/>
                  <system value="http://unitsofmeasure.org"/>
                  <code value="kU/L"/>
               </low>
            </referenceRange>
            <referenceRange>
               <high>
                  <value value="100"/>
                  <system value="http://unitsofmeasure.org"/>
                  <code value="kU/L"/>
               </high>
            </referenceRange>
         </Observation>
      </resource>
   </entry>
   <entry>
      <fullUrl value="urn:uuid:db9936a0-aec8-41e3-b2ea-e54e3721760a"/>
      <resource>
         <Observation>
            <id value="db9936a0-aec8-41e3-b2ea-e54e3721760a"/>
            <meta>
               <profile value="http://hl7.eu/fhir/laboratory/StructureDefinition/Observation-resultslab-eu-lab"/>
            </meta>
            <text>
               <status value="generated"/>
               <div xmlns="http://www.w3.org/1999/xhtml">
                  <table class="hl7__eu__lab__report">
                     <tr>
                        <th>Test</th>
                        <th>29-Sep-2017</th>
                        <th>Reference Range</th>
                        <th>Unit</th>
                     </tr>
                     <tr>
                        <td>Common Ragweed IgE Ab [Units/volume] in Serum</td>
                        <td>0.3</td>
                        <td>0 - 0.35</td>
                        <td/>
                        <td>kU/L</td>
                     </tr>
                  </table>
               </div>
            </text>
            <status value="final"/>
            <category>
               <coding>
                  <system value="http://terminology.hl7.org/CodeSystem/observation-category"/>
                  <code value="laboratory"/>
               </coding>
            </category>
            <code>
               <coding>
                  <system value="http://loinc.org"/>
                  <code value="6085-5"/>
                  <display value="Common Ragweed IgE Ab [Units/volume] in Serum"/>
               </coding>
               <text value="Common Ragweed IgE Ab [Units/volume] in Serum"/>
            </code>
            <subject>
               <reference value="urn:uuid:edcd2e15-c25b-4c4e-b9b7-d48a02d8979e"/>
               <display value="Hynek Kubíčková"/>
            </subject>
            <effectiveDateTime value="2017-09-29T21:58:43Z"/>
            <performer>
               <display value="The Central European Lab"/>
            </performer>
            <valueQuantity>
               <value value="0.3"/>
               <unit value="kU/L"/>
               <system value="http://unitsofmeasure.org"/>
               <code value="kU/L"/>
            </valueQuantity>
            <specimen>
               <reference value="urn:uuid:d8f5afc9-fc63-4e2b-bf52-2700fbe5fe8b"/>
            </specimen>
            <referenceRange>
               <low>
                  <value value="0"/>
                  <system value="http://unitsofmeasure.org"/>
                  <code value="kU/L"/>
               </low>
            </referenceRange>
            <referenceRange>
               <high>
                  <value value="0.35"/>
                  <system value="http://unitsofmeasure.org"/>
                  <code value="kU/L"/>
               </high>
            </referenceRange>
         </Observation>
      </resource>
   </entry>
   <entry>
      <fullUrl value="urn:uuid:31164eee-6f0b-4d5f-82f6-85f02d5ef36d"/>
      <resource>
         <Observation>
            <id value="31164eee-6f0b-4d5f-82f6-85f02d5ef36d"/>
            <meta>
               <profile value="http://hl7.eu/fhir/laboratory/StructureDefinition/Observation-resultslab-eu-lab"/>
            </meta>
            <text>
               <status value="generated"/>
               <div xmlns="http://www.w3.org/1999/xhtml">
                  <table class="hl7__eu__lab__report">
                     <tr>
                        <th>Test</th>
                        <th>29-Sep-2017</th>
                        <th>Reference Range</th>
                        <th>Unit</th>
                     </tr>
                     <tr>
                        <td>Cat dander IgE Ab [Units/volume] in Serum</td>
                        <td>0.3</td>
                        <td>0 - 0.35</td>
                        <td/>
                        <td>kU/L</td>
                     </tr>
                  </table>
               </div>
            </text>
            <status value="final"/>
            <category>
               <coding>
                  <system value="http://terminology.hl7.org/CodeSystem/observation-category"/>
                  <code value="laboratory"/>
               </coding>
            </category>
            <code>
               <coding>
                  <system value="http://loinc.org"/>
                  <code value="6833-8"/>
                  <display value="Cat dander IgE Ab [Units/volume] in Serum"/>
               </coding>
               <text value="Cat dander IgE Ab [Units/volume] in Serum"/>
            </code>
            <subject>
               <reference value="urn:uuid:edcd2e15-c25b-4c4e-b9b7-d48a02d8979e"/>
               <display value="Hynek Kubíčková"/>
            </subject>
            <effectiveDateTime value="2017-09-29T21:58:43Z"/>
            <performer>
               <display value="The Central European Lab"/>
            </performer>
            <valueQuantity>
               <value value="0.3"/>
               <unit value="kU/L"/>
               <system value="http://unitsofmeasure.org"/>
               <code value="kU/L"/>
            </valueQuantity>
            <specimen>
               <reference value="urn:uuid:d8f5afc9-fc63-4e2b-bf52-2700fbe5fe8b"/>
            </specimen>
            <referenceRange>
               <low>
                  <value value="0"/>
                  <system value="http://unitsofmeasure.org"/>
                  <code value="kU/L"/>
               </low>
            </referenceRange>
            <referenceRange>
               <high>
                  <value value="0.35"/>
                  <system value="http://unitsofmeasure.org"/>
                  <code value="kU/L"/>
               </high>
            </referenceRange>
         </Observation>
      </resource>
   </entry>
   <entry>
      <fullUrl value="urn:uuid:10098fe6-b82f-48b6-af54-825a25452403"/>
      <resource>
         <Observation>
            <id value="10098fe6-b82f-48b6-af54-825a25452403"/>
            <meta>
               <profile value="http://hl7.eu/fhir/laboratory/StructureDefinition/Observation-resultslab-eu-lab"/>
            </meta>
            <text>
               <status value="generated"/>
               <div xmlns="http://www.w3.org/1999/xhtml">
                  <table class="hl7__eu__lab__report">
                     <tr>
                        <th>Test</th>
                        <th>29-Sep-2017</th>
                        <th>Reference Range</th>
                        <th>Unit</th>
                     </tr>
                     <tr>
                        <td>American house dust mite IgE Ab [Units/volume] in Serum</td>
                        <td>0.2</td>
                        <td>0 - 0.35</td>
                        <td/>
                        <td>kU/L</td>
                     </tr>
                  </table>
               </div>
            </text>
            <status value="final"/>
            <category>
               <coding>
                  <system value="http://terminology.hl7.org/CodeSystem/observation-category"/>
                  <code value="laboratory"/>
               </coding>
            </category>
            <code>
               <coding>
                  <system value="http://loinc.org"/>
                  <code value="6095-4"/>
                  <display value="American house dust mite IgE Ab [Units/volume] in Serum"/>
               </coding>
               <text value="American house dust mite IgE Ab [Units/volume] in Serum"/>
            </code>
            <subject>
               <reference value="urn:uuid:edcd2e15-c25b-4c4e-b9b7-d48a02d8979e"/>
               <display value="Hynek Kubíčková"/>
            </subject>
            <effectiveDateTime value="2017-09-29T21:58:43Z"/>
            <performer>
               <display value="The Central European Lab"/>
            </performer>
            <valueQuantity>
               <value value="0.2"/>
               <unit value="kU/L"/>
               <system value="http://unitsofmeasure.org"/>
               <code value="kU/L"/>
            </valueQuantity>
            <specimen>
               <reference value="urn:uuid:d8f5afc9-fc63-4e2b-bf52-2700fbe5fe8b"/>
            </specimen>
            <referenceRange>
               <low>
                  <value value="0"/>
                  <system value="http://unitsofmeasure.org"/>
                  <code value="kU/L"/>
               </low>
            </referenceRange>
            <referenceRange>
               <high>
                  <value value="0.35"/>
                  <system value="http://unitsofmeasure.org"/>
                  <code value="kU/L"/>
               </high>
            </referenceRange>
         </Observation>
      </resource>
   </entry>
   <entry>
      <fullUrl value="urn:uuid:3936669f-8e49-4ed4-ad5e-ce5312a5e335"/>
      <resource>
         <Observation>
            <id value="3936669f-8e49-4ed4-ad5e-ce5312a5e335"/>
            <meta>
               <profile value="http://hl7.eu/fhir/laboratory/StructureDefinition/Observation-resultslab-eu-lab"/>
            </meta>
            <text>
               <status value="generated"/>
               <div xmlns="http://www.w3.org/1999/xhtml">
                  <table class="hl7__eu__lab__report">
                     <tr>
                        <th>Test</th>
                        <th>29-Sep-2017</th>
                        <th>Reference Range</th>
                        <th>Unit</th>
                     </tr>
                     <tr>
                        <td>Cladosporium herbarum IgE Ab [Units/volume] in Serum</td>
                        <td>0.3</td>
                        <td>0 - 0.35</td>
                        <td/>
                        <td>kU/L</td>
                     </tr>
                  </table>
               </div>
            </text>
            <status value="final"/>
            <category>
               <coding>
                  <system value="http://terminology.hl7.org/CodeSystem/observation-category"/>
                  <code value="laboratory"/>
               </coding>
            </category>
            <code>
               <coding>
                  <system value="http://loinc.org"/>
                  <code value="6075-6"/>
                  <display value="Cladosporium herbarum IgE Ab [Units/volume] in Serum"/>
               </coding>
               <text value="Cladosporium herbarum IgE Ab [Units/volume] in Serum"/>
            </code>
            <subject>
               <reference value="urn:uuid:edcd2e15-c25b-4c4e-b9b7-d48a02d8979e"/>
               <display value="Hynek Kubíčková"/>
            </subject>
            <effectiveDateTime value="2017-09-29T21:58:43Z"/>
            <performer>
               <display value="The Central European Lab"/>
            </performer>
            <valueQuantity>
               <value value="0.3"/>
               <unit value="kU/L"/>
               <system value="http://unitsofmeasure.org"/>
               <code value="kU/L"/>
            </valueQuantity>
            <specimen>
               <reference value="urn:uuid:d8f5afc9-fc63-4e2b-bf52-2700fbe5fe8b"/>
            </specimen>
            <referenceRange>
               <low>
                  <value value="0"/>
                  <system value="http://unitsofmeasure.org"/>
                  <code value="kU/L"/>
               </low>
            </referenceRange>
            <referenceRange>
               <high>
                  <value value="0.35"/>
                  <system value="http://unitsofmeasure.org"/>
                  <code value="kU/L"/>
               </high>
            </referenceRange>
         </Observation>
      </resource>
   </entry>
   <entry>
      <fullUrl value="urn:uuid:28a9c784-9f93-4061-b883-7ede804d019b"/>
      <resource>
         <Observation>
            <id value="28a9c784-9f93-4061-b883-7ede804d019b"/>
            <meta>
               <profile value="http://hl7.eu/fhir/laboratory/StructureDefinition/Observation-resultslab-eu-lab"/>
            </meta>
            <text>
               <status value="generated"/>
               <div xmlns="http://www.w3.org/1999/xhtml">
                  <table class="hl7__eu__lab__report">
                     <tr>
                        <th>Test</th>
                        <th>29-Sep-2017</th>
                        <th>Reference Range</th>
                        <th>Unit</th>
                     </tr>
                     <tr>
                        <td>Honey bee IgE Ab [Units/volume] in Serum</td>
                        <td>0.1</td>
                        <td>0 - 0.35</td>
                        <td/>
                        <td>kU/L</td>
                     </tr>
                  </table>
               </div>
            </text>
            <status value="final"/>
            <category>
               <coding>
                  <system value="http://terminology.hl7.org/CodeSystem/observation-category"/>
                  <code value="laboratory"/>
               </coding>
            </category>
            <code>
               <coding>
                  <system value="http://loinc.org"/>
                  <code value="6844-5"/>
                  <display value="Honey bee IgE Ab [Units/volume] in Serum"/>
               </coding>
               <text value="Honey bee IgE Ab [Units/volume] in Serum"/>
            </code>
            <subject>
               <reference value="urn:uuid:edcd2e15-c25b-4c4e-b9b7-d48a02d8979e"/>
               <display value="Hynek Kubíčková"/>
            </subject>
            <effectiveDateTime value="2017-09-29T21:58:43Z"/>
            <performer>
               <display value="The Central European Lab"/>
            </performer>
            <valueQuantity>
               <value value="0.1"/>
               <unit value="kU/L"/>
               <system value="http://unitsofmeasure.org"/>
               <code value="kU/L"/>
            </valueQuantity>
            <specimen>
               <reference value="urn:uuid:d8f5afc9-fc63-4e2b-bf52-2700fbe5fe8b"/>
            </specimen>
            <referenceRange>
               <low>
                  <value value="0"/>
                  <system value="http://unitsofmeasure.org"/>
                  <code value="kU/L"/>
               </low>
            </referenceRange>
            <referenceRange>
               <high>
                  <value value="0.35"/>
                  <system value="http://unitsofmeasure.org"/>
                  <code value="kU/L"/>
               </high>
            </referenceRange>
         </Observation>
      </resource>
   </entry>
   <entry>
      <fullUrl value="urn:uuid:b7b0115d-c67e-4613-9d60-d7c2eee8d6ff"/>
      <resource>
         <Observation>
            <id value="b7b0115d-c67e-4613-9d60-d7c2eee8d6ff"/>
            <meta>
               <profile value="http://hl7.eu/fhir/laboratory/StructureDefinition/Observation-resultslab-eu-lab"/>
            </meta>
            <text>
               <status value="generated"/>
               <div xmlns="http://www.w3.org/1999/xhtml">
                  <table class="hl7__eu__lab__report">
                     <tr>
                        <th>Test</th>
                        <th>29-Sep-2017</th>
                        <th>Reference Range</th>
                        <th>Unit</th>
                     </tr>
                     <tr>
                        <td>Latex IgE Ab [Units/volume] in Serum</td>
                        <td>0.3</td>
                        <td>0 - 0.7</td>
                        <td/>
                        <td>kU/L</td>
                     </tr>
                  </table>
               </div>
            </text>
            <status value="final"/>
            <category>
               <coding>
                  <system value="http://terminology.hl7.org/CodeSystem/observation-category"/>
                  <code value="laboratory"/>
               </coding>
            </category>
            <code>
               <coding>
                  <system value="http://loinc.org"/>
                  <code value="6158-0"/>
                  <display value="Latex IgE Ab [Units/volume] in Serum"/>
               </coding>
               <text value="Latex IgE Ab [Units/volume] in Serum"/>
            </code>
            <subject>
               <reference value="urn:uuid:edcd2e15-c25b-4c4e-b9b7-d48a02d8979e"/>
               <display value="Hynek Kubíčková"/>
            </subject>
            <effectiveDateTime value="2017-09-29T21:58:43Z"/>
            <performer>
               <display value="The Central European Lab"/>
            </performer>
            <valueQuantity>
               <value value="0.3"/>
               <unit value="kU/L"/>
               <system value="http://unitsofmeasure.org"/>
               <code value="kU/L"/>
            </valueQuantity>
            <specimen>
               <reference value="urn:uuid:d8f5afc9-fc63-4e2b-bf52-2700fbe5fe8b"/>
            </specimen>
            <referenceRange>
               <low>
                  <value value="0"/>
                  <system value="http://unitsofmeasure.org"/>
                  <code value="kU/L"/>
               </low>
            </referenceRange>
            <referenceRange>
               <high>
                  <value value="0.7"/>
                  <system value="http://unitsofmeasure.org"/>
                  <code value="kU/L"/>
               </high>
            </referenceRange>
         </Observation>
      </resource>
   </entry>
   <entry>
      <fullUrl value="urn:uuid:e8bf367c-c7fe-44c5-9419-33f5aa9ec3b9"/>
      <resource>
         <Device>
            <id value="e8bf367c-c7fe-44c5-9419-33f5aa9ec3b9"/>
            <text>
               <status value="generated"/>
               <div xmlns="http://www.w3.org/1999/xhtml">SYNDERAI Synthetic Generator v5.0</div>
            </text>
            <status value="active&#34;"/>
            <distinctIdentifier value="synderai-generator-50"/>
            <manufacturer value="SYNDERAI Project"/>
            <deviceName>
               <name value="SYNDERAI Synthetic Generator"/>
               <type value="manufacturer-name"/>
            </deviceName>
            <version>
               <value value="5.0"/>
            </version>
         </Device>
      </resource>
   </entry>
   <entry>
      <fullUrl value="urn:uuid:1b9d64cc-98c2-4755-b818-644072cc19ce"/>
      <resource>
         <Provenance>
            <id value="1b9d64cc-98c2-4755-b818-644072cc19ce"/>
            <text>
               <status value="generated"/>
               <div xmlns="http://www.w3.org/1999/xhtml">Provenance for SYNDERAI Synthetic Example Data Resource</div>
            </text>
            <target>
               <reference value="Patient/edcd2e15-c25b-4c4e-b9b7-d48a02d8979e"/>
            </target>
            <target>
               <reference value="Bundle/b26fc513-4b53-451a-a2e2-0c1b4cedcdb9"/>
            </target>
            <target>
               <reference value="Composition/4881bbfe-6329-43d3-8df7-5fd088b2c3f6"/>
            </target>
            <target>
               <reference value="PractitionerRole/b9894c83-cdb6-4320-ba96-0da34c775b1a"/>
            </target>
            <target>
               <reference value="Practitioner/3b3a6a3d-a9d1-4b52-9a3f-6bdcbafbb97d"/>
            </target>
            <target>
               <reference value="PractitionerRole/654485fc-7377-44a5-b917-2294a6eb35a2"/>
            </target>
            <target>
               <reference value="Organization/bd0a11f5-72c4-45fc-ba5b-f0f988a84041"/>
            </target>
            <recorded value="2017-09-29T23:58:43Z"/>
            <policy value="https://synderai.net/synderai-synthetic-data-policy"/>
            <reason>
               <text value="Interoperability Testing and Training (non-clinical use)"/>
            </reason>
            <activity>
               <text value="Synthetic Example Data Generation"/>
            </activity>
            <agent>
               <type>
                  <text value="author"/>
               </type>
               <who>
                  <reference value="Device/e8bf367c-c7fe-44c5-9419-33f5aa9ec3b9"/>
               </who>
            </agent>
         </Provenance>
      </resource>
   </entry>
   <entry>
      <fullUrl value="urn:uuid:b9894c83-cdb6-4320-ba96-0da34c775b1a"/>
      <resource>
         <PractitionerRole>
            <id value="b9894c83-cdb6-4320-ba96-0da34c775b1a"/>
            <meta>
               <profile value="http://hl7.eu/fhir/base/StructureDefinition/practitionerRole-eu"/>
            </meta>
            <text>
               <status value="generated"/>
               <div xmlns="http://www.w3.org/1999/xhtml">Laboratory Role Id: b9894c83-cdb6-4320-ba96-0da34c775b1a</div>
            </text>
            <practitioner>
               <reference value="urn:uuid:3b3a6a3d-a9d1-4b52-9a3f-6bdcbafbb97d"/>
            </practitioner>
         </PractitionerRole>
      </resource>
   </entry>
   <entry>
      <fullUrl value="urn:uuid:3b3a6a3d-a9d1-4b52-9a3f-6bdcbafbb97d"/>
      <resource>
         <Practitioner>
            <id value="3b3a6a3d-a9d1-4b52-9a3f-6bdcbafbb97d"/>
            <meta>
               <profile value="http://hl7.eu/fhir/base/StructureDefinition/practitioner-eu"/>
            </meta>
            <text>
               <status value="generated"/>
               <div xmlns="http://www.w3.org/1999/xhtml">Laboratory: Laboratoire Central Européenne, 1000 Brussels, Belgium</div>
            </text>
            <identifier>
               <system value="urn:oid:2.16.840.1.113883.2.51.999"/>
               <value value="2e16f689-6398-487d-abc1-0984565d0839"/>
               <assigner>
                  <display value="HL7 Europe"/>
               </assigner>
            </identifier>
            <name>
               <family value="Ample"/>
               <given value="Ex"/>
               <prefix value="dr"/>
            </name>
            <address>
               <line value="Laboratoire Central Européenne"/>
               <line value="Boulevard du Jardin Botanique 32"/>
               <city value="Brussels"/>
               <postalCode value="1000"/>
               <country value="Belgium"/>
            </address>
         </Practitioner>
      </resource>
   </entry>
</Bundle>