<Bundle xmlns="http://hl7.org/fhir">
   <id value="e1c30def-1b66-47b7-ad04-b8888ae238f9"/>
   <meta>
      <profile value="http://hl7.eu/fhir/laboratory/StructureDefinition/Bundle-eu-lab"/>
   </meta>
   <identifier>
      <system value="urn:oid:2.16.840.1.113883.2.51.999"/>
      <value value="3b60d4f0-497a-45a0-8e30-65df70259358"/>
      <assigner>
         <display value="HL7 Europe"/>
      </assigner>
   </identifier>
   <type value="document"/>
   <timestamp value="2020-03-05T20:05:43Z"/>
   <entry>
      <fullUrl value="urn:uuid:14e2a07d-071e-476e-90d2-c07735ba44b3"/>
      <resource>
         <Composition>
            <id value="14e2a07d-071e-476e-90d2-c07735ba44b3"/>
            <meta>
               <profile value="http://hl7.eu/fhir/laboratory/StructureDefinition/Composition-eu-lab"/>
            </meta>
            <identifier>
               <system value="urn:oid:2.16.840.1.113883.2.51.999"/>
               <value value="ac8a15bf-c328-4cb6-8b21-404c99586dd6"/>
               <assigner>
                  <display value="HL7 Europe"/>
               </assigner>
            </identifier>
            <status value="final"/>
            <type>
               <coding>
                  <system value="http://loinc.org"/>
                  <code value="11502-2"/>
                  <display value="Laboratory report"/>
               </coding>
               <text value="Laboratory Report"/>
            </type>
            <category>
               <coding>
                  <system value="http://loinc.org"/>
                  <code value="26436-6"/>
                  <display value="Laboratory studies (set)"/>
               </coding>
            </category>
            <subject>
               <reference value="urn:uuid:fe725d33-864a-4528-b6dc-3367273337cf"/>
               <display value="Marthe Gallet"/>
            </subject>
            <date value="2020-03-05T20:05:43Z"/>
            <author>
               <reference value="urn:uuid:1d23d29c-25d0-4ef1-9946-886ad037d326"/>
            </author>
            <title value="Laboratory Report"/>
            <confidentiality value="N"/>
            <section>
               <title value="Laboratory Report"/>
               <code>
                  <coding>
                     <system value="http://loinc.org"/>
                     <code value="26436-6"/>
                     <display value="Laboratory studies (set)"/>
                  </coding>
                  <text value="Laboratory studies"/>
               </code>
               <section>
                  <title value="Chemistry"/>
                  <code>
                     <coding>
                        <system value="http://loinc.org"/>
                        <code value="$18719-5"/>
                        <display value="Chemistry studies (set)"/>
                     </coding>
                     <text value="Chemistry"/>
                  </code>
                  <text>
                     <status value="generated"/>
                     <div xmlns="http://www.w3.org/1999/xhtml">
                        <h3>Chemistry</h3>
                        <table class="hl7__eu__lab__report">
                           <thead>
                              <tr>
                                 <th>Test</th>
                                 <th>05-MAR-2020</th>
                                 <th>Reference Range</th>
                                 <th>Unit</th>
                              </tr>
                           </thead>
                           <tbody>
                              <tr>
                                 <td>Glucose [Mass/volume] in Serum or Plasma</td>
                                 <td>79.4</td>
                                 <td>70 - 140</td>
                                 <td>mg/dL</td>
                              </tr>
                              <tr>
                                 <td>Urea nitrogen [Mass/volume] in Serum or Plasma</td>
                                 <td>9.9</td>
                                 <td>7 - 50</td>
                                 <td>mg/dL</td>
                              </tr>
                              <tr>
                                 <td>Creatinine [Mass/volume] in Serum or Plasma</td>
                                 <td>
                                    <strong>1.4 H</strong>
                                 </td>
                                 <td>0.6 - 1.1</td>
                                 <td>mg/dL</td>
                              </tr>
                              <tr>
                                 <td>Calcium [Mass/volume] in Serum or Plasma</td>
                                 <td>9.9</td>
                                 <td>8.5 - 10.5</td>
                                 <td>mg/dL</td>
                              </tr>
                              <tr>
                                 <td>Sodium [Moles/volume] in Serum or Plasma</td>
                                 <td>136.7</td>
                                 <td>135 - 145</td>
                                 <td>mmol/L</td>
                              </tr>
                              <tr>
                                 <td>Potassium [Moles/volume] in Serum or Plasma</td>
                                 <td>4.0</td>
                                 <td>3.5 - 5.1</td>
                                 <td>mmol/L</td>
                              </tr>
                              <tr>
                                 <td>Chloride [Moles/volume] in Serum or Plasma</td>
                                 <td>101.6</td>
                                 <td>98 - 108</td>
                                 <td>mmol/L</td>
                              </tr>
                              <tr>
                                 <td>Carbon dioxide, total [Moles/volume] in Serum or Plasma</td>
                                 <td>
                                    <strong>21.6 L</strong>
                                 </td>
                                 <td>22 - 32</td>
                                 <td>mmol/L</td>
                              </tr>
                              <tr>
                                 <td>Ketones [Presence] in Urine by Test strip</td>
                                 <td>Urine ketone test = trace</td>
                                 <td/>
                                 <td/>
                              </tr>
                           </tbody>
                        </table>
                     </div>
                  </text>
                  <entry>
                     <reference value="urn:uuid:e4576f66-4871-43c6-a908-716c4d27e28b"/>
                  </entry>
                  <entry>
                     <reference value="urn:uuid:61d3041f-b90d-40ff-b04f-6f01cf89e968"/>
                  </entry>
                  <entry>
                     <reference value="urn:uuid:70d81cd9-84ab-4f96-9932-584815cbe38b"/>
                  </entry>
                  <entry>
                     <reference value="urn:uuid:f0b1fcb0-c547-422c-abb6-821573b7b889"/>
                  </entry>
                  <entry>
                     <reference value="urn:uuid:8b0caa6f-357b-4ac9-9b63-986acb8a8fb8"/>
                  </entry>
                  <entry>
                     <reference value="urn:uuid:e48d2040-c1e5-452c-bb3a-43ec705c86e4"/>
                  </entry>
                  <entry>
                     <reference value="urn:uuid:470d70bb-28ab-4e1a-8d6b-e281e1a23470"/>
                  </entry>
                  <entry>
                     <reference value="urn:uuid:1d5e7aae-5a3f-4262-aa8a-6b999a3224ac"/>
                  </entry>
                  <entry>
                     <reference value="urn:uuid:17d219d9-c5f7-4318-a553-fa2259f1fa77"/>
                  </entry>
               </section>
               <section>
                  <title value="Urinalysis"/>
                  <code>
                     <coding>
                        <system value="http://loinc.org"/>
                        <code value="$18729-4"/>
                        <display value="Urinalysis studies (set)"/>
                     </coding>
                     <text value="Urinalysis"/>
                  </code>
                  <text>
                     <status value="generated"/>
                     <div xmlns="http://www.w3.org/1999/xhtml">
                        <h3>Urinalysis</h3>
                        <table class="hl7__eu__lab__report">
                           <thead>
                              <tr>
                                 <th>Test</th>
                                 <th>05-MAR-2020</th>
                                 <th>Reference Range</th>
                                 <th>Unit</th>
                              </tr>
                           </thead>
                           <tbody>
                              <tr>
                                 <td>Glucose [Mass/volume] in Urine by Test strip</td>
                                 <td>
                                    <strong>2.2 H</strong>
                                 </td>
                                 <td>0.8 - 0</td>
                                 <td>mg/dL</td>
                              </tr>
                              <tr>
                                 <td>Glucose [Presence] in Urine by Test strip</td>
                                 <td>++</td>
                                 <td/>
                                 <td/>
                              </tr>
                              <tr>
                                 <td>Bilirubin.total [Mass/volume] in Urine by Test strip</td>
                                 <td>0.8</td>
                                 <td>0 - 1</td>
                                 <td>mg/dL</td>
                              </tr>
                              <tr>
                                 <td>Bilirubin.total [Presence] in Urine by Test strip</td>
                                 <td>Finding of bilirubin in urine</td>
                                 <td/>
                                 <td/>
                              </tr>
                              <tr>
                                 <td>Ketones [Mass/volume] in Urine by Test strip</td>
                                 <td>1.6</td>
                                 <td>0 - 20</td>
                                 <td>mg/dL</td>
                              </tr>
                              <tr>
                                 <td>Specific gravity of Urine by Test strip</td>
                                 <td>
                                    <strong>1.0 L</strong>
                                 </td>
                                 <td>1.01 - 1.03</td>
                                 <td>{nominal}</td>
                              </tr>
                              <tr>
                                 <td>pH of Urine by Test strip</td>
                                 <td>6.4</td>
                                 <td>4.6 - 7</td>
                                 <td>pH</td>
                              </tr>
                              <tr>
                                 <td>Protein [Mass/volume] in Urine by Test strip</td>
                                 <td>
                                    <strong>121.1 H</strong>
                                 </td>
                                 <td>0 - 15</td>
                                 <td>mg/dL</td>
                              </tr>
                              <tr>
                                 <td>Protein [Presence] in Urine by Test strip</td>
                                 <td>Urine protein test = +</td>
                                 <td/>
                                 <td/>
                              </tr>
                              <tr>
                                 <td>Nitrite [Presence] in Urine by Test strip</td>
                                 <td>Urine nitrite negative</td>
                                 <td/>
                                 <td/>
                              </tr>
                              <tr>
                                 <td>Hemoglobin [Presence] in Urine by Test strip</td>
                                 <td>Urine blood test = negative</td>
                                 <td/>
                                 <td/>
                              </tr>
                              <tr>
                                 <td>Leukocyte esterase [Presence] in Urine by Test strip</td>
                                 <td>Urine leukocyte test negative</td>
                                 <td/>
                                 <td/>
                              </tr>
                           </tbody>
                        </table>
                     </div>
                  </text>
                  <entry>
                     <reference value="urn:uuid:b781c96d-62ab-48a1-a000-d44f00dd6848"/>
                  </entry>
                  <entry>
                     <reference value="urn:uuid:f9020520-8c4b-43a1-879c-3b65b02e772c"/>
                  </entry>
                  <entry>
                     <reference value="urn:uuid:2cdaf9f8-7639-42d3-b42c-3f2990163799"/>
                  </entry>
                  <entry>
                     <reference value="urn:uuid:88f0ac2a-d69d-4a69-ab60-642efcf5f7c1"/>
                  </entry>
                  <entry>
                     <reference value="urn:uuid:632563c3-cc0f-4bad-a3cf-9bf5b6249045"/>
                  </entry>
                  <entry>
                     <reference value="urn:uuid:bcbcec6e-40f2-4ea8-9400-cc95b6b297bf"/>
                  </entry>
                  <entry>
                     <reference value="urn:uuid:2fef1251-c72b-43d1-a742-53f8b26720ba"/>
                  </entry>
                  <entry>
                     <reference value="urn:uuid:33d3ca2a-0e7d-4cb9-8243-deeafcfe0ac3"/>
                  </entry>
                  <entry>
                     <reference value="urn:uuid:d1bb1af3-d2dd-49dd-9b4e-5912d4e932a7"/>
                  </entry>
                  <entry>
                     <reference value="urn:uuid:1c53682b-821f-4f79-87c1-306c2895563f"/>
                  </entry>
                  <entry>
                     <reference value="urn:uuid:8cce67be-9105-4690-b5a6-983912a5c840"/>
                  </entry>
                  <entry>
                     <reference value="urn:uuid:60973ee6-86ac-409d-8fb5-7ccced7086b0"/>
                  </entry>
               </section>
               <section>
                  <title value="Specimen information"/>
                  <code>
                     <coding>
                        <system value="http://loinc.org"/>
                        <code value="$LP7846-1"/>
                        <display value="Specimen information"/>
                     </coding>
                     <text value="Specimen information"/>
                  </code>
                  <text>
                     <status value="generated"/>
                     <div xmlns="http://www.w3.org/1999/xhtml">
                        <h3>Specimen information</h3>
                        <table class="hl7__eu__lab__report">
                           <thead>
                              <tr>
                                 <th>Test</th>
                                 <th>05-MAR-2020</th>
                                 <th>Specimen</th>
                                 <th/>
                              </tr>
                           </thead>
                           <tbody>
                              <tr>
                                 <td>Appearance of Urine</td>
                                 <td>Cloudy urine</td>
                                 <td>Urine</td>
                                 <td/>
                              </tr>
                              <tr>
                                 <td>Odor of Urine</td>
                                 <td>Urine smell ammoniacal</td>
                                 <td>Urine</td>
                                 <td/>
                              </tr>
                              <tr>
                                 <td>Clarity of Urine</td>
                                 <td>Translucent</td>
                                 <td>Urine</td>
                                 <td/>
                              </tr>
                              <tr>
                                 <td>Color of Urine</td>
                                 <td>Brown color</td>
                                 <td>Urine</td>
                                 <td/>
                              </tr>
                           </tbody>
                        </table>
                     </div>
                  </text>
                  <entry>
                     <reference value="urn:uuid:9f1383cd-e3ab-43ee-a40a-cb07de37ce36"/>
                  </entry>
                  <entry>
                     <reference value="urn:uuid:cb309392-1bf5-48b7-9b34-944cb7d5e01c"/>
                  </entry>
                  <entry>
                     <reference value="urn:uuid:9a68216a-74bd-419b-9af0-8e4410fb299b"/>
                  </entry>
                  <entry>
                     <reference value="urn:uuid:db5d9c00-6418-4aa4-b614-3368608008a1"/>
                  </entry>
               </section>
            </section>
            <section>
               <title value="Annotation comment"/>
               <code>
                  <coding>
                     <system value="http://loinc.org"/>
                     <code value="48767-8"/>
                     <display value="Annotation comment"/>
                  </coding>
               </code>
               <text>
                  <status value="generated"/>
                  <div xmlns="http://www.w3.org/1999/xhtml">
                     <h3>Annotation</h3>
                     <table class="hl7__eu__lab__report">
                        <tr>
                           <th>Conclusion and Recommendations based on this report and previous findings known to us</th>
                        </tr>
                        <tr>
                           <td>Renal function is mildly impaired (elevated creatinine), with low total CO₂ suggesting possible mild metabolic acidosis. Urinalysis shows significant proteinuria and glucosuria, with low specific gravity and abnormal urine appearance (cloudy, brown, ammoniacal), but no evidence of infection (negative nitrites/leukocytes). Findings are suggestive of possible diabetic nephropathy or other renal pathology; further nephrological evaluation is recommended.</td>
                        </tr>
                     </table>
                  </div>
               </text>
            </section>
         </Composition>
      </resource>
   </entry>
   <entry>
      <fullUrl value="urn:uuid:3092ec2a-12b1-401b-bd66-da17603e3707"/>
      <resource>
         <DiagnosticReport>
            <id value="3092ec2a-12b1-401b-bd66-da17603e3707"/>
            <meta>
               <profile value="http://hl7.eu/fhir/laboratory/StructureDefinition/DiagnosticReport-eu-lab"/>
            </meta>
            <extension url="http://hl7.org/fhir/5.0/StructureDefinition/extension-DiagnosticReport.composition">
               <valueReference>
                  <reference value="urn:uuid:ac8a15bf-c328-4cb6-8b21-404c99586dd6"/>
               </valueReference>
            </extension>
            <identifier>
               <system value="urn:oid:2.16.840.1.113883.2.51.999"/>
               <value value="d4cd4a8f-b1ef-4804-be09-9b8d63b8a11f"/>
               <assigner>
                  <display value="HL7 Europe"/>
               </assigner>
            </identifier>
            <status value="registered"/>
            <category>
               <coding>
                  <system value="http://loinc.org"/>
                  <code value="26436-6"/>
                  <display value="Laboratory studies (set)"/>
               </coding>
            </category>
            <code>
               <coding>
                  <system value="http://loinc.org"/>
                  <code value="11502-2"/>
                  <display value="Laboratory report"/>
               </coding>
            </code>
            <subject>
               <reference value="urn:uuid:fe725d33-864a-4528-b6dc-3367273337cf"/>
               <display value="Marthe Gallet"/>
            </subject>
            <specimen>
               <reference value="urn:uuid:442cbf01-a0fe-46b7-a6a5-bbc92fc3cb8a"/>
            </specimen>
            <specimen>
               <reference value="urn:uuid:8ce9df69-60db-4b34-ab62-fa044b3c1ef5"/>
            </specimen>
            <result>
               <reference value="urn:uuid:e4576f66-4871-43c6-a908-716c4d27e28b"/>
            </result>
            <result>
               <reference value="urn:uuid:61d3041f-b90d-40ff-b04f-6f01cf89e968"/>
            </result>
            <result>
               <reference value="urn:uuid:70d81cd9-84ab-4f96-9932-584815cbe38b"/>
            </result>
            <result>
               <reference value="urn:uuid:f0b1fcb0-c547-422c-abb6-821573b7b889"/>
            </result>
            <result>
               <reference value="urn:uuid:8b0caa6f-357b-4ac9-9b63-986acb8a8fb8"/>
            </result>
            <result>
               <reference value="urn:uuid:e48d2040-c1e5-452c-bb3a-43ec705c86e4"/>
            </result>
            <result>
               <reference value="urn:uuid:470d70bb-28ab-4e1a-8d6b-e281e1a23470"/>
            </result>
            <result>
               <reference value="urn:uuid:1d5e7aae-5a3f-4262-aa8a-6b999a3224ac"/>
            </result>
            <result>
               <reference value="urn:uuid:9f1383cd-e3ab-43ee-a40a-cb07de37ce36"/>
            </result>
            <result>
               <reference value="urn:uuid:cb309392-1bf5-48b7-9b34-944cb7d5e01c"/>
            </result>
            <result>
               <reference value="urn:uuid:9a68216a-74bd-419b-9af0-8e4410fb299b"/>
            </result>
            <result>
               <reference value="urn:uuid:db5d9c00-6418-4aa4-b614-3368608008a1"/>
            </result>
            <result>
               <reference value="urn:uuid:b781c96d-62ab-48a1-a000-d44f00dd6848"/>
            </result>
            <result>
               <reference value="urn:uuid:f9020520-8c4b-43a1-879c-3b65b02e772c"/>
            </result>
            <result>
               <reference value="urn:uuid:2cdaf9f8-7639-42d3-b42c-3f2990163799"/>
            </result>
            <result>
               <reference value="urn:uuid:88f0ac2a-d69d-4a69-ab60-642efcf5f7c1"/>
            </result>
            <result>
               <reference value="urn:uuid:632563c3-cc0f-4bad-a3cf-9bf5b6249045"/>
            </result>
            <result>
               <reference value="urn:uuid:17d219d9-c5f7-4318-a553-fa2259f1fa77"/>
            </result>
            <result>
               <reference value="urn:uuid:bcbcec6e-40f2-4ea8-9400-cc95b6b297bf"/>
            </result>
            <result>
               <reference value="urn:uuid:2fef1251-c72b-43d1-a742-53f8b26720ba"/>
            </result>
            <result>
               <reference value="urn:uuid:33d3ca2a-0e7d-4cb9-8243-deeafcfe0ac3"/>
            </result>
            <result>
               <reference value="urn:uuid:d1bb1af3-d2dd-49dd-9b4e-5912d4e932a7"/>
            </result>
            <result>
               <reference value="urn:uuid:1c53682b-821f-4f79-87c1-306c2895563f"/>
            </result>
            <result>
               <reference value="urn:uuid:8cce67be-9105-4690-b5a6-983912a5c840"/>
            </result>
            <result>
               <reference value="urn:uuid:60973ee6-86ac-409d-8fb5-7ccced7086b0"/>
            </result>
         </DiagnosticReport>
      </resource>
   </entry>
   <entry>
      <fullUrl value="urn:uuid:fe725d33-864a-4528-b6dc-3367273337cf"/>
      <resource>
         <Patient>
            <id value="fe725d33-864a-4528-b6dc-3367273337cf"/>
            <meta>
               <profile value="http://hl7.eu/fhir/base/StructureDefinition/patient-eu-core"/>
               <security>
                  <system value="http://terminology.hl7.org/CodeSystem/v3-ActReason"/>
                  <code value="HTEST"/>
               </security>
               <security>
                  <system value="http://terminology.hl7.org/CodeSystem/v3-ActReason"/>
                  <code value="TRAIN"/>
               </security>
               <tag>
                  <system value="https://synderai.net/fhir/CodeSystem/tags"/>
                  <code value="synthetic"/>
                  <display value="SYNDERAI Synthetic data"/>
               </tag>
            </meta>
            <text>
               <status value="generated"/>
               <div xmlns="http://www.w3.org/1999/xhtml">
                  <table class="hl7__ips">
                     <tr>
                        <td>Marthe Gallet</td>
                        <td>female</td>
                        <td>29-Oct-1950</td>
                     </tr>
                  </table>
               </div>
            </text>
            <extension url="http://hl7.org/fhir/StructureDefinition/patient-nationality">
               <valueCodeableConcept>
                  <coding>
                     <system value="http://hl7.org/fhir/ValueSet/country"/>
                     <code value="FR"/>
                  </coding>
               </valueCodeableConcept>
            </extension>
            <identifier>
               <type>
                  <coding>
                     <system value="http://terminology.hl7.org/CodeSystem/v2-0203"/>
                     <code value="PT"/>
                  </coding>
               </type>
               <system value="http://ec.europa.eu/identifier/eci"/>
               <value value="9444-947487-6"/>
            </identifier>
            <identifier>
               <type>
                  <coding>
                     <system value="http://terminology.hl7.org/CodeSystem/v2-0203"/>
                     <code value="MR"/>
                  </coding>
               </type>
               <system value="http://local.setting.eu/identifier"/>
               <value value="854228d5-a476-2d9c-a1d7-c3202375a617"/>
            </identifier>
            <name>
               <family value="Gallet"/>
            </name>
            <name>
               <given value="Marthe"/>
            </name>
            <name>
               <text value="Marthe Gallet"/>
            </name>
            <telecom>
               <system value="phone"/>
               <value value="+33 1 70 99 82 74"/>
            </telecom>
            <gender value="female"/>
            <birthDate value="1950-10-29"/>
            <address>
               <use value="home"/>
               <type value="physical"/>
               <line value="3, rue Emmanuel Goncalves"/>
               <city value="Briand"/>
               <postalCode value="49490"/>
               <country value="France"/>
            </address>
         </Patient>
      </resource>
   </entry>
   <entry>
      <fullUrl value="urn:uuid:a0abb255-adac-4c05-b150-f98861fae807"/>
      <resource>
         <ServiceRequest>
            <id value="a0abb255-adac-4c05-b150-f98861fae807"/>
            <meta>
               <profile value="http://hl7.eu/fhir/laboratory/StructureDefinition/ServiceRequest-eu-lab"/>
            </meta>
            <identifier>
               <system value="http://example.org"/>
               <value value="fe207fe0-7629-46e9-808f-64e2640cbe75"/>
            </identifier>
            <status value="active"/>
            <intent value="order"/>
            <code>
               <coding>
                  <system value="http://snomed.info/sct"/>
                  <code value="108252007"/>
                  <display value="Laboratory procedure"/>
               </coding>
            </code>
            <subject>
               <reference value="urn:uuid:fe725d33-864a-4528-b6dc-3367273337cf"/>
               <display value="Marthe Gallet"/>
            </subject>
            <requester>
               <reference value="urn:uuid:227dd070-7ae3-4799-bbbf-177306246b5e"/>
            </requester>
            <reasonCode>
               <coding>
                  <system value="http://snomed.info/sct"/>
                  <code value="431856006"/>
                  <display value="Chronic kidney disease stage 2"/>
               </coding>
            </reasonCode>
            <reasonCode>
               <coding>
                  <system value="http://snomed.info/sct"/>
                  <code value="90781000119102"/>
                  <display value="Microalbuminuria due to type 2 diabetes mellitus"/>
               </coding>
            </reasonCode>
            <reasonCode>
               <coding>
                  <system value="http://snomed.info/sct"/>
                  <code value="127013003"/>
                  <display value="Disorder of kidney due to diabetes mellitus"/>
               </coding>
            </reasonCode>
            <reasonCode>
               <coding>
                  <system value="http://snomed.info/sct"/>
                  <code value="431855005"/>
                  <display value="Chronic kidney disease stage 1"/>
               </coding>
            </reasonCode>
            <reasonCode>
               <coding>
                  <system value="http://snomed.info/sct"/>
                  <code value="55822004"/>
                  <display value="Hyperlipidemia"/>
               </coding>
            </reasonCode>
            <reasonCode>
               <coding>
                  <system value="http://snomed.info/sct"/>
                  <code value="59621000"/>
                  <display value="Essential hypertension"/>
               </coding>
            </reasonCode>
            <specimen>
               <reference value="urn:uuid:442cbf01-a0fe-46b7-a6a5-bbc92fc3cb8a"/>
            </specimen>
            <specimen>
               <reference value="urn:uuid:8ce9df69-60db-4b34-ab62-fa044b3c1ef5"/>
            </specimen>
         </ServiceRequest>
      </resource>
   </entry>
   <entry>
      <fullUrl value="urn:uuid:227dd070-7ae3-4799-bbbf-177306246b5e"/>
      <resource>
         <PractitionerRole>
            <id value="227dd070-7ae3-4799-bbbf-177306246b5e"/>
            <meta>
               <profile value="http://hl7.eu/fhir/base/StructureDefinition/practitionerRole-eu"/>
            </meta>
            <text>
               <status value="generated"/>
               <div xmlns="http://www.w3.org/1999/xhtml">Provider Role Id: 227dd070-7ae3-4799-bbbf-177306246b5e</div>
            </text>
            <organization>
               <reference value="urn:uuid:bf6b78bd-4ada-4d5a-bb76-aee53abc08ea"/>
            </organization>
         </PractitionerRole>
      </resource>
   </entry>
   <entry>
      <fullUrl value="urn:uuid:bf6b78bd-4ada-4d5a-bb76-aee53abc08ea"/>
      <resource>
         <Organization>
            <id value="bf6b78bd-4ada-4d5a-bb76-aee53abc08ea"/>
            <meta>
               <profile value="http://hl7.eu/fhir/base/StructureDefinition/organization-eu"/>
            </meta>
            <text>
               <status value="generated"/>
               <div xmlns="http://www.w3.org/1999/xhtml">Provider Organization: CHU d'Angers</div>
            </text>
            <identifier>
               <system value="urn:oid:2.16.840.1.113883.2.51.999"/>
               <value value="2fff7243-c4a2-41d6-85b0-619d99b63ed1"/>
               <assigner>
                  <display value="HL7 Europe"/>
               </assigner>
            </identifier>
            <name value="CHU d&amp;#039;Angers"/>
            <address>
               <line value="Rue Larrey nan"/>
               <city value="Angers"/>
               <postalCode value="49100"/>
               <country value="France"/>
            </address>
         </Organization>
      </resource>
   </entry>
   <entry>
      <fullUrl value="urn:uuid:442cbf01-a0fe-46b7-a6a5-bbc92fc3cb8a"/>
      <resource>
         <Specimen>
            <id value="442cbf01-a0fe-46b7-a6a5-bbc92fc3cb8a"/>
            <meta>
               <profile value="http://hl7.eu/fhir/laboratory/StructureDefinition/Specimen-eu-lab"/>
            </meta>
            <text>
               <status value="generated"/>
               <div xmlns="http://www.w3.org/1999/xhtml">
                  <table class="hl7__eu__lab__report">
                     <tr>
                        <th>Specimen</th>
                        <th>Collection Date</th>
                     </tr>
                     <tr>
                        <td>Acellular blood (serum or plasma) specimen</td>
                        <td>
                           <span class="nb">05-Mar-2020</span>
                        </td>
                     </tr>
                  </table>
               </div>
            </text>
            <type>
               <coding>
                  <system value="http://snomed.info/sct"/>
                  <code value="122592007"/>
                  <display value="Acellular blood (serum or plasma) specimen"/>
               </coding>
            </type>
            <collection>
               <collectedDateTime value="2020-03-05"/>
            </collection>
         </Specimen>
      </resource>
   </entry>
   <entry>
      <fullUrl value="urn:uuid:8ce9df69-60db-4b34-ab62-fa044b3c1ef5"/>
      <resource>
         <Specimen>
            <id value="8ce9df69-60db-4b34-ab62-fa044b3c1ef5"/>
            <meta>
               <profile value="http://hl7.eu/fhir/laboratory/StructureDefinition/Specimen-eu-lab"/>
            </meta>
            <text>
               <status value="generated"/>
               <div xmlns="http://www.w3.org/1999/xhtml">
                  <table class="hl7__eu__lab__report">
                     <tr>
                        <th>Specimen</th>
                        <th>Collection Date</th>
                     </tr>
                     <tr>
                        <td>Urine specimen</td>
                        <td>
                           <span class="nb">05-Mar-2020</span>
                        </td>
                     </tr>
                  </table>
               </div>
            </text>
            <type>
               <coding>
                  <system value="http://snomed.info/sct"/>
                  <code value="122575003"/>
                  <display value="Urine specimen"/>
               </coding>
            </type>
            <collection>
               <collectedDateTime value="2020-03-05"/>
            </collection>
         </Specimen>
      </resource>
   </entry>
   <entry>
      <fullUrl value="urn:uuid:e4576f66-4871-43c6-a908-716c4d27e28b"/>
      <resource>
         <Observation>
            <id value="e4576f66-4871-43c6-a908-716c4d27e28b"/>
            <meta>
               <profile value="http://hl7.eu/fhir/laboratory/StructureDefinition/Observation-resultslab-eu-lab"/>
            </meta>
            <text>
               <status value="generated"/>
               <div xmlns="http://www.w3.org/1999/xhtml">
                  <table class="hl7__eu__lab__report">
                     <tr>
                        <th>Test</th>
                        <th>05-Mar-2020</th>
                        <th>Reference Range</th>
                        <th>Unit</th>
                     </tr>
                     <tr>
                        <td>Glucose [Mass/volume] in Serum or Plasma</td>
                        <td>79.4</td>
                        <td>70 - 140</td>
                        <td/>
                        <td>mg/dL</td>
                     </tr>
                  </table>
               </div>
            </text>
            <status value="final"/>
            <category>
               <coding>
                  <system value="http://terminology.hl7.org/CodeSystem/observation-category"/>
                  <code value="laboratory"/>
               </coding>
            </category>
            <code>
               <coding>
                  <system value="http://loinc.org"/>
                  <code value="2345-7"/>
                  <display value="Glucose [Mass/volume] in Serum or Plasma"/>
               </coding>
               <text value="Glucose [Mass/volume] in Serum or Plasma"/>
            </code>
            <subject>
               <reference value="urn:uuid:fe725d33-864a-4528-b6dc-3367273337cf"/>
               <display value="Marthe Gallet"/>
            </subject>
            <effectiveDateTime value="2020-03-05T19:05:43Z"/>
            <performer>
               <display value="The Central European Lab"/>
            </performer>
            <valueQuantity>
               <value value="79.4"/>
               <unit value="mg/dL"/>
               <system value="http://unitsofmeasure.org"/>
               <code value="mg/dL"/>
            </valueQuantity>
            <specimen>
               <reference value="urn:uuid:442cbf01-a0fe-46b7-a6a5-bbc92fc3cb8a"/>
            </specimen>
            <referenceRange>
               <low>
                  <value value="70"/>
                  <system value="http://unitsofmeasure.org"/>
                  <code value="mg/dL"/>
               </low>
            </referenceRange>
            <referenceRange>
               <high>
                  <value value="140"/>
                  <system value="http://unitsofmeasure.org"/>
                  <code value="mg/dL"/>
               </high>
            </referenceRange>
         </Observation>
      </resource>
   </entry>
   <entry>
      <fullUrl value="urn:uuid:61d3041f-b90d-40ff-b04f-6f01cf89e968"/>
      <resource>
         <Observation>
            <id value="61d3041f-b90d-40ff-b04f-6f01cf89e968"/>
            <meta>
               <profile value="http://hl7.eu/fhir/laboratory/StructureDefinition/Observation-resultslab-eu-lab"/>
            </meta>
            <text>
               <status value="generated"/>
               <div xmlns="http://www.w3.org/1999/xhtml">
                  <table class="hl7__eu__lab__report">
                     <tr>
                        <th>Test</th>
                        <th>05-Mar-2020</th>
                        <th>Reference Range</th>
                        <th>Unit</th>
                     </tr>
                     <tr>
                        <td>Urea nitrogen [Mass/volume] in Serum or Plasma</td>
                        <td>9.9</td>
                        <td>7 - 50</td>
                        <td/>
                        <td>mg/dL</td>
                     </tr>
                  </table>
               </div>
            </text>
            <status value="final"/>
            <category>
               <coding>
                  <system value="http://terminology.hl7.org/CodeSystem/observation-category"/>
                  <code value="laboratory"/>
               </coding>
            </category>
            <code>
               <coding>
                  <system value="http://loinc.org"/>
                  <code value="3094-0"/>
                  <display value="Urea nitrogen [Mass/volume] in Serum or Plasma"/>
               </coding>
               <text value="Urea nitrogen [Mass/volume] in Serum or Plasma"/>
            </code>
            <subject>
               <reference value="urn:uuid:fe725d33-864a-4528-b6dc-3367273337cf"/>
               <display value="Marthe Gallet"/>
            </subject>
            <effectiveDateTime value="2020-03-05T19:05:43Z"/>
            <performer>
               <display value="The Central European Lab"/>
            </performer>
            <valueQuantity>
               <value value="9.9"/>
               <unit value="mg/dL"/>
               <system value="http://unitsofmeasure.org"/>
               <code value="mg/dL"/>
            </valueQuantity>
            <specimen>
               <reference value="urn:uuid:442cbf01-a0fe-46b7-a6a5-bbc92fc3cb8a"/>
            </specimen>
            <referenceRange>
               <low>
                  <value value="7"/>
                  <system value="http://unitsofmeasure.org"/>
                  <code value="mg/dL"/>
               </low>
            </referenceRange>
            <referenceRange>
               <high>
                  <value value="50"/>
                  <system value="http://unitsofmeasure.org"/>
                  <code value="mg/dL"/>
               </high>
            </referenceRange>
         </Observation>
      </resource>
   </entry>
   <entry>
      <fullUrl value="urn:uuid:70d81cd9-84ab-4f96-9932-584815cbe38b"/>
      <resource>
         <Observation>
            <id value="70d81cd9-84ab-4f96-9932-584815cbe38b"/>
            <meta>
               <profile value="http://hl7.eu/fhir/laboratory/StructureDefinition/Observation-resultslab-eu-lab"/>
            </meta>
            <text>
               <status value="generated"/>
               <div xmlns="http://www.w3.org/1999/xhtml">
                  <table class="hl7__eu__lab__report">
                     <tr>
                        <th>Test</th>
                        <th>05-Mar-2020</th>
                        <th>Reference Range</th>
                        <th>Unit</th>
                     </tr>
                     <tr>
                        <td>Creatinine [Mass/volume] in Serum or Plasma</td>
                        <td>1.4</td>
                        <td>0.6 - 1.1</td>
                        <td>H</td>
                        <td>mg/dL</td>
                     </tr>
                  </table>
               </div>
            </text>
            <status value="final"/>
            <category>
               <coding>
                  <system value="http://terminology.hl7.org/CodeSystem/observation-category"/>
                  <code value="laboratory"/>
               </coding>
            </category>
            <code>
               <coding>
                  <system value="http://loinc.org"/>
                  <code value="2160-0"/>
                  <display value="Creatinine [Mass/volume] in Serum or Plasma"/>
               </coding>
               <text value="Creatinine [Mass/volume] in Serum or Plasma"/>
            </code>
            <subject>
               <reference value="urn:uuid:fe725d33-864a-4528-b6dc-3367273337cf"/>
               <display value="Marthe Gallet"/>
            </subject>
            <effectiveDateTime value="2020-03-05T19:05:43Z"/>
            <performer>
               <display value="The Central European Lab"/>
            </performer>
            <valueQuantity>
               <value value="1.4"/>
               <unit value="mg/dL"/>
               <system value="http://unitsofmeasure.org"/>
               <code value="mg/dL"/>
            </valueQuantity>
            <interpretation>
               <coding>
                  <system value="http://terminology.hl7.org/CodeSystem/v3-ObservationInterpretation"/>
                  <code value="H"/>
                  <display value="High"/>
               </coding>
            </interpretation>
            <specimen>
               <reference value="urn:uuid:442cbf01-a0fe-46b7-a6a5-bbc92fc3cb8a"/>
            </specimen>
            <referenceRange>
               <low>
                  <value value="0.6"/>
                  <system value="http://unitsofmeasure.org"/>
                  <code value="mg/dL"/>
               </low>
            </referenceRange>
            <referenceRange>
               <high>
                  <value value="1.1"/>
                  <system value="http://unitsofmeasure.org"/>
                  <code value="mg/dL"/>
               </high>
            </referenceRange>
         </Observation>
      </resource>
   </entry>
   <entry>
      <fullUrl value="urn:uuid:f0b1fcb0-c547-422c-abb6-821573b7b889"/>
      <resource>
         <Observation>
            <id value="f0b1fcb0-c547-422c-abb6-821573b7b889"/>
            <meta>
               <profile value="http://hl7.eu/fhir/laboratory/StructureDefinition/Observation-resultslab-eu-lab"/>
            </meta>
            <text>
               <status value="generated"/>
               <div xmlns="http://www.w3.org/1999/xhtml">
                  <table class="hl7__eu__lab__report">
                     <tr>
                        <th>Test</th>
                        <th>05-Mar-2020</th>
                        <th>Reference Range</th>
                        <th>Unit</th>
                     </tr>
                     <tr>
                        <td>Calcium [Mass/volume] in Serum or Plasma</td>
                        <td>9.9</td>
                        <td>8.5 - 10.5</td>
                        <td/>
                        <td>mg/dL</td>
                     </tr>
                  </table>
               </div>
            </text>
            <status value="final"/>
            <category>
               <coding>
                  <system value="http://terminology.hl7.org/CodeSystem/observation-category"/>
                  <code value="laboratory"/>
               </coding>
            </category>
            <code>
               <coding>
                  <system value="http://loinc.org"/>
                  <code value="17861-6"/>
                  <display value="Calcium [Mass/volume] in Serum or Plasma"/>
               </coding>
               <text value="Calcium [Mass/volume] in Serum or Plasma"/>
            </code>
            <subject>
               <reference value="urn:uuid:fe725d33-864a-4528-b6dc-3367273337cf"/>
               <display value="Marthe Gallet"/>
            </subject>
            <effectiveDateTime value="2020-03-05T19:05:43Z"/>
            <performer>
               <display value="The Central European Lab"/>
            </performer>
            <valueQuantity>
               <value value="9.9"/>
               <unit value="mg/dL"/>
               <system value="http://unitsofmeasure.org"/>
               <code value="mg/dL"/>
            </valueQuantity>
            <specimen>
               <reference value="urn:uuid:442cbf01-a0fe-46b7-a6a5-bbc92fc3cb8a"/>
            </specimen>
            <referenceRange>
               <low>
                  <value value="8.5"/>
                  <system value="http://unitsofmeasure.org"/>
                  <code value="mg/dL"/>
               </low>
            </referenceRange>
            <referenceRange>
               <high>
                  <value value="10.5"/>
                  <system value="http://unitsofmeasure.org"/>
                  <code value="mg/dL"/>
               </high>
            </referenceRange>
         </Observation>
      </resource>
   </entry>
   <entry>
      <fullUrl value="urn:uuid:8b0caa6f-357b-4ac9-9b63-986acb8a8fb8"/>
      <resource>
         <Observation>
            <id value="8b0caa6f-357b-4ac9-9b63-986acb8a8fb8"/>
            <meta>
               <profile value="http://hl7.eu/fhir/laboratory/StructureDefinition/Observation-resultslab-eu-lab"/>
            </meta>
            <text>
               <status value="generated"/>
               <div xmlns="http://www.w3.org/1999/xhtml">
                  <table class="hl7__eu__lab__report">
                     <tr>
                        <th>Test</th>
                        <th>05-Mar-2020</th>
                        <th>Reference Range</th>
                        <th>Unit</th>
                     </tr>
                     <tr>
                        <td>Sodium [Moles/volume] in Serum or Plasma</td>
                        <td>136.7</td>
                        <td>135 - 145</td>
                        <td/>
                        <td>mmol/L</td>
                     </tr>
                  </table>
               </div>
            </text>
            <status value="final"/>
            <category>
               <coding>
                  <system value="http://terminology.hl7.org/CodeSystem/observation-category"/>
                  <code value="laboratory"/>
               </coding>
            </category>
            <code>
               <coding>
                  <system value="http://loinc.org"/>
                  <code value="2951-2"/>
                  <display value="Sodium [Moles/volume] in Serum or Plasma"/>
               </coding>
               <text value="Sodium [Moles/volume] in Serum or Plasma"/>
            </code>
            <subject>
               <reference value="urn:uuid:fe725d33-864a-4528-b6dc-3367273337cf"/>
               <display value="Marthe Gallet"/>
            </subject>
            <effectiveDateTime value="2020-03-05T19:05:43Z"/>
            <performer>
               <display value="The Central European Lab"/>
            </performer>
            <valueQuantity>
               <value value="136.7"/>
               <unit value="mmol/L"/>
               <system value="http://unitsofmeasure.org"/>
               <code value="mmol/L"/>
            </valueQuantity>
            <specimen>
               <reference value="urn:uuid:442cbf01-a0fe-46b7-a6a5-bbc92fc3cb8a"/>
            </specimen>
            <referenceRange>
               <low>
                  <value value="135"/>
                  <system value="http://unitsofmeasure.org"/>
                  <code value="mmol/L"/>
               </low>
            </referenceRange>
            <referenceRange>
               <high>
                  <value value="145"/>
                  <system value="http://unitsofmeasure.org"/>
                  <code value="mmol/L"/>
               </high>
            </referenceRange>
         </Observation>
      </resource>
   </entry>
   <entry>
      <fullUrl value="urn:uuid:e48d2040-c1e5-452c-bb3a-43ec705c86e4"/>
      <resource>
         <Observation>
            <id value="e48d2040-c1e5-452c-bb3a-43ec705c86e4"/>
            <meta>
               <profile value="http://hl7.eu/fhir/laboratory/StructureDefinition/Observation-resultslab-eu-lab"/>
            </meta>
            <text>
               <status value="generated"/>
               <div xmlns="http://www.w3.org/1999/xhtml">
                  <table class="hl7__eu__lab__report">
                     <tr>
                        <th>Test</th>
                        <th>05-Mar-2020</th>
                        <th>Reference Range</th>
                        <th>Unit</th>
                     </tr>
                     <tr>
                        <td>Potassium [Moles/volume] in Serum or Plasma</td>
                        <td>4.0</td>
                        <td>3.5 - 5.1</td>
                        <td/>
                        <td>mmol/L</td>
                     </tr>
                  </table>
               </div>
            </text>
            <status value="final"/>
            <category>
               <coding>
                  <system value="http://terminology.hl7.org/CodeSystem/observation-category"/>
                  <code value="laboratory"/>
               </coding>
            </category>
            <code>
               <coding>
                  <system value="http://loinc.org"/>
                  <code value="2823-3"/>
                  <display value="Potassium [Moles/volume] in Serum or Plasma"/>
               </coding>
               <text value="Potassium [Moles/volume] in Serum or Plasma"/>
            </code>
            <subject>
               <reference value="urn:uuid:fe725d33-864a-4528-b6dc-3367273337cf"/>
               <display value="Marthe Gallet"/>
            </subject>
            <effectiveDateTime value="2020-03-05T19:05:43Z"/>
            <performer>
               <display value="The Central European Lab"/>
            </performer>
            <valueQuantity>
               <value value="4"/>
               <unit value="mmol/L"/>
               <system value="http://unitsofmeasure.org"/>
               <code value="mmol/L"/>
            </valueQuantity>
            <specimen>
               <reference value="urn:uuid:442cbf01-a0fe-46b7-a6a5-bbc92fc3cb8a"/>
            </specimen>
            <referenceRange>
               <low>
                  <value value="3.5"/>
                  <system value="http://unitsofmeasure.org"/>
                  <code value="mmol/L"/>
               </low>
            </referenceRange>
            <referenceRange>
               <high>
                  <value value="5.1"/>
                  <system value="http://unitsofmeasure.org"/>
                  <code value="mmol/L"/>
               </high>
            </referenceRange>
         </Observation>
      </resource>
   </entry>
   <entry>
      <fullUrl value="urn:uuid:470d70bb-28ab-4e1a-8d6b-e281e1a23470"/>
      <resource>
         <Observation>
            <id value="470d70bb-28ab-4e1a-8d6b-e281e1a23470"/>
            <meta>
               <profile value="http://hl7.eu/fhir/laboratory/StructureDefinition/Observation-resultslab-eu-lab"/>
            </meta>
            <text>
               <status value="generated"/>
               <div xmlns="http://www.w3.org/1999/xhtml">
                  <table class="hl7__eu__lab__report">
                     <tr>
                        <th>Test</th>
                        <th>05-Mar-2020</th>
                        <th>Reference Range</th>
                        <th>Unit</th>
                     </tr>
                     <tr>
                        <td>Chloride [Moles/volume] in Serum or Plasma</td>
                        <td>101.6</td>
                        <td>98 - 108</td>
                        <td/>
                        <td>mmol/L</td>
                     </tr>
                  </table>
               </div>
            </text>
            <status value="final"/>
            <category>
               <coding>
                  <system value="http://terminology.hl7.org/CodeSystem/observation-category"/>
                  <code value="laboratory"/>
               </coding>
            </category>
            <code>
               <coding>
                  <system value="http://loinc.org"/>
                  <code value="2075-0"/>
                  <display value="Chloride [Moles/volume] in Serum or Plasma"/>
               </coding>
               <text value="Chloride [Moles/volume] in Serum or Plasma"/>
            </code>
            <subject>
               <reference value="urn:uuid:fe725d33-864a-4528-b6dc-3367273337cf"/>
               <display value="Marthe Gallet"/>
            </subject>
            <effectiveDateTime value="2020-03-05T19:05:43Z"/>
            <performer>
               <display value="The Central European Lab"/>
            </performer>
            <valueQuantity>
               <value value="101.6"/>
               <unit value="mmol/L"/>
               <system value="http://unitsofmeasure.org"/>
               <code value="mmol/L"/>
            </valueQuantity>
            <specimen>
               <reference value="urn:uuid:442cbf01-a0fe-46b7-a6a5-bbc92fc3cb8a"/>
            </specimen>
            <referenceRange>
               <low>
                  <value value="98"/>
                  <system value="http://unitsofmeasure.org"/>
                  <code value="mmol/L"/>
               </low>
            </referenceRange>
            <referenceRange>
               <high>
                  <value value="108"/>
                  <system value="http://unitsofmeasure.org"/>
                  <code value="mmol/L"/>
               </high>
            </referenceRange>
         </Observation>
      </resource>
   </entry>
   <entry>
      <fullUrl value="urn:uuid:1d5e7aae-5a3f-4262-aa8a-6b999a3224ac"/>
      <resource>
         <Observation>
            <id value="1d5e7aae-5a3f-4262-aa8a-6b999a3224ac"/>
            <meta>
               <profile value="http://hl7.eu/fhir/laboratory/StructureDefinition/Observation-resultslab-eu-lab"/>
            </meta>
            <text>
               <status value="generated"/>
               <div xmlns="http://www.w3.org/1999/xhtml">
                  <table class="hl7__eu__lab__report">
                     <tr>
                        <th>Test</th>
                        <th>05-Mar-2020</th>
                        <th>Reference Range</th>
                        <th>Unit</th>
                     </tr>
                     <tr>
                        <td>Carbon dioxide, total [Moles/volume] in Serum or Plasma</td>
                        <td>21.6</td>
                        <td>22 - 32</td>
                        <td>L</td>
                        <td>mmol/L</td>
                     </tr>
                  </table>
               </div>
            </text>
            <status value="final"/>
            <category>
               <coding>
                  <system value="http://terminology.hl7.org/CodeSystem/observation-category"/>
                  <code value="laboratory"/>
               </coding>
            </category>
            <code>
               <coding>
                  <system value="http://loinc.org"/>
                  <code value="2028-9"/>
                  <display value="Carbon dioxide, total [Moles/volume] in Serum or Plasma"/>
               </coding>
               <text value="Carbon dioxide, total [Moles/volume] in Serum or Plasma"/>
            </code>
            <subject>
               <reference value="urn:uuid:fe725d33-864a-4528-b6dc-3367273337cf"/>
               <display value="Marthe Gallet"/>
            </subject>
            <effectiveDateTime value="2020-03-05T19:05:43Z"/>
            <performer>
               <display value="The Central European Lab"/>
            </performer>
            <valueQuantity>
               <value value="21.6"/>
               <unit value="mmol/L"/>
               <system value="http://unitsofmeasure.org"/>
               <code value="mmol/L"/>
            </valueQuantity>
            <interpretation>
               <coding>
                  <system value="http://terminology.hl7.org/CodeSystem/v3-ObservationInterpretation"/>
                  <code value="L"/>
                  <display value="Low"/>
               </coding>
            </interpretation>
            <specimen>
               <reference value="urn:uuid:442cbf01-a0fe-46b7-a6a5-bbc92fc3cb8a"/>
            </specimen>
            <referenceRange>
               <low>
                  <value value="22"/>
                  <system value="http://unitsofmeasure.org"/>
                  <code value="mmol/L"/>
               </low>
            </referenceRange>
            <referenceRange>
               <high>
                  <value value="32"/>
                  <system value="http://unitsofmeasure.org"/>
                  <code value="mmol/L"/>
               </high>
            </referenceRange>
         </Observation>
      </resource>
   </entry>
   <entry>
      <fullUrl value="urn:uuid:9f1383cd-e3ab-43ee-a40a-cb07de37ce36"/>
      <resource>
         <Observation>
            <id value="9f1383cd-e3ab-43ee-a40a-cb07de37ce36"/>
            <meta>
               <profile value="http://hl7.eu/fhir/laboratory/StructureDefinition/Observation-resultslab-eu-lab"/>
            </meta>
            <text>
               <status value="generated"/>
               <div xmlns="http://www.w3.org/1999/xhtml">
                  <table class="hl7__eu__lab__report">
                     <tr>
                        <th>Test</th>
                        <th>05-Mar-2020</th>
                        <th>Reference Range</th>
                        <th>Unit</th>
                     </tr>
                     <tr>
                        <td>Appearance of Urine</td>
                     </tr>
                  </table>
               </div>
            </text>
            <status value="final"/>
            <category>
               <coding>
                  <system value="http://terminology.hl7.org/CodeSystem/observation-category"/>
                  <code value="laboratory"/>
               </coding>
            </category>
            <code>
               <coding>
                  <system value="http://loinc.org"/>
                  <code value="5767-9"/>
                  <display value="Appearance of Urine"/>
               </coding>
               <text value="Appearance of Urine"/>
            </code>
            <subject>
               <reference value="urn:uuid:fe725d33-864a-4528-b6dc-3367273337cf"/>
               <display value="Marthe Gallet"/>
            </subject>
            <effectiveDateTime value="2020-03-05T19:05:43Z"/>
            <performer>
               <display value="The Central European Lab"/>
            </performer>
            <specimen>
               <reference value="urn:uuid:8ce9df69-60db-4b34-ab62-fa044b3c1ef5"/>
            </specimen>
         </Observation>
      </resource>
   </entry>
   <entry>
      <fullUrl value="urn:uuid:cb309392-1bf5-48b7-9b34-944cb7d5e01c"/>
      <resource>
         <Observation>
            <id value="cb309392-1bf5-48b7-9b34-944cb7d5e01c"/>
            <meta>
               <profile value="http://hl7.eu/fhir/laboratory/StructureDefinition/Observation-resultslab-eu-lab"/>
            </meta>
            <text>
               <status value="generated"/>
               <div xmlns="http://www.w3.org/1999/xhtml">
                  <table class="hl7__eu__lab__report">
                     <tr>
                        <th>Test</th>
                        <th>05-Mar-2020</th>
                        <th>Reference Range</th>
                        <th>Unit</th>
                     </tr>
                     <tr>
                        <td>Odor of Urine</td>
                     </tr>
                  </table>
               </div>
            </text>
            <status value="final"/>
            <category>
               <coding>
                  <system value="http://terminology.hl7.org/CodeSystem/observation-category"/>
                  <code value="laboratory"/>
               </coding>
            </category>
            <code>
               <coding>
                  <system value="http://loinc.org"/>
                  <code value="34533-0"/>
                  <display value="Odor of Urine"/>
               </coding>
               <text value="Odor of Urine"/>
            </code>
            <subject>
               <reference value="urn:uuid:fe725d33-864a-4528-b6dc-3367273337cf"/>
               <display value="Marthe Gallet"/>
            </subject>
            <effectiveDateTime value="2020-03-05T19:05:43Z"/>
            <performer>
               <display value="The Central European Lab"/>
            </performer>
            <specimen>
               <reference value="urn:uuid:8ce9df69-60db-4b34-ab62-fa044b3c1ef5"/>
            </specimen>
         </Observation>
      </resource>
   </entry>
   <entry>
      <fullUrl value="urn:uuid:9a68216a-74bd-419b-9af0-8e4410fb299b"/>
      <resource>
         <Observation>
            <id value="9a68216a-74bd-419b-9af0-8e4410fb299b"/>
            <meta>
               <profile value="http://hl7.eu/fhir/laboratory/StructureDefinition/Observation-resultslab-eu-lab"/>
            </meta>
            <text>
               <status value="generated"/>
               <div xmlns="http://www.w3.org/1999/xhtml">
                  <table class="hl7__eu__lab__report">
                     <tr>
                        <th>Test</th>
                        <th>05-Mar-2020</th>
                        <th>Reference Range</th>
                        <th>Unit</th>
                     </tr>
                     <tr>
                        <td>Clarity of Urine</td>
                     </tr>
                  </table>
               </div>
            </text>
            <status value="final"/>
            <category>
               <coding>
                  <system value="http://terminology.hl7.org/CodeSystem/observation-category"/>
                  <code value="laboratory"/>
               </coding>
            </category>
            <code>
               <coding>
                  <system value="http://loinc.org"/>
                  <code value="32167-9"/>
                  <display value="Clarity of Urine"/>
               </coding>
               <text value="Clarity of Urine"/>
            </code>
            <subject>
               <reference value="urn:uuid:fe725d33-864a-4528-b6dc-3367273337cf"/>
               <display value="Marthe Gallet"/>
            </subject>
            <effectiveDateTime value="2020-03-05T19:05:43Z"/>
            <performer>
               <display value="The Central European Lab"/>
            </performer>
            <specimen>
               <reference value="urn:uuid:8ce9df69-60db-4b34-ab62-fa044b3c1ef5"/>
            </specimen>
         </Observation>
      </resource>
   </entry>
   <entry>
      <fullUrl value="urn:uuid:db5d9c00-6418-4aa4-b614-3368608008a1"/>
      <resource>
         <Observation>
            <id value="db5d9c00-6418-4aa4-b614-3368608008a1"/>
            <meta>
               <profile value="http://hl7.eu/fhir/laboratory/StructureDefinition/Observation-resultslab-eu-lab"/>
            </meta>
            <text>
               <status value="generated"/>
               <div xmlns="http://www.w3.org/1999/xhtml">
                  <table class="hl7__eu__lab__report">
                     <tr>
                        <th>Test</th>
                        <th>05-Mar-2020</th>
                        <th>Reference Range</th>
                        <th>Unit</th>
                     </tr>
                     <tr>
                        <td>Color of Urine</td>
                     </tr>
                  </table>
               </div>
            </text>
            <status value="final"/>
            <category>
               <coding>
                  <system value="http://terminology.hl7.org/CodeSystem/observation-category"/>
                  <code value="laboratory"/>
               </coding>
            </category>
            <code>
               <coding>
                  <system value="http://loinc.org"/>
                  <code value="5778-6"/>
                  <display value="Color of Urine"/>
               </coding>
               <text value="Color of Urine"/>
            </code>
            <subject>
               <reference value="urn:uuid:fe725d33-864a-4528-b6dc-3367273337cf"/>
               <display value="Marthe Gallet"/>
            </subject>
            <effectiveDateTime value="2020-03-05T19:05:43Z"/>
            <performer>
               <display value="The Central European Lab"/>
            </performer>
            <specimen>
               <reference value="urn:uuid:8ce9df69-60db-4b34-ab62-fa044b3c1ef5"/>
            </specimen>
         </Observation>
      </resource>
   </entry>
   <entry>
      <fullUrl value="urn:uuid:b781c96d-62ab-48a1-a000-d44f00dd6848"/>
      <resource>
         <Observation>
            <id value="b781c96d-62ab-48a1-a000-d44f00dd6848"/>
            <meta>
               <profile value="http://hl7.eu/fhir/laboratory/StructureDefinition/Observation-resultslab-eu-lab"/>
            </meta>
            <text>
               <status value="generated"/>
               <div xmlns="http://www.w3.org/1999/xhtml">
                  <table class="hl7__eu__lab__report">
                     <tr>
                        <th>Test</th>
                        <th>05-Mar-2020</th>
                        <th>Reference Range</th>
                        <th>Unit</th>
                     </tr>
                     <tr>
                        <td>Glucose [Mass/volume] in Urine by Test strip</td>
                        <td>2.2</td>
                        <td>0.8 - 0</td>
                        <td>H</td>
                        <td>mg/dL</td>
                     </tr>
                  </table>
               </div>
            </text>
            <status value="final"/>
            <category>
               <coding>
                  <system value="http://terminology.hl7.org/CodeSystem/observation-category"/>
                  <code value="laboratory"/>
               </coding>
            </category>
            <code>
               <coding>
                  <system value="http://loinc.org"/>
                  <code value="5792-7"/>
                  <display value="Glucose [Mass/volume] in Urine by Test strip"/>
               </coding>
               <text value="Glucose [Mass/volume] in Urine by Test strip"/>
            </code>
            <subject>
               <reference value="urn:uuid:fe725d33-864a-4528-b6dc-3367273337cf"/>
               <display value="Marthe Gallet"/>
            </subject>
            <effectiveDateTime value="2020-03-05T19:05:43Z"/>
            <performer>
               <display value="The Central European Lab"/>
            </performer>
            <valueQuantity>
               <value value="2.2"/>
               <unit value="mg/dL"/>
               <system value="http://unitsofmeasure.org"/>
               <code value="mg/dL"/>
            </valueQuantity>
            <interpretation>
               <coding>
                  <system value="http://terminology.hl7.org/CodeSystem/v3-ObservationInterpretation"/>
                  <code value="H"/>
                  <display value="High"/>
               </coding>
            </interpretation>
            <specimen>
               <reference value="urn:uuid:8ce9df69-60db-4b34-ab62-fa044b3c1ef5"/>
            </specimen>
            <referenceRange>
               <low>
                  <value value="0.8"/>
                  <system value="http://unitsofmeasure.org"/>
                  <code value="mg/dL"/>
               </low>
            </referenceRange>
            <referenceRange>
               <high>
                  <value value="0"/>
                  <system value="http://unitsofmeasure.org"/>
                  <code value="mg/dL"/>
               </high>
            </referenceRange>
         </Observation>
      </resource>
   </entry>
   <entry>
      <fullUrl value="urn:uuid:f9020520-8c4b-43a1-879c-3b65b02e772c"/>
      <resource>
         <Observation>
            <id value="f9020520-8c4b-43a1-879c-3b65b02e772c"/>
            <meta>
               <profile value="http://hl7.eu/fhir/laboratory/StructureDefinition/Observation-resultslab-eu-lab"/>
            </meta>
            <text>
               <status value="generated"/>
               <div xmlns="http://www.w3.org/1999/xhtml">
                  <table class="hl7__eu__lab__report">
                     <tr>
                        <th>Test</th>
                        <th>05-Mar-2020</th>
                        <th>Reference Range</th>
                        <th>Unit</th>
                     </tr>
                     <tr>
                        <td>Glucose [Presence] in Urine by Test strip</td>
                     </tr>
                  </table>
               </div>
            </text>
            <status value="final"/>
            <category>
               <coding>
                  <system value="http://terminology.hl7.org/CodeSystem/observation-category"/>
                  <code value="laboratory"/>
               </coding>
            </category>
            <code>
               <coding>
                  <system value="http://loinc.org"/>
                  <code value="25428-4"/>
                  <display value="Glucose [Presence] in Urine by Test strip"/>
               </coding>
               <text value="Glucose [Presence] in Urine by Test strip"/>
            </code>
            <subject>
               <reference value="urn:uuid:fe725d33-864a-4528-b6dc-3367273337cf"/>
               <display value="Marthe Gallet"/>
            </subject>
            <effectiveDateTime value="2020-03-05T19:05:43Z"/>
            <performer>
               <display value="The Central European Lab"/>
            </performer>
            <specimen>
               <reference value="urn:uuid:8ce9df69-60db-4b34-ab62-fa044b3c1ef5"/>
            </specimen>
         </Observation>
      </resource>
   </entry>
   <entry>
      <fullUrl value="urn:uuid:2cdaf9f8-7639-42d3-b42c-3f2990163799"/>
      <resource>
         <Observation>
            <id value="2cdaf9f8-7639-42d3-b42c-3f2990163799"/>
            <meta>
               <profile value="http://hl7.eu/fhir/laboratory/StructureDefinition/Observation-resultslab-eu-lab"/>
            </meta>
            <text>
               <status value="generated"/>
               <div xmlns="http://www.w3.org/1999/xhtml">
                  <table class="hl7__eu__lab__report">
                     <tr>
                        <th>Test</th>
                        <th>05-Mar-2020</th>
                        <th>Reference Range</th>
                        <th>Unit</th>
                     </tr>
                     <tr>
                        <td>Bilirubin.total [Mass/volume] in Urine by Test strip</td>
                        <td>0.8</td>
                        <td>0 - 1</td>
                        <td/>
                        <td>mg/dL</td>
                     </tr>
                  </table>
               </div>
            </text>
            <status value="final"/>
            <category>
               <coding>
                  <system value="http://terminology.hl7.org/CodeSystem/observation-category"/>
                  <code value="laboratory"/>
               </coding>
            </category>
            <code>
               <coding>
                  <system value="http://loinc.org"/>
                  <code value="20505-4"/>
                  <display value="Bilirubin.total [Mass/volume] in Urine by Test strip"/>
               </coding>
               <text value="Bilirubin.total [Mass/volume] in Urine by Test strip"/>
            </code>
            <subject>
               <reference value="urn:uuid:fe725d33-864a-4528-b6dc-3367273337cf"/>
               <display value="Marthe Gallet"/>
            </subject>
            <effectiveDateTime value="2020-03-05T19:05:43Z"/>
            <performer>
               <display value="The Central European Lab"/>
            </performer>
            <valueQuantity>
               <value value="0.8"/>
               <unit value="mg/dL"/>
               <system value="http://unitsofmeasure.org"/>
               <code value="mg/dL"/>
            </valueQuantity>
            <specimen>
               <reference value="urn:uuid:8ce9df69-60db-4b34-ab62-fa044b3c1ef5"/>
            </specimen>
            <referenceRange>
               <low>
                  <value value="0"/>
                  <system value="http://unitsofmeasure.org"/>
                  <code value="mg/dL"/>
               </low>
            </referenceRange>
            <referenceRange>
               <high>
                  <value value="1"/>
                  <system value="http://unitsofmeasure.org"/>
                  <code value="mg/dL"/>
               </high>
            </referenceRange>
         </Observation>
      </resource>
   </entry>
   <entry>
      <fullUrl value="urn:uuid:88f0ac2a-d69d-4a69-ab60-642efcf5f7c1"/>
      <resource>
         <Observation>
            <id value="88f0ac2a-d69d-4a69-ab60-642efcf5f7c1"/>
            <meta>
               <profile value="http://hl7.eu/fhir/laboratory/StructureDefinition/Observation-resultslab-eu-lab"/>
            </meta>
            <text>
               <status value="generated"/>
               <div xmlns="http://www.w3.org/1999/xhtml">
                  <table class="hl7__eu__lab__report">
                     <tr>
                        <th>Test</th>
                        <th>05-Mar-2020</th>
                        <th>Reference Range</th>
                        <th>Unit</th>
                     </tr>
                     <tr>
                        <td>Bilirubin.total [Presence] in Urine by Test strip</td>
                     </tr>
                  </table>
               </div>
            </text>
            <status value="final"/>
            <category>
               <coding>
                  <system value="http://terminology.hl7.org/CodeSystem/observation-category"/>
                  <code value="laboratory"/>
               </coding>
            </category>
            <code>
               <coding>
                  <system value="http://loinc.org"/>
                  <code value="5770-3"/>
                  <display value="Bilirubin.total [Presence] in Urine by Test strip"/>
               </coding>
               <text value="Bilirubin.total [Presence] in Urine by Test strip"/>
            </code>
            <subject>
               <reference value="urn:uuid:fe725d33-864a-4528-b6dc-3367273337cf"/>
               <display value="Marthe Gallet"/>
            </subject>
            <effectiveDateTime value="2020-03-05T19:05:43Z"/>
            <performer>
               <display value="The Central European Lab"/>
            </performer>
            <specimen>
               <reference value="urn:uuid:8ce9df69-60db-4b34-ab62-fa044b3c1ef5"/>
            </specimen>
         </Observation>
      </resource>
   </entry>
   <entry>
      <fullUrl value="urn:uuid:632563c3-cc0f-4bad-a3cf-9bf5b6249045"/>
      <resource>
         <Observation>
            <id value="632563c3-cc0f-4bad-a3cf-9bf5b6249045"/>
            <meta>
               <profile value="http://hl7.eu/fhir/laboratory/StructureDefinition/Observation-resultslab-eu-lab"/>
            </meta>
            <text>
               <status value="generated"/>
               <div xmlns="http://www.w3.org/1999/xhtml">
                  <table class="hl7__eu__lab__report">
                     <tr>
                        <th>Test</th>
                        <th>05-Mar-2020</th>
                        <th>Reference Range</th>
                        <th>Unit</th>
                     </tr>
                     <tr>
                        <td>Ketones [Mass/volume] in Urine by Test strip</td>
                        <td>1.6</td>
                        <td>0 - 20</td>
                        <td/>
                        <td>mg/dL</td>
                     </tr>
                  </table>
               </div>
            </text>
            <status value="final"/>
            <category>
               <coding>
                  <system value="http://terminology.hl7.org/CodeSystem/observation-category"/>
                  <code value="laboratory"/>
               </coding>
            </category>
            <code>
               <coding>
                  <system value="http://loinc.org"/>
                  <code value="5797-6"/>
                  <display value="Ketones [Mass/volume] in Urine by Test strip"/>
               </coding>
               <text value="Ketones [Mass/volume] in Urine by Test strip"/>
            </code>
            <subject>
               <reference value="urn:uuid:fe725d33-864a-4528-b6dc-3367273337cf"/>
               <display value="Marthe Gallet"/>
            </subject>
            <effectiveDateTime value="2020-03-05T19:05:43Z"/>
            <performer>
               <display value="The Central European Lab"/>
            </performer>
            <valueQuantity>
               <value value="1.6"/>
               <unit value="mg/dL"/>
               <system value="http://unitsofmeasure.org"/>
               <code value="mg/dL"/>
            </valueQuantity>
            <specimen>
               <reference value="urn:uuid:8ce9df69-60db-4b34-ab62-fa044b3c1ef5"/>
            </specimen>
            <referenceRange>
               <low>
                  <value value="0"/>
                  <system value="http://unitsofmeasure.org"/>
                  <code value="mg/dL"/>
               </low>
            </referenceRange>
            <referenceRange>
               <high>
                  <value value="20"/>
                  <system value="http://unitsofmeasure.org"/>
                  <code value="mg/dL"/>
               </high>
            </referenceRange>
         </Observation>
      </resource>
   </entry>
   <entry>
      <fullUrl value="urn:uuid:17d219d9-c5f7-4318-a553-fa2259f1fa77"/>
      <resource>
         <Observation>
            <id value="17d219d9-c5f7-4318-a553-fa2259f1fa77"/>
            <meta>
               <profile value="http://hl7.eu/fhir/laboratory/StructureDefinition/Observation-resultslab-eu-lab"/>
            </meta>
            <text>
               <status value="generated"/>
               <div xmlns="http://www.w3.org/1999/xhtml">
                  <table class="hl7__eu__lab__report">
                     <tr>
                        <th>Test</th>
                        <th>05-Mar-2020</th>
                        <th>Reference Range</th>
                        <th>Unit</th>
                     </tr>
                     <tr>
                        <td>Ketones [Presence] in Urine by Test strip</td>
                     </tr>
                  </table>
               </div>
            </text>
            <status value="final"/>
            <category>
               <coding>
                  <system value="http://terminology.hl7.org/CodeSystem/observation-category"/>
                  <code value="laboratory"/>
               </coding>
            </category>
            <code>
               <coding>
                  <system value="http://loinc.org"/>
                  <code value="2514-8"/>
                  <display value="Ketones [Presence] in Urine by Test strip"/>
               </coding>
               <text value="Ketones [Presence] in Urine by Test strip"/>
            </code>
            <subject>
               <reference value="urn:uuid:fe725d33-864a-4528-b6dc-3367273337cf"/>
               <display value="Marthe Gallet"/>
            </subject>
            <effectiveDateTime value="2020-03-05T19:05:43Z"/>
            <performer>
               <display value="The Central European Lab"/>
            </performer>
            <specimen>
               <reference value="urn:uuid:8ce9df69-60db-4b34-ab62-fa044b3c1ef5"/>
            </specimen>
         </Observation>
      </resource>
   </entry>
   <entry>
      <fullUrl value="urn:uuid:bcbcec6e-40f2-4ea8-9400-cc95b6b297bf"/>
      <resource>
         <Observation>
            <id value="bcbcec6e-40f2-4ea8-9400-cc95b6b297bf"/>
            <meta>
               <profile value="http://hl7.eu/fhir/laboratory/StructureDefinition/Observation-resultslab-eu-lab"/>
            </meta>
            <text>
               <status value="generated"/>
               <div xmlns="http://www.w3.org/1999/xhtml">
                  <table class="hl7__eu__lab__report">
                     <tr>
                        <th>Test</th>
                        <th>05-Mar-2020</th>
                        <th>Reference Range</th>
                        <th>Unit</th>
                     </tr>
                     <tr>
                        <td>Specific gravity of Urine by Test strip</td>
                        <td>1.0</td>
                        <td>1.01 - 1.03</td>
                        <td>L</td>
                        <td>{nominal}</td>
                     </tr>
                  </table>
               </div>
            </text>
            <status value="final"/>
            <category>
               <coding>
                  <system value="http://terminology.hl7.org/CodeSystem/observation-category"/>
                  <code value="laboratory"/>
               </coding>
            </category>
            <code>
               <coding>
                  <system value="http://loinc.org"/>
                  <code value="5811-5"/>
                  <display value="Specific gravity of Urine by Test strip"/>
               </coding>
               <text value="Specific gravity of Urine by Test strip"/>
            </code>
            <subject>
               <reference value="urn:uuid:fe725d33-864a-4528-b6dc-3367273337cf"/>
               <display value="Marthe Gallet"/>
            </subject>
            <effectiveDateTime value="2020-03-05T19:05:43Z"/>
            <performer>
               <display value="The Central European Lab"/>
            </performer>
            <valueQuantity>
               <value value="1"/>
               <unit value="{nominal}"/>
               <system value="http://unitsofmeasure.org"/>
               <code value="{nominal}"/>
            </valueQuantity>
            <interpretation>
               <coding>
                  <system value="http://terminology.hl7.org/CodeSystem/v3-ObservationInterpretation"/>
                  <code value="L"/>
                  <display value="Low"/>
               </coding>
            </interpretation>
            <specimen>
               <reference value="urn:uuid:8ce9df69-60db-4b34-ab62-fa044b3c1ef5"/>
            </specimen>
            <referenceRange>
               <low>
                  <value value="1.01"/>
                  <system value="http://unitsofmeasure.org"/>
                  <code value="g/mL"/>
               </low>
            </referenceRange>
            <referenceRange>
               <high>
                  <value value="1.03"/>
                  <system value="http://unitsofmeasure.org"/>
                  <code value="g/mL"/>
               </high>
            </referenceRange>
         </Observation>
      </resource>
   </entry>
   <entry>
      <fullUrl value="urn:uuid:2fef1251-c72b-43d1-a742-53f8b26720ba"/>
      <resource>
         <Observation>
            <id value="2fef1251-c72b-43d1-a742-53f8b26720ba"/>
            <meta>
               <profile value="http://hl7.eu/fhir/laboratory/StructureDefinition/Observation-resultslab-eu-lab"/>
            </meta>
            <text>
               <status value="generated"/>
               <div xmlns="http://www.w3.org/1999/xhtml">
                  <table class="hl7__eu__lab__report">
                     <tr>
                        <th>Test</th>
                        <th>05-Mar-2020</th>
                        <th>Reference Range</th>
                        <th>Unit</th>
                     </tr>
                     <tr>
                        <td>pH of Urine by Test strip</td>
                        <td>6.4</td>
                        <td>4.6 - 7</td>
                        <td/>
                        <td>pH</td>
                     </tr>
                  </table>
               </div>
            </text>
            <status value="final"/>
            <category>
               <coding>
                  <system value="http://terminology.hl7.org/CodeSystem/observation-category"/>
                  <code value="laboratory"/>
               </coding>
            </category>
            <code>
               <coding>
                  <system value="http://loinc.org"/>
                  <code value="5803-2"/>
                  <display value="pH of Urine by Test strip"/>
               </coding>
               <text value="pH of Urine by Test strip"/>
            </code>
            <subject>
               <reference value="urn:uuid:fe725d33-864a-4528-b6dc-3367273337cf"/>
               <display value="Marthe Gallet"/>
            </subject>
            <effectiveDateTime value="2020-03-05T19:05:43Z"/>
            <performer>
               <display value="The Central European Lab"/>
            </performer>
            <valueQuantity>
               <value value="6.4"/>
               <unit value="pH"/>
               <system value="http://unitsofmeasure.org"/>
               <code value="pH"/>
            </valueQuantity>
            <specimen>
               <reference value="urn:uuid:8ce9df69-60db-4b34-ab62-fa044b3c1ef5"/>
            </specimen>
            <referenceRange>
               <low>
                  <value value="4.6"/>
                  <system value="http://unitsofmeasure.org"/>
                  <code value="pH"/>
               </low>
            </referenceRange>
            <referenceRange>
               <high>
                  <value value="7"/>
                  <system value="http://unitsofmeasure.org"/>
                  <code value="pH"/>
               </high>
            </referenceRange>
         </Observation>
      </resource>
   </entry>
   <entry>
      <fullUrl value="urn:uuid:33d3ca2a-0e7d-4cb9-8243-deeafcfe0ac3"/>
      <resource>
         <Observation>
            <id value="33d3ca2a-0e7d-4cb9-8243-deeafcfe0ac3"/>
            <meta>
               <profile value="http://hl7.eu/fhir/laboratory/StructureDefinition/Observation-resultslab-eu-lab"/>
            </meta>
            <text>
               <status value="generated"/>
               <div xmlns="http://www.w3.org/1999/xhtml">
                  <table class="hl7__eu__lab__report">
                     <tr>
                        <th>Test</th>
                        <th>05-Mar-2020</th>
                        <th>Reference Range</th>
                        <th>Unit</th>
                     </tr>
                     <tr>
                        <td>Protein [Mass/volume] in Urine by Test strip</td>
                        <td>121.1</td>
                        <td>0 - 15</td>
                        <td>H</td>
                        <td>mg/dL</td>
                     </tr>
                  </table>
               </div>
            </text>
            <status value="final"/>
            <category>
               <coding>
                  <system value="http://terminology.hl7.org/CodeSystem/observation-category"/>
                  <code value="laboratory"/>
               </coding>
            </category>
            <code>
               <coding>
                  <system value="http://loinc.org"/>
                  <code value="5804-0"/>
                  <display value="Protein [Mass/volume] in Urine by Test strip"/>
               </coding>
               <text value="Protein [Mass/volume] in Urine by Test strip"/>
            </code>
            <subject>
               <reference value="urn:uuid:fe725d33-864a-4528-b6dc-3367273337cf"/>
               <display value="Marthe Gallet"/>
            </subject>
            <effectiveDateTime value="2020-03-05T19:05:43Z"/>
            <performer>
               <display value="The Central European Lab"/>
            </performer>
            <valueQuantity>
               <value value="121.1"/>
               <unit value="mg/dL"/>
               <system value="http://unitsofmeasure.org"/>
               <code value="mg/dL"/>
            </valueQuantity>
            <interpretation>
               <coding>
                  <system value="http://terminology.hl7.org/CodeSystem/v3-ObservationInterpretation"/>
                  <code value="H"/>
                  <display value="High"/>
               </coding>
            </interpretation>
            <specimen>
               <reference value="urn:uuid:8ce9df69-60db-4b34-ab62-fa044b3c1ef5"/>
            </specimen>
            <referenceRange>
               <low>
                  <value value="0"/>
                  <system value="http://unitsofmeasure.org"/>
                  <code value="mg/dL"/>
               </low>
            </referenceRange>
            <referenceRange>
               <high>
                  <value value="15"/>
                  <system value="http://unitsofmeasure.org"/>
                  <code value="mg/dL"/>
               </high>
            </referenceRange>
         </Observation>
      </resource>
   </entry>
   <entry>
      <fullUrl value="urn:uuid:d1bb1af3-d2dd-49dd-9b4e-5912d4e932a7"/>
      <resource>
         <Observation>
            <id value="d1bb1af3-d2dd-49dd-9b4e-5912d4e932a7"/>
            <meta>
               <profile value="http://hl7.eu/fhir/laboratory/StructureDefinition/Observation-resultslab-eu-lab"/>
            </meta>
            <text>
               <status value="generated"/>
               <div xmlns="http://www.w3.org/1999/xhtml">
                  <table class="hl7__eu__lab__report">
                     <tr>
                        <th>Test</th>
                        <th>05-Mar-2020</th>
                        <th>Reference Range</th>
                        <th>Unit</th>
                     </tr>
                     <tr>
                        <td>Protein [Presence] in Urine by Test strip</td>
                     </tr>
                  </table>
               </div>
            </text>
            <status value="final"/>
            <category>
               <coding>
                  <system value="http://terminology.hl7.org/CodeSystem/observation-category"/>
                  <code value="laboratory"/>
               </coding>
            </category>
            <code>
               <coding>
                  <system value="http://loinc.org"/>
                  <code value="20454-5"/>
                  <display value="Protein [Presence] in Urine by Test strip"/>
               </coding>
               <text value="Protein [Presence] in Urine by Test strip"/>
            </code>
            <subject>
               <reference value="urn:uuid:fe725d33-864a-4528-b6dc-3367273337cf"/>
               <display value="Marthe Gallet"/>
            </subject>
            <effectiveDateTime value="2020-03-05T19:05:43Z"/>
            <performer>
               <display value="The Central European Lab"/>
            </performer>
            <specimen>
               <reference value="urn:uuid:8ce9df69-60db-4b34-ab62-fa044b3c1ef5"/>
            </specimen>
         </Observation>
      </resource>
   </entry>
   <entry>
      <fullUrl value="urn:uuid:1c53682b-821f-4f79-87c1-306c2895563f"/>
      <resource>
         <Observation>
            <id value="1c53682b-821f-4f79-87c1-306c2895563f"/>
            <meta>
               <profile value="http://hl7.eu/fhir/laboratory/StructureDefinition/Observation-resultslab-eu-lab"/>
            </meta>
            <text>
               <status value="generated"/>
               <div xmlns="http://www.w3.org/1999/xhtml">
                  <table class="hl7__eu__lab__report">
                     <tr>
                        <th>Test</th>
                        <th>05-Mar-2020</th>
                        <th>Reference Range</th>
                        <th>Unit</th>
                     </tr>
                     <tr>
                        <td>Nitrite [Presence] in Urine by Test strip</td>
                     </tr>
                  </table>
               </div>
            </text>
            <status value="final"/>
            <category>
               <coding>
                  <system value="http://terminology.hl7.org/CodeSystem/observation-category"/>
                  <code value="laboratory"/>
               </coding>
            </category>
            <code>
               <coding>
                  <system value="http://loinc.org"/>
                  <code value="5802-4"/>
                  <display value="Nitrite [Presence] in Urine by Test strip"/>
               </coding>
               <text value="Nitrite [Presence] in Urine by Test strip"/>
            </code>
            <subject>
               <reference value="urn:uuid:fe725d33-864a-4528-b6dc-3367273337cf"/>
               <display value="Marthe Gallet"/>
            </subject>
            <effectiveDateTime value="2020-03-05T19:05:43Z"/>
            <performer>
               <display value="The Central European Lab"/>
            </performer>
            <specimen>
               <reference value="urn:uuid:8ce9df69-60db-4b34-ab62-fa044b3c1ef5"/>
            </specimen>
         </Observation>
      </resource>
   </entry>
   <entry>
      <fullUrl value="urn:uuid:8cce67be-9105-4690-b5a6-983912a5c840"/>
      <resource>
         <Observation>
            <id value="8cce67be-9105-4690-b5a6-983912a5c840"/>
            <meta>
               <profile value="http://hl7.eu/fhir/laboratory/StructureDefinition/Observation-resultslab-eu-lab"/>
            </meta>
            <text>
               <status value="generated"/>
               <div xmlns="http://www.w3.org/1999/xhtml">
                  <table class="hl7__eu__lab__report">
                     <tr>
                        <th>Test</th>
                        <th>05-Mar-2020</th>
                        <th>Reference Range</th>
                        <th>Unit</th>
                     </tr>
                     <tr>
                        <td>Hemoglobin [Presence] in Urine by Test strip</td>
                     </tr>
                  </table>
               </div>
            </text>
            <status value="final"/>
            <category>
               <coding>
                  <system value="http://terminology.hl7.org/CodeSystem/observation-category"/>
                  <code value="laboratory"/>
               </coding>
            </category>
            <code>
               <coding>
                  <system value="http://loinc.org"/>
                  <code value="5794-3"/>
                  <display value="Hemoglobin [Presence] in Urine by Test strip"/>
               </coding>
               <text value="Hemoglobin [Presence] in Urine by Test strip"/>
            </code>
            <subject>
               <reference value="urn:uuid:fe725d33-864a-4528-b6dc-3367273337cf"/>
               <display value="Marthe Gallet"/>
            </subject>
            <effectiveDateTime value="2020-03-05T19:05:43Z"/>
            <performer>
               <display value="The Central European Lab"/>
            </performer>
            <specimen>
               <reference value="urn:uuid:8ce9df69-60db-4b34-ab62-fa044b3c1ef5"/>
            </specimen>
         </Observation>
      </resource>
   </entry>
   <entry>
      <fullUrl value="urn:uuid:60973ee6-86ac-409d-8fb5-7ccced7086b0"/>
      <resource>
         <Observation>
            <id value="60973ee6-86ac-409d-8fb5-7ccced7086b0"/>
            <meta>
               <profile value="http://hl7.eu/fhir/laboratory/StructureDefinition/Observation-resultslab-eu-lab"/>
            </meta>
            <text>
               <status value="generated"/>
               <div xmlns="http://www.w3.org/1999/xhtml">
                  <table class="hl7__eu__lab__report">
                     <tr>
                        <th>Test</th>
                        <th>05-Mar-2020</th>
                        <th>Reference Range</th>
                        <th>Unit</th>
                     </tr>
                     <tr>
                        <td>Leukocyte esterase [Presence] in Urine by Test strip</td>
                     </tr>
                  </table>
               </div>
            </text>
            <status value="final"/>
            <category>
               <coding>
                  <system value="http://terminology.hl7.org/CodeSystem/observation-category"/>
                  <code value="laboratory"/>
               </coding>
            </category>
            <code>
               <coding>
                  <system value="http://loinc.org"/>
                  <code value="5799-2"/>
                  <display value="Leukocyte esterase [Presence] in Urine by Test strip"/>
               </coding>
               <text value="Leukocyte esterase [Presence] in Urine by Test strip"/>
            </code>
            <subject>
               <reference value="urn:uuid:fe725d33-864a-4528-b6dc-3367273337cf"/>
               <display value="Marthe Gallet"/>
            </subject>
            <effectiveDateTime value="2020-03-05T19:05:43Z"/>
            <performer>
               <display value="The Central European Lab"/>
            </performer>
            <specimen>
               <reference value="urn:uuid:8ce9df69-60db-4b34-ab62-fa044b3c1ef5"/>
            </specimen>
         </Observation>
      </resource>
   </entry>
   <entry>
      <fullUrl value="urn:uuid:b640785f-f49b-4e61-821b-04a26bffc188"/>
      <resource>
         <Device>
            <id value="b640785f-f49b-4e61-821b-04a26bffc188"/>
            <text>
               <status value="generated"/>
               <div xmlns="http://www.w3.org/1999/xhtml">SYNDERAI Synthetic Generator v5.0</div>
            </text>
            <status value="active&#34;"/>
            <distinctIdentifier value="synderai-generator-50"/>
            <manufacturer value="SYNDERAI Project"/>
            <deviceName>
               <name value="SYNDERAI Synthetic Generator"/>
               <type value="manufacturer-name"/>
            </deviceName>
            <version>
               <value value="5.0"/>
            </version>
         </Device>
      </resource>
   </entry>
   <entry>
      <fullUrl value="urn:uuid:8f7d8a68-e108-46e0-a5a8-ac71e757ebb3"/>
      <resource>
         <Provenance>
            <id value="8f7d8a68-e108-46e0-a5a8-ac71e757ebb3"/>
            <text>
               <status value="generated"/>
               <div xmlns="http://www.w3.org/1999/xhtml">Provenance for SYNDERAI Synthetic Example Data Resource</div>
            </text>
            <target>
               <reference value="Patient/fe725d33-864a-4528-b6dc-3367273337cf"/>
            </target>
            <target>
               <reference value="Bundle/e1c30def-1b66-47b7-ad04-b8888ae238f9"/>
            </target>
            <target>
               <reference value="Composition/14e2a07d-071e-476e-90d2-c07735ba44b3"/>
            </target>
            <target>
               <reference value="PractitionerRole/1d23d29c-25d0-4ef1-9946-886ad037d326"/>
            </target>
            <target>
               <reference value="Practitioner/02138914-824f-4bc9-a764-e3a4d8e71fb3"/>
            </target>
            <target>
               <reference value="PractitionerRole/227dd070-7ae3-4799-bbbf-177306246b5e"/>
            </target>
            <target>
               <reference value="Organization/bf6b78bd-4ada-4d5a-bb76-aee53abc08ea"/>
            </target>
            <recorded value="2020-03-05T20:05:43Z"/>
            <policy value="https://synderai.net/synderai-synthetic-data-policy"/>
            <reason>
               <text value="Interoperability Testing and Training (non-clinical use)"/>
            </reason>
            <activity>
               <text value="Synthetic Example Data Generation"/>
            </activity>
            <agent>
               <type>
                  <text value="author"/>
               </type>
               <who>
                  <reference value="Device/b640785f-f49b-4e61-821b-04a26bffc188"/>
               </who>
            </agent>
         </Provenance>
      </resource>
   </entry>
   <entry>
      <fullUrl value="urn:uuid:1d23d29c-25d0-4ef1-9946-886ad037d326"/>
      <resource>
         <PractitionerRole>
            <id value="1d23d29c-25d0-4ef1-9946-886ad037d326"/>
            <meta>
               <profile value="http://hl7.eu/fhir/base/StructureDefinition/practitionerRole-eu"/>
            </meta>
            <text>
               <status value="generated"/>
               <div xmlns="http://www.w3.org/1999/xhtml">Laboratory Role Id: 1d23d29c-25d0-4ef1-9946-886ad037d326</div>
            </text>
            <practitioner>
               <reference value="urn:uuid:02138914-824f-4bc9-a764-e3a4d8e71fb3"/>
            </practitioner>
         </PractitionerRole>
      </resource>
   </entry>
   <entry>
      <fullUrl value="urn:uuid:02138914-824f-4bc9-a764-e3a4d8e71fb3"/>
      <resource>
         <Practitioner>
            <id value="02138914-824f-4bc9-a764-e3a4d8e71fb3"/>
            <meta>
               <profile value="http://hl7.eu/fhir/base/StructureDefinition/practitioner-eu"/>
            </meta>
            <text>
               <status value="generated"/>
               <div xmlns="http://www.w3.org/1999/xhtml">Laboratory: Laboratoire Central Européenne, 1000 Brussels, Belgium</div>
            </text>
            <identifier>
               <system value="urn:oid:2.16.840.1.113883.2.51.999"/>
               <value value="9ffc3de6-48fa-4001-b01c-49ad54a49cec"/>
               <assigner>
                  <display value="HL7 Europe"/>
               </assigner>
            </identifier>
            <name>
               <family value="Ample"/>
               <given value="Ex"/>
               <prefix value="dr"/>
            </name>
            <address>
               <line value="Laboratoire Central Européenne"/>
               <line value="Boulevard du Jardin Botanique 32"/>
               <city value="Brussels"/>
               <postalCode value="1000"/>
               <country value="Belgium"/>
            </address>
         </Practitioner>
      </resource>
   </entry>
</Bundle>