{
  "resourceType": "Bundle",
  "id": "f2f9f9cf-5c9d-4b31-b464-1cf2feedd2e8",
  "meta": {
    "profile": [
      "http://hl7.eu/fhir/laboratory/StructureDefinition/Bundle-eu-lab"
    ]
  },
  "identifier": {
    "assigner": {
      "display": "HL7 Europe"
    },
    "system": "urn:oid:2.16.840.1.113883.2.51.999",
    "value": "0a5cb50c-718d-47f9-9b43-a0edb4813ae8"
  },
  "entry": [
    {
      "fullUrl": "urn:uuid:cec16ac4-a088-44cd-a9db-29ff752f252f",
      "resource": {
        "resourceType": "Composition",
        "id": "cec16ac4-a088-44cd-a9db-29ff752f252f",
        "meta": {
          "profile": [
            "http://hl7.eu/fhir/laboratory/StructureDefinition/Composition-eu-lab"
          ]
        },
        "identifier": {
          "assigner": {
            "display": "HL7 Europe"
          },
          "system": "urn:oid:2.16.840.1.113883.2.51.999",
          "value": "a9202ffb-8f7f-4a9d-a50e-ec719f2801ab"
        },
        "author": [
          {
            "reference": "urn:uuid:b62ffc7c-f697-499a-b4f5-c59aa138b581"
          }
        ],
        "category": [
          {
            "coding": [
              {
                "code": "26436-6",
                "system": "http://loinc.org",
                "display": "Laboratory studies (set)"
              }
            ]
          }
        ],
        "type": {
          "coding": [
            {
              "code": "11502-2",
              "system": "http://loinc.org",
              "display": "Laboratory report"
            }
          ],
          "text": "Laboratory Report"
        },
        "section": [
          {
            "code": {
              "coding": [
                {
                  "code": "26436-6",
                  "system": "http://loinc.org",
                  "display": "Laboratory studies (set)"
                }
              ],
              "text": "Laboratory studies"
            },
            "section": [
              {
                "code": {
                  "coding": [
                    {
                      "code": "$18719-5",
                      "system": "http://loinc.org",
                      "display": "Chemistry studies (set)"
                    }
                  ],
                  "text": "Chemistry"
                },
                "entry": [
                  {
                    "reference": "urn:uuid:4a1760e1-72c0-4adc-984a-4d47fb838468"
                  },
                  {
                    "reference": "urn:uuid:6da8ad05-183d-4e6a-9510-97b19eec5ccf"
                  },
                  {
                    "reference": "urn:uuid:93d9a1b1-66d0-4552-930b-b33c5aea6f14"
                  },
                  {
                    "reference": "urn:uuid:422f13cf-3db4-4678-8bb2-0df0b06238ed"
                  },
                  {
                    "reference": "urn:uuid:70409ec9-0827-4d00-9269-dfbea3f63f41"
                  },
                  {
                    "reference": "urn:uuid:7b837370-aab1-422c-aaa7-be05b036f5be"
                  },
                  {
                    "reference": "urn:uuid:07a4f819-af91-43c5-80e6-21c0cc9211a1"
                  },
                  {
                    "reference": "urn:uuid:0fd094f0-1996-4cea-9c5a-c7be1e74e16a"
                  },
                  {
                    "reference": "urn:uuid:a72c9df5-dfef-4619-affc-92c5c27fe6f5"
                  },
                  {
                    "reference": "urn:uuid:039e400e-7652-4101-8d19-308fe03bb515"
                  },
                  {
                    "reference": "urn:uuid:543b92c7-3a41-481c-be77-815fffb9b85d"
                  },
                  {
                    "reference": "urn:uuid:dd63d9ab-e777-4e6f-9000-d2207a653764"
                  },
                  {
                    "reference": "urn:uuid:0d008495-b26a-477b-b9cd-abe840c7d1ed"
                  },
                  {
                    "reference": "urn:uuid:ad73a169-7a8c-487b-914e-757ee1625315"
                  },
                  {
                    "reference": "urn:uuid:9f61889b-b6f8-4eb8-bc07-04726a1a8026"
                  },
                  {
                    "reference": "urn:uuid:282fd42e-6218-4b45-91fd-ab5add9edbd6"
                  },
                  {
                    "reference": "urn:uuid:8d00486a-f54d-4e52-952d-c7408b260303"
                  },
                  {
                    "reference": "urn:uuid:850bd5e1-6a5a-4459-88f9-04dfce1dfbb0"
                  },
                  {
                    "reference": "urn:uuid:5b8937a5-5d78-4357-8554-c69eb30a349b"
                  }
                ],
                "text": {
                  "status": "generated",
                  "div": "<div xmlns=\"http://www.w3.org/1999/xhtml\"><h3>Chemistry</h3><table class=\"hl7__eu__lab__report\"><thead><tr><th>Test</th><th>12-JUN-2019</th><th>Reference&#xA0;Range</th><th>Unit</th></tr></thead><tbody><tr><td>Glucose [Mass/volume] in Blood</td><td>71.8</td><td>70 - 99</td><td>mg/dL</td></tr><tr><td>Urea nitrogen [Mass/volume] in Blood</td><td>12.3</td><td>7 - 20</td><td>mg/dL</td></tr><tr><td>Creatinine [Mass/volume] in Blood</td><td><strong>3.4 H</strong></td><td>0.7 - 1.3</td><td>mg/dL</td></tr><tr><td>Calcium [Mass/volume] in Blood</td><td>9.0</td><td>8.5 - 10.5</td><td>mg/dL</td></tr><tr><td>Sodium [Moles/volume] in Blood</td><td>143.1</td><td>135 - 145</td><td>mmol/L</td></tr><tr><td>Potassium [Moles/volume] in Blood</td><td>4.0</td><td>3.5 - 5</td><td>mmol/L</td></tr><tr><td>Chloride [Moles/volume] in Blood</td><td><strong>107.2 H</strong></td><td>98 - 107</td><td>mmol/L</td></tr><tr><td>Carbon dioxide, total [Moles/volume] in Blood</td><td>28.2</td><td>24 - 29</td><td>mmol/L</td></tr><tr><td>Protein [Mass/volume] in Serum or Plasma</td><td>7.7</td><td>6.6 - 8.3</td><td>g/dL</td></tr><tr><td>Albumin [Mass/volume] in Serum or Plasma</td><td>4.6</td><td>3.5 - 5.5</td><td>g/dL</td></tr><tr><td>Globulin [Mass/volume] in Serum by calculation</td><td>2.6</td><td>2 - 3.5</td><td>g/L</td></tr><tr><td>Bilirubin.total [Mass/volume] in Serum or Plasma</td><td>0.6</td><td>0.3 - 1.2</td><td>mg/dL</td></tr><tr><td>Alkaline phosphatase [Enzymatic activity/volume] in Serum or Plasma</td><td>106.2</td><td>39 - 136</td><td>U/L</td></tr><tr><td>Alanine aminotransferase [Enzymatic activity/volume] in Serum or Plasma</td><td>44.0</td><td>7 - 52</td><td>U/L</td></tr><tr><td>Aspartate aminotransferase [Enzymatic activity/volume] in Serum or Plasma</td><td>29.3</td><td>10 - 40</td><td>U/L</td></tr><tr><td>Cholesterol [Mass/volume] in Serum or Plasma</td><td>170.7</td><td>125 - 200</td><td>mg/dL</td></tr><tr><td>Triglyceride [Mass/volume] in Serum or Plasma</td><td><strong>190.8 H</strong></td><td>0 - 150</td><td>mg/dL</td></tr><tr><td>Cholesterol in LDL [Mass/volume] in Serum or Plasma by Direct assay</td><td>119.8</td><td>0 - 130</td><td>mg/dL</td></tr><tr><td>Cholesterol in HDL [Mass/volume] in Serum or Plasma</td><td>53.9</td><td>40 - 100</td><td>mg/dL</td></tr></tbody></table></div>"
                },
                "title": "Chemistry"
              }
            ],
            "title": "Laboratory Report"
          },
          {
            "text": {
              "status": "generated",
              "div": "<div xmlns=\"http://www.w3.org/1999/xhtml\"><h3>Annotation</h3><table class=\"hl7__eu__lab__report\"><tr><th>Conclusion and Recommendations based on this report and previous findings known to us</th></tr><tr><td>The main abnormal findings are elevated creatinine, chloride, and triglycerides, suggesting impaired renal function and dyslipidemia. Other parameters, including glucose, liver enzymes, and electrolytes, are within normal limits. Recommend further evaluation of renal function and cardiovascular risk assessment. Clinical correlation is advised.</td></tr></table></div>"
            },
            "code": {
              "coding": [
                {
                  "system": "http://loinc.org",
                  "code": "48767-8",
                  "display": "Annotation comment"
                }
              ]
            },
            "title": "Annotation comment"
          }
        ],
        "status": "final",
        "subject": {
          "reference": "urn:uuid:31eeeeac-927c-4fc3-9079-7179cbfcc770",
          "display": "Gioele Fabbri"
        },
        "date": "2019-06-12T17:46:20Z",
        "title": "Laboratory Report",
        "confidentiality": "N"
      }
    },
    {
      "fullUrl": "urn:uuid:06115a1a-4ed8-412e-b47c-bfc8465254d0",
      "resource": {
        "resourceType": "DiagnosticReport",
        "id": "06115a1a-4ed8-412e-b47c-bfc8465254d0",
        "meta": {
          "profile": [
            "http://hl7.eu/fhir/laboratory/StructureDefinition/DiagnosticReport-eu-lab"
          ]
        },
        "identifier": [
          {
            "assigner": {
              "display": "HL7 Europe"
            },
            "system": "urn:oid:2.16.840.1.113883.2.51.999",
            "value": "50dbdec2-262c-4515-88da-be460e06d77d"
          }
        ],
        "extension": [
          {
            "url": "http://hl7.org/fhir/5.0/StructureDefinition/extension-DiagnosticReport.composition",
            "valueReference": {
              "reference": "urn:uuid:a9202ffb-8f7f-4a9d-a50e-ec719f2801ab"
            }
          }
        ],
        "category": [
          {
            "coding": [
              {
                "code": "26436-6",
                "system": "http://loinc.org",
                "display": "Laboratory studies (set)"
              }
            ]
          }
        ],
        "specimen": [
          {
            "reference": "urn:uuid:a059563c-164a-4a7f-91b0-a6d0bff6064c"
          },
          {
            "reference": "urn:uuid:70ef1572-0494-4500-b65a-275131281b1f"
          },
          {
            "reference": "urn:uuid:e0bf3317-a1ac-4e31-b9d9-bf6b41d043f5"
          }
        ],
        "result": [
          {
            "reference": "urn:uuid:4a1760e1-72c0-4adc-984a-4d47fb838468"
          },
          {
            "reference": "urn:uuid:6da8ad05-183d-4e6a-9510-97b19eec5ccf"
          },
          {
            "reference": "urn:uuid:93d9a1b1-66d0-4552-930b-b33c5aea6f14"
          },
          {
            "reference": "urn:uuid:422f13cf-3db4-4678-8bb2-0df0b06238ed"
          },
          {
            "reference": "urn:uuid:70409ec9-0827-4d00-9269-dfbea3f63f41"
          },
          {
            "reference": "urn:uuid:7b837370-aab1-422c-aaa7-be05b036f5be"
          },
          {
            "reference": "urn:uuid:07a4f819-af91-43c5-80e6-21c0cc9211a1"
          },
          {
            "reference": "urn:uuid:0fd094f0-1996-4cea-9c5a-c7be1e74e16a"
          },
          {
            "reference": "urn:uuid:a72c9df5-dfef-4619-affc-92c5c27fe6f5"
          },
          {
            "reference": "urn:uuid:039e400e-7652-4101-8d19-308fe03bb515"
          },
          {
            "reference": "urn:uuid:543b92c7-3a41-481c-be77-815fffb9b85d"
          },
          {
            "reference": "urn:uuid:dd63d9ab-e777-4e6f-9000-d2207a653764"
          },
          {
            "reference": "urn:uuid:0d008495-b26a-477b-b9cd-abe840c7d1ed"
          },
          {
            "reference": "urn:uuid:ad73a169-7a8c-487b-914e-757ee1625315"
          },
          {
            "reference": "urn:uuid:9f61889b-b6f8-4eb8-bc07-04726a1a8026"
          },
          {
            "reference": "urn:uuid:282fd42e-6218-4b45-91fd-ab5add9edbd6"
          },
          {
            "reference": "urn:uuid:8d00486a-f54d-4e52-952d-c7408b260303"
          },
          {
            "reference": "urn:uuid:850bd5e1-6a5a-4459-88f9-04dfce1dfbb0"
          },
          {
            "reference": "urn:uuid:5b8937a5-5d78-4357-8554-c69eb30a349b"
          }
        ],
        "status": "registered",
        "code": {
          "coding": [
            {
              "code": "11502-2",
              "system": "http://loinc.org",
              "display": "Laboratory report"
            }
          ]
        },
        "subject": {
          "reference": "urn:uuid:31eeeeac-927c-4fc3-9079-7179cbfcc770",
          "display": "Gioele Fabbri"
        }
      }
    },
    {
      "fullUrl": "urn:uuid:31eeeeac-927c-4fc3-9079-7179cbfcc770",
      "resource": {
        "resourceType": "Patient",
        "id": "31eeeeac-927c-4fc3-9079-7179cbfcc770",
        "meta": {
          "security": [
            {
              "system": "http://terminology.hl7.org/CodeSystem/v3-ActReason",
              "code": "HTEST"
            },
            {
              "system": "http://terminology.hl7.org/CodeSystem/v3-ActReason",
              "code": "TRAIN"
            }
          ],
          "tag": [
            {
              "system": "https://synderai.net/fhir/CodeSystem/tags",
              "code": "synthetic",
              "display": "SYNDERAI Synthetic data"
            }
          ],
          "profile": [
            "http://hl7.eu/fhir/base/StructureDefinition/patient-eu-core"
          ]
        },
        "identifier": [
          {
            "type": {
              "coding": [
                {
                  "code": "PT",
                  "system": "http://terminology.hl7.org/CodeSystem/v2-0203"
                }
              ]
            },
            "system": "http://ec.europa.eu/identifier/eci",
            "value": "3631-767680-1"
          },
          {
            "type": {
              "coding": [
                {
                  "code": "MR",
                  "system": "http://terminology.hl7.org/CodeSystem/v2-0203"
                }
              ]
            },
            "system": "http://local.setting.eu/identifier",
            "value": "0a14935e-e0f7-2e1e-46fa-42b10e75d1f9"
          }
        ],
        "name": [
          {
            "family": "Fabbri"
          },
          {
            "given": [
              "Gioele"
            ]
          },
          {
            "text": "Gioele Fabbri"
          }
        ],
        "address": [
          {
            "line": [
              "Canale Armani, 25"
            ],
            "use": "home",
            "type": "physical",
            "postalCode": "23887",
            "city": "Revislate",
            "country": "Italy"
          }
        ],
        "telecom": [
          {
            "system": "phone",
            "value": "+39 0423197768"
          }
        ],
        "extension": [
          {
            "url": "http://hl7.org/fhir/StructureDefinition/patient-nationality",
            "valueCodeableConcept": {
              "coding": [
                {
                  "code": "IT",
                  "system": "http://hl7.org/fhir/ValueSet/country"
                }
              ]
            }
          }
        ],
        "text": {
          "status": "generated",
          "div": "<div xmlns=\"http://www.w3.org/1999/xhtml\"><table class=\"hl7__ips\"><tr><td>Gioele Fabbri</td><td>male</td><td>12-Sep-1972</td></tr></table></div>"
        },
        "gender": "male",
        "birthDate": "1972-09-12"
      }
    },
    {
      "fullUrl": "urn:uuid:a1852e5f-5880-4d82-8c04-8639c3c06a58",
      "resource": {
        "resourceType": "ServiceRequest",
        "id": "a1852e5f-5880-4d82-8c04-8639c3c06a58",
        "meta": {
          "profile": [
            "http://hl7.eu/fhir/laboratory/StructureDefinition/ServiceRequest-eu-lab"
          ]
        },
        "identifier": [
          {
            "system": "http://example.org",
            "value": "90ca75f8-ee6b-4ddb-9db8-8b277f9dde4d"
          }
        ],
        "specimen": [
          {
            "reference": "urn:uuid:a059563c-164a-4a7f-91b0-a6d0bff6064c"
          },
          {
            "reference": "urn:uuid:70ef1572-0494-4500-b65a-275131281b1f"
          },
          {
            "reference": "urn:uuid:e0bf3317-a1ac-4e31-b9d9-bf6b41d043f5"
          }
        ],
        "reasonCode": [
          {
            "coding": [
              {
                "code": "271737000",
                "system": "http://snomed.info/sct",
                "display": "Anemia"
              }
            ]
          },
          {
            "coding": [
              {
                "code": "15777000",
                "system": "http://snomed.info/sct",
                "display": "Prediabetes"
              }
            ]
          },
          {
            "coding": [
              {
                "code": "713197008",
                "system": "http://snomed.info/sct",
                "display": "Recurrent rectal polyp"
              }
            ]
          },
          {
            "coding": [
              {
                "code": "68496003",
                "system": "http://snomed.info/sct",
                "display": "Polyp of colon"
              }
            ]
          },
          {
            "coding": [
              {
                "code": "55822004",
                "system": "http://snomed.info/sct",
                "display": "Hyperlipidemia"
              }
            ]
          },
          {
            "coding": [
              {
                "code": "124171000119105",
                "system": "http://snomed.info/sct",
                "display": "Chronic intractable migraine without aura"
              }
            ]
          }
        ],
        "status": "active",
        "intent": "order",
        "code": {
          "coding": [
            {
              "code": "108252007",
              "system": "http://snomed.info/sct",
              "display": "Laboratory procedure"
            }
          ]
        },
        "subject": {
          "reference": "urn:uuid:31eeeeac-927c-4fc3-9079-7179cbfcc770",
          "display": "Gioele Fabbri"
        },
        "requester": {
          "reference": "urn:uuid:fd1f5a25-c843-40d9-bdc4-5cc3dcaff1ce"
        }
      }
    },
    {
      "fullUrl": "urn:uuid:fd1f5a25-c843-40d9-bdc4-5cc3dcaff1ce",
      "resource": {
        "resourceType": "PractitionerRole",
        "id": "fd1f5a25-c843-40d9-bdc4-5cc3dcaff1ce",
        "meta": {
          "profile": [
            "http://hl7.eu/fhir/base/StructureDefinition/practitionerRole-eu"
          ]
        },
        "text": {
          "status": "generated",
          "div": "<div xmlns=\"http://www.w3.org/1999/xhtml\">Provider Role Id: fd1f5a25-c843-40d9-bdc4-5cc3dcaff1ce</div>"
        },
        "organization": {
          "reference": "urn:uuid:e0e87eb7-b18d-43d2-ae9f-ad89581be3a8"
        }
      }
    },
    {
      "fullUrl": "urn:uuid:e0e87eb7-b18d-43d2-ae9f-ad89581be3a8",
      "resource": {
        "resourceType": "Organization",
        "id": "e0e87eb7-b18d-43d2-ae9f-ad89581be3a8",
        "meta": {
          "profile": [
            "http://hl7.eu/fhir/base/StructureDefinition/organization-eu"
          ]
        },
        "identifier": [
          {
            "assigner": {
              "display": "HL7 Europe"
            },
            "system": "urn:oid:2.16.840.1.113883.2.51.999",
            "value": "e46287f3-154b-48e3-be64-528c380f9984"
          }
        ],
        "address": [
          {
            "line": [
              "Piazza Ospedale 3"
            ],
            "city": "Calcinate",
            "postalCode": "24050",
            "country": "Italy"
          }
        ],
        "text": {
          "status": "generated",
          "div": "<div xmlns=\"http://www.w3.org/1999/xhtml\">Provider Organization: Ospedale di Calcinate &quot;F.M. Passi&quot;</div>"
        },
        "name": "Ospedale di Calcinate &quot;F.M. Passi&quot;"
      }
    },
    {
      "fullUrl": "urn:uuid:a059563c-164a-4a7f-91b0-a6d0bff6064c",
      "resource": {
        "resourceType": "Specimen",
        "id": "a059563c-164a-4a7f-91b0-a6d0bff6064c",
        "meta": {
          "profile": [
            "http://hl7.eu/fhir/laboratory/StructureDefinition/Specimen-eu-lab"
          ]
        },
        "collection": {
          "collectedDateTime": "2019-06-12"
        },
        "text": {
          "status": "generated",
          "div": "<div xmlns=\"http://www.w3.org/1999/xhtml\"><table class=\"hl7__eu__lab__report\"><tr><th>Specimen</th><th>Collection Date</th></tr><tr><td>Whole blood specimen (specimen)</td><td><span class=\"nb\">12-Jun-2019</span></td></tr></table></div>"
        },
        "type": {
          "coding": [
            {
              "code": "258580003",
              "system": "http://snomed.info/sct",
              "display": "Whole blood specimen (specimen)"
            }
          ]
        }
      }
    },
    {
      "fullUrl": "urn:uuid:70ef1572-0494-4500-b65a-275131281b1f",
      "resource": {
        "resourceType": "Specimen",
        "id": "70ef1572-0494-4500-b65a-275131281b1f",
        "meta": {
          "profile": [
            "http://hl7.eu/fhir/laboratory/StructureDefinition/Specimen-eu-lab"
          ]
        },
        "collection": {
          "collectedDateTime": "2019-06-12"
        },
        "text": {
          "status": "generated",
          "div": "<div xmlns=\"http://www.w3.org/1999/xhtml\"><table class=\"hl7__eu__lab__report\"><tr><th>Specimen</th><th>Collection Date</th></tr><tr><td>Acellular blood (serum or plasma) specimen</td><td><span class=\"nb\">12-Jun-2019</span></td></tr></table></div>"
        },
        "type": {
          "coding": [
            {
              "code": "122592007",
              "system": "http://snomed.info/sct",
              "display": "Acellular blood (serum or plasma) specimen"
            }
          ]
        }
      }
    },
    {
      "fullUrl": "urn:uuid:e0bf3317-a1ac-4e31-b9d9-bf6b41d043f5",
      "resource": {
        "resourceType": "Specimen",
        "id": "e0bf3317-a1ac-4e31-b9d9-bf6b41d043f5",
        "meta": {
          "profile": [
            "http://hl7.eu/fhir/laboratory/StructureDefinition/Specimen-eu-lab"
          ]
        },
        "collection": {
          "collectedDateTime": "2019-06-12"
        },
        "text": {
          "status": "generated",
          "div": "<div xmlns=\"http://www.w3.org/1999/xhtml\"><table class=\"hl7__eu__lab__report\"><tr><th>Specimen</th><th>Collection Date</th></tr><tr><td>Serum specimen</td><td><span class=\"nb\">12-Jun-2019</span></td></tr></table></div>"
        },
        "type": {
          "coding": [
            {
              "code": "119364003",
              "system": "http://snomed.info/sct",
              "display": "Serum specimen"
            }
          ]
        }
      }
    },
    {
      "fullUrl": "urn:uuid:4a1760e1-72c0-4adc-984a-4d47fb838468",
      "resource": {
        "resourceType": "Observation",
        "id": "4a1760e1-72c0-4adc-984a-4d47fb838468",
        "meta": {
          "profile": [
            "http://hl7.eu/fhir/laboratory/StructureDefinition/Observation-resultslab-eu-lab"
          ]
        },
        "performer": [
          {
            "display": "The Central European Lab"
          }
        ],
        "category": [
          {
            "coding": [
              {
                "system": "http://terminology.hl7.org/CodeSystem/observation-category",
                "code": "laboratory"
              }
            ]
          }
        ],
        "code": {
          "coding": [
            {
              "code": "2339-0",
              "system": "http://loinc.org",
              "display": "Glucose [Mass/volume] in Blood"
            }
          ],
          "text": "Glucose [Mass/volume] in Blood"
        },
        "valueQuantity": {
          "system": "http://unitsofmeasure.org",
          "value": 71.8,
          "unit": "mg/dL",
          "code": "mg/dL"
        },
        "referenceRange": [
          {
            "low": {
              "value": 70,
              "code": "mg/dL",
              "system": "http://unitsofmeasure.org"
            }
          },
          {
            "high": {
              "value": 99,
              "code": "mg/dL",
              "system": "http://unitsofmeasure.org"
            }
          }
        ],
        "text": {
          "status": "generated",
          "div": "<div xmlns=\"http://www.w3.org/1999/xhtml\"><table class=\"hl7__eu__lab__report\"><tr><th>Test</th><th>12-Jun-2019</th><th>Reference&#xA0;Range</th><th>Unit</th></tr><tr><td>Glucose [Mass/volume] in Blood</td><td>71.8</td><td>70 - 99</td><td></td><td>mg/dL</td></tr></table></div>"
        },
        "status": "final",
        "subject": {
          "reference": "urn:uuid:31eeeeac-927c-4fc3-9079-7179cbfcc770",
          "display": "Gioele Fabbri"
        },
        "effectiveDateTime": "2019-06-12T15:46:20Z",
        "specimen": {
          "reference": "urn:uuid:a059563c-164a-4a7f-91b0-a6d0bff6064c"
        }
      }
    },
    {
      "fullUrl": "urn:uuid:6da8ad05-183d-4e6a-9510-97b19eec5ccf",
      "resource": {
        "resourceType": "Observation",
        "id": "6da8ad05-183d-4e6a-9510-97b19eec5ccf",
        "meta": {
          "profile": [
            "http://hl7.eu/fhir/laboratory/StructureDefinition/Observation-resultslab-eu-lab"
          ]
        },
        "performer": [
          {
            "display": "The Central European Lab"
          }
        ],
        "category": [
          {
            "coding": [
              {
                "system": "http://terminology.hl7.org/CodeSystem/observation-category",
                "code": "laboratory"
              }
            ]
          }
        ],
        "code": {
          "coding": [
            {
              "code": "6299-2",
              "system": "http://loinc.org",
              "display": "Urea nitrogen [Mass/volume] in Blood"
            }
          ],
          "text": "Urea nitrogen [Mass/volume] in Blood"
        },
        "valueQuantity": {
          "system": "http://unitsofmeasure.org",
          "value": 12.3,
          "unit": "mg/dL",
          "code": "mg/dL"
        },
        "referenceRange": [
          {
            "low": {
              "value": 7,
              "code": "mg/dL",
              "system": "http://unitsofmeasure.org"
            }
          },
          {
            "high": {
              "value": 20,
              "code": "mg/dL",
              "system": "http://unitsofmeasure.org"
            }
          }
        ],
        "text": {
          "status": "generated",
          "div": "<div xmlns=\"http://www.w3.org/1999/xhtml\"><table class=\"hl7__eu__lab__report\"><tr><th>Test</th><th>12-Jun-2019</th><th>Reference&#xA0;Range</th><th>Unit</th></tr><tr><td>Urea nitrogen [Mass/volume] in Blood</td><td>12.3</td><td>7 - 20</td><td></td><td>mg/dL</td></tr></table></div>"
        },
        "status": "final",
        "subject": {
          "reference": "urn:uuid:31eeeeac-927c-4fc3-9079-7179cbfcc770",
          "display": "Gioele Fabbri"
        },
        "effectiveDateTime": "2019-06-12T15:46:20Z",
        "specimen": {
          "reference": "urn:uuid:a059563c-164a-4a7f-91b0-a6d0bff6064c"
        }
      }
    },
    {
      "fullUrl": "urn:uuid:93d9a1b1-66d0-4552-930b-b33c5aea6f14",
      "resource": {
        "resourceType": "Observation",
        "id": "93d9a1b1-66d0-4552-930b-b33c5aea6f14",
        "meta": {
          "profile": [
            "http://hl7.eu/fhir/laboratory/StructureDefinition/Observation-resultslab-eu-lab"
          ]
        },
        "performer": [
          {
            "display": "The Central European Lab"
          }
        ],
        "category": [
          {
            "coding": [
              {
                "system": "http://terminology.hl7.org/CodeSystem/observation-category",
                "code": "laboratory"
              }
            ]
          }
        ],
        "code": {
          "coding": [
            {
              "code": "38483-4",
              "system": "http://loinc.org",
              "display": "Creatinine [Mass/volume] in Blood"
            }
          ],
          "text": "Creatinine [Mass/volume] in Blood"
        },
        "valueQuantity": {
          "system": "http://unitsofmeasure.org",
          "value": 3.4,
          "unit": "mg/dL",
          "code": "mg/dL"
        },
        "referenceRange": [
          {
            "low": {
              "value": 0.7,
              "code": "mg/dL",
              "system": "http://unitsofmeasure.org"
            }
          },
          {
            "high": {
              "value": 1.3,
              "code": "mg/dL",
              "system": "http://unitsofmeasure.org"
            }
          }
        ],
        "interpretation": [
          {
            "coding": [
              {
                "code": "H",
                "system": "http://terminology.hl7.org/CodeSystem/v3-ObservationInterpretation",
                "display": "High"
              }
            ]
          }
        ],
        "text": {
          "status": "generated",
          "div": "<div xmlns=\"http://www.w3.org/1999/xhtml\"><table class=\"hl7__eu__lab__report\"><tr><th>Test</th><th>12-Jun-2019</th><th>Reference&#xA0;Range</th><th>Unit</th></tr><tr><td>Creatinine [Mass/volume] in Blood</td><td>3.4</td><td>0.7 - 1.3</td><td>H</td><td>mg/dL</td></tr></table></div>"
        },
        "status": "final",
        "subject": {
          "reference": "urn:uuid:31eeeeac-927c-4fc3-9079-7179cbfcc770",
          "display": "Gioele Fabbri"
        },
        "effectiveDateTime": "2019-06-12T15:46:20Z",
        "specimen": {
          "reference": "urn:uuid:a059563c-164a-4a7f-91b0-a6d0bff6064c"
        }
      }
    },
    {
      "fullUrl": "urn:uuid:422f13cf-3db4-4678-8bb2-0df0b06238ed",
      "resource": {
        "resourceType": "Observation",
        "id": "422f13cf-3db4-4678-8bb2-0df0b06238ed",
        "meta": {
          "profile": [
            "http://hl7.eu/fhir/laboratory/StructureDefinition/Observation-resultslab-eu-lab"
          ]
        },
        "performer": [
          {
            "display": "The Central European Lab"
          }
        ],
        "category": [
          {
            "coding": [
              {
                "system": "http://terminology.hl7.org/CodeSystem/observation-category",
                "code": "laboratory"
              }
            ]
          }
        ],
        "code": {
          "coding": [
            {
              "code": "49765-1",
              "system": "http://loinc.org",
              "display": "Calcium [Mass/volume] in Blood"
            }
          ],
          "text": "Calcium [Mass/volume] in Blood"
        },
        "valueQuantity": {
          "system": "http://unitsofmeasure.org",
          "value": 9,
          "unit": "mg/dL",
          "code": "mg/dL"
        },
        "referenceRange": [
          {
            "low": {
              "value": 8.5,
              "code": "mg/dL",
              "system": "http://unitsofmeasure.org"
            }
          },
          {
            "high": {
              "value": 10.5,
              "code": "mg/dL",
              "system": "http://unitsofmeasure.org"
            }
          }
        ],
        "text": {
          "status": "generated",
          "div": "<div xmlns=\"http://www.w3.org/1999/xhtml\"><table class=\"hl7__eu__lab__report\"><tr><th>Test</th><th>12-Jun-2019</th><th>Reference&#xA0;Range</th><th>Unit</th></tr><tr><td>Calcium [Mass/volume] in Blood</td><td>9.0</td><td>8.5 - 10.5</td><td></td><td>mg/dL</td></tr></table></div>"
        },
        "status": "final",
        "subject": {
          "reference": "urn:uuid:31eeeeac-927c-4fc3-9079-7179cbfcc770",
          "display": "Gioele Fabbri"
        },
        "effectiveDateTime": "2019-06-12T15:46:20Z",
        "specimen": {
          "reference": "urn:uuid:a059563c-164a-4a7f-91b0-a6d0bff6064c"
        }
      }
    },
    {
      "fullUrl": "urn:uuid:70409ec9-0827-4d00-9269-dfbea3f63f41",
      "resource": {
        "resourceType": "Observation",
        "id": "70409ec9-0827-4d00-9269-dfbea3f63f41",
        "meta": {
          "profile": [
            "http://hl7.eu/fhir/laboratory/StructureDefinition/Observation-resultslab-eu-lab"
          ]
        },
        "performer": [
          {
            "display": "The Central European Lab"
          }
        ],
        "category": [
          {
            "coding": [
              {
                "system": "http://terminology.hl7.org/CodeSystem/observation-category",
                "code": "laboratory"
              }
            ]
          }
        ],
        "code": {
          "coding": [
            {
              "code": "2947-0",
              "system": "http://loinc.org",
              "display": "Sodium [Moles/volume] in Blood"
            }
          ],
          "text": "Sodium [Moles/volume] in Blood"
        },
        "valueQuantity": {
          "system": "http://unitsofmeasure.org",
          "value": 143.1,
          "unit": "mmol/L",
          "code": "mmol/L"
        },
        "referenceRange": [
          {
            "low": {
              "value": 135,
              "code": "mmol/L",
              "system": "http://unitsofmeasure.org"
            }
          },
          {
            "high": {
              "value": 145,
              "code": "mmol/L",
              "system": "http://unitsofmeasure.org"
            }
          }
        ],
        "text": {
          "status": "generated",
          "div": "<div xmlns=\"http://www.w3.org/1999/xhtml\"><table class=\"hl7__eu__lab__report\"><tr><th>Test</th><th>12-Jun-2019</th><th>Reference&#xA0;Range</th><th>Unit</th></tr><tr><td>Sodium [Moles/volume] in Blood</td><td>143.1</td><td>135 - 145</td><td></td><td>mmol/L</td></tr></table></div>"
        },
        "status": "final",
        "subject": {
          "reference": "urn:uuid:31eeeeac-927c-4fc3-9079-7179cbfcc770",
          "display": "Gioele Fabbri"
        },
        "effectiveDateTime": "2019-06-12T15:46:20Z",
        "specimen": {
          "reference": "urn:uuid:a059563c-164a-4a7f-91b0-a6d0bff6064c"
        }
      }
    },
    {
      "fullUrl": "urn:uuid:7b837370-aab1-422c-aaa7-be05b036f5be",
      "resource": {
        "resourceType": "Observation",
        "id": "7b837370-aab1-422c-aaa7-be05b036f5be",
        "meta": {
          "profile": [
            "http://hl7.eu/fhir/laboratory/StructureDefinition/Observation-resultslab-eu-lab"
          ]
        },
        "performer": [
          {
            "display": "The Central European Lab"
          }
        ],
        "category": [
          {
            "coding": [
              {
                "system": "http://terminology.hl7.org/CodeSystem/observation-category",
                "code": "laboratory"
              }
            ]
          }
        ],
        "code": {
          "coding": [
            {
              "code": "6298-4",
              "system": "http://loinc.org",
              "display": "Potassium [Moles/volume] in Blood"
            }
          ],
          "text": "Potassium [Moles/volume] in Blood"
        },
        "valueQuantity": {
          "system": "http://unitsofmeasure.org",
          "value": 4,
          "unit": "mmol/L",
          "code": "mmol/L"
        },
        "referenceRange": [
          {
            "low": {
              "value": 3.5,
              "code": "mmol/L",
              "system": "http://unitsofmeasure.org"
            }
          },
          {
            "high": {
              "value": 5,
              "code": "mmol/L",
              "system": "http://unitsofmeasure.org"
            }
          }
        ],
        "text": {
          "status": "generated",
          "div": "<div xmlns=\"http://www.w3.org/1999/xhtml\"><table class=\"hl7__eu__lab__report\"><tr><th>Test</th><th>12-Jun-2019</th><th>Reference&#xA0;Range</th><th>Unit</th></tr><tr><td>Potassium [Moles/volume] in Blood</td><td>4.0</td><td>3.5 - 5</td><td></td><td>mmol/L</td></tr></table></div>"
        },
        "status": "final",
        "subject": {
          "reference": "urn:uuid:31eeeeac-927c-4fc3-9079-7179cbfcc770",
          "display": "Gioele Fabbri"
        },
        "effectiveDateTime": "2019-06-12T15:46:20Z",
        "specimen": {
          "reference": "urn:uuid:a059563c-164a-4a7f-91b0-a6d0bff6064c"
        }
      }
    },
    {
      "fullUrl": "urn:uuid:07a4f819-af91-43c5-80e6-21c0cc9211a1",
      "resource": {
        "resourceType": "Observation",
        "id": "07a4f819-af91-43c5-80e6-21c0cc9211a1",
        "meta": {
          "profile": [
            "http://hl7.eu/fhir/laboratory/StructureDefinition/Observation-resultslab-eu-lab"
          ]
        },
        "performer": [
          {
            "display": "The Central European Lab"
          }
        ],
        "category": [
          {
            "coding": [
              {
                "system": "http://terminology.hl7.org/CodeSystem/observation-category",
                "code": "laboratory"
              }
            ]
          }
        ],
        "code": {
          "coding": [
            {
              "code": "2069-3",
              "system": "http://loinc.org",
              "display": "Chloride [Moles/volume] in Blood"
            }
          ],
          "text": "Chloride [Moles/volume] in Blood"
        },
        "valueQuantity": {
          "system": "http://unitsofmeasure.org",
          "value": 107.2,
          "unit": "mmol/L",
          "code": "mmol/L"
        },
        "referenceRange": [
          {
            "low": {
              "value": 98,
              "code": "mmol/L",
              "system": "http://unitsofmeasure.org"
            }
          },
          {
            "high": {
              "value": 107,
              "code": "mmol/L",
              "system": "http://unitsofmeasure.org"
            }
          }
        ],
        "interpretation": [
          {
            "coding": [
              {
                "code": "H",
                "system": "http://terminology.hl7.org/CodeSystem/v3-ObservationInterpretation",
                "display": "High"
              }
            ]
          }
        ],
        "text": {
          "status": "generated",
          "div": "<div xmlns=\"http://www.w3.org/1999/xhtml\"><table class=\"hl7__eu__lab__report\"><tr><th>Test</th><th>12-Jun-2019</th><th>Reference&#xA0;Range</th><th>Unit</th></tr><tr><td>Chloride [Moles/volume] in Blood</td><td>107.2</td><td>98 - 107</td><td>H</td><td>mmol/L</td></tr></table></div>"
        },
        "status": "final",
        "subject": {
          "reference": "urn:uuid:31eeeeac-927c-4fc3-9079-7179cbfcc770",
          "display": "Gioele Fabbri"
        },
        "effectiveDateTime": "2019-06-12T15:46:20Z",
        "specimen": {
          "reference": "urn:uuid:a059563c-164a-4a7f-91b0-a6d0bff6064c"
        }
      }
    },
    {
      "fullUrl": "urn:uuid:0fd094f0-1996-4cea-9c5a-c7be1e74e16a",
      "resource": {
        "resourceType": "Observation",
        "id": "0fd094f0-1996-4cea-9c5a-c7be1e74e16a",
        "meta": {
          "profile": [
            "http://hl7.eu/fhir/laboratory/StructureDefinition/Observation-resultslab-eu-lab"
          ]
        },
        "performer": [
          {
            "display": "The Central European Lab"
          }
        ],
        "category": [
          {
            "coding": [
              {
                "system": "http://terminology.hl7.org/CodeSystem/observation-category",
                "code": "laboratory"
              }
            ]
          }
        ],
        "code": {
          "coding": [
            {
              "code": "20565-8",
              "system": "http://loinc.org",
              "display": "Carbon dioxide, total [Moles/volume] in Blood"
            }
          ],
          "text": "Carbon dioxide, total [Moles/volume] in Blood"
        },
        "valueQuantity": {
          "system": "http://unitsofmeasure.org",
          "value": 28.2,
          "unit": "mmol/L",
          "code": "mmol/L"
        },
        "referenceRange": [
          {
            "low": {
              "value": 24,
              "code": "mmol/L",
              "system": "http://unitsofmeasure.org"
            }
          },
          {
            "high": {
              "value": 29,
              "code": "mmol/L",
              "system": "http://unitsofmeasure.org"
            }
          }
        ],
        "text": {
          "status": "generated",
          "div": "<div xmlns=\"http://www.w3.org/1999/xhtml\"><table class=\"hl7__eu__lab__report\"><tr><th>Test</th><th>12-Jun-2019</th><th>Reference&#xA0;Range</th><th>Unit</th></tr><tr><td>Carbon dioxide, total [Moles/volume] in Blood</td><td>28.2</td><td>24 - 29</td><td></td><td>mmol/L</td></tr></table></div>"
        },
        "status": "final",
        "subject": {
          "reference": "urn:uuid:31eeeeac-927c-4fc3-9079-7179cbfcc770",
          "display": "Gioele Fabbri"
        },
        "effectiveDateTime": "2019-06-12T15:46:20Z",
        "specimen": {
          "reference": "urn:uuid:a059563c-164a-4a7f-91b0-a6d0bff6064c"
        }
      }
    },
    {
      "fullUrl": "urn:uuid:a72c9df5-dfef-4619-affc-92c5c27fe6f5",
      "resource": {
        "resourceType": "Observation",
        "id": "a72c9df5-dfef-4619-affc-92c5c27fe6f5",
        "meta": {
          "profile": [
            "http://hl7.eu/fhir/laboratory/StructureDefinition/Observation-resultslab-eu-lab"
          ]
        },
        "performer": [
          {
            "display": "The Central European Lab"
          }
        ],
        "category": [
          {
            "coding": [
              {
                "system": "http://terminology.hl7.org/CodeSystem/observation-category",
                "code": "laboratory"
              }
            ]
          }
        ],
        "code": {
          "coding": [
            {
              "code": "2885-2",
              "system": "http://loinc.org",
              "display": "Protein [Mass/volume] in Serum or Plasma"
            }
          ],
          "text": "Protein [Mass/volume] in Serum or Plasma"
        },
        "valueQuantity": {
          "system": "http://unitsofmeasure.org",
          "value": 7.7,
          "unit": "g/dL",
          "code": "g/dL"
        },
        "referenceRange": [
          {
            "low": {
              "value": 6.6,
              "code": "g/dL",
              "system": "http://unitsofmeasure.org"
            }
          },
          {
            "high": {
              "value": 8.3,
              "code": "g/dL",
              "system": "http://unitsofmeasure.org"
            }
          }
        ],
        "text": {
          "status": "generated",
          "div": "<div xmlns=\"http://www.w3.org/1999/xhtml\"><table class=\"hl7__eu__lab__report\"><tr><th>Test</th><th>12-Jun-2019</th><th>Reference&#xA0;Range</th><th>Unit</th></tr><tr><td>Protein [Mass/volume] in Serum or Plasma</td><td>7.7</td><td>6.6 - 8.3</td><td></td><td>g/dL</td></tr></table></div>"
        },
        "status": "final",
        "subject": {
          "reference": "urn:uuid:31eeeeac-927c-4fc3-9079-7179cbfcc770",
          "display": "Gioele Fabbri"
        },
        "effectiveDateTime": "2019-06-12T15:46:20Z",
        "specimen": {
          "reference": "urn:uuid:70ef1572-0494-4500-b65a-275131281b1f"
        }
      }
    },
    {
      "fullUrl": "urn:uuid:039e400e-7652-4101-8d19-308fe03bb515",
      "resource": {
        "resourceType": "Observation",
        "id": "039e400e-7652-4101-8d19-308fe03bb515",
        "meta": {
          "profile": [
            "http://hl7.eu/fhir/laboratory/StructureDefinition/Observation-resultslab-eu-lab"
          ]
        },
        "performer": [
          {
            "display": "The Central European Lab"
          }
        ],
        "category": [
          {
            "coding": [
              {
                "system": "http://terminology.hl7.org/CodeSystem/observation-category",
                "code": "laboratory"
              }
            ]
          }
        ],
        "code": {
          "coding": [
            {
              "code": "1751-7",
              "system": "http://loinc.org",
              "display": "Albumin [Mass/volume] in Serum or Plasma"
            }
          ],
          "text": "Albumin [Mass/volume] in Serum or Plasma"
        },
        "valueQuantity": {
          "system": "http://unitsofmeasure.org",
          "value": 4.6,
          "unit": "g/dL",
          "code": "g/dL"
        },
        "referenceRange": [
          {
            "low": {
              "value": 3.5,
              "code": "g/dL",
              "system": "http://unitsofmeasure.org"
            }
          },
          {
            "high": {
              "value": 5.5,
              "code": "g/dL",
              "system": "http://unitsofmeasure.org"
            }
          }
        ],
        "text": {
          "status": "generated",
          "div": "<div xmlns=\"http://www.w3.org/1999/xhtml\"><table class=\"hl7__eu__lab__report\"><tr><th>Test</th><th>12-Jun-2019</th><th>Reference&#xA0;Range</th><th>Unit</th></tr><tr><td>Albumin [Mass/volume] in Serum or Plasma</td><td>4.6</td><td>3.5 - 5.5</td><td></td><td>g/dL</td></tr></table></div>"
        },
        "status": "final",
        "subject": {
          "reference": "urn:uuid:31eeeeac-927c-4fc3-9079-7179cbfcc770",
          "display": "Gioele Fabbri"
        },
        "effectiveDateTime": "2019-06-12T15:46:20Z",
        "specimen": {
          "reference": "urn:uuid:70ef1572-0494-4500-b65a-275131281b1f"
        }
      }
    },
    {
      "fullUrl": "urn:uuid:543b92c7-3a41-481c-be77-815fffb9b85d",
      "resource": {
        "resourceType": "Observation",
        "id": "543b92c7-3a41-481c-be77-815fffb9b85d",
        "meta": {
          "profile": [
            "http://hl7.eu/fhir/laboratory/StructureDefinition/Observation-resultslab-eu-lab"
          ]
        },
        "performer": [
          {
            "display": "The Central European Lab"
          }
        ],
        "category": [
          {
            "coding": [
              {
                "system": "http://terminology.hl7.org/CodeSystem/observation-category",
                "code": "laboratory"
              }
            ]
          }
        ],
        "code": {
          "coding": [
            {
              "code": "10834-0",
              "system": "http://loinc.org",
              "display": "Globulin [Mass/volume] in Serum by calculation"
            }
          ],
          "text": "Globulin [Mass/volume] in Serum by calculation"
        },
        "valueQuantity": {
          "system": "http://unitsofmeasure.org",
          "value": 2.6,
          "unit": "g/L",
          "code": "g/L"
        },
        "referenceRange": [
          {
            "low": {
              "value": 2,
              "code": "g/L",
              "system": "http://unitsofmeasure.org"
            }
          },
          {
            "high": {
              "value": 3.5,
              "code": "g/L",
              "system": "http://unitsofmeasure.org"
            }
          }
        ],
        "text": {
          "status": "generated",
          "div": "<div xmlns=\"http://www.w3.org/1999/xhtml\"><table class=\"hl7__eu__lab__report\"><tr><th>Test</th><th>12-Jun-2019</th><th>Reference&#xA0;Range</th><th>Unit</th></tr><tr><td>Globulin [Mass/volume] in Serum by calculation</td><td>2.6</td><td>2 - 3.5</td><td></td><td>g/L</td></tr></table></div>"
        },
        "status": "final",
        "subject": {
          "reference": "urn:uuid:31eeeeac-927c-4fc3-9079-7179cbfcc770",
          "display": "Gioele Fabbri"
        },
        "effectiveDateTime": "2019-06-12T15:46:20Z",
        "specimen": {
          "reference": "urn:uuid:e0bf3317-a1ac-4e31-b9d9-bf6b41d043f5"
        }
      }
    },
    {
      "fullUrl": "urn:uuid:dd63d9ab-e777-4e6f-9000-d2207a653764",
      "resource": {
        "resourceType": "Observation",
        "id": "dd63d9ab-e777-4e6f-9000-d2207a653764",
        "meta": {
          "profile": [
            "http://hl7.eu/fhir/laboratory/StructureDefinition/Observation-resultslab-eu-lab"
          ]
        },
        "performer": [
          {
            "display": "The Central European Lab"
          }
        ],
        "category": [
          {
            "coding": [
              {
                "system": "http://terminology.hl7.org/CodeSystem/observation-category",
                "code": "laboratory"
              }
            ]
          }
        ],
        "code": {
          "coding": [
            {
              "code": "1975-2",
              "system": "http://loinc.org",
              "display": "Bilirubin.total [Mass/volume] in Serum or Plasma"
            }
          ],
          "text": "Bilirubin.total [Mass/volume] in Serum or Plasma"
        },
        "valueQuantity": {
          "system": "http://unitsofmeasure.org",
          "value": 0.6,
          "unit": "mg/dL",
          "code": "mg/dL"
        },
        "referenceRange": [
          {
            "low": {
              "value": 0.3,
              "code": "mg/dL",
              "system": "http://unitsofmeasure.org"
            }
          },
          {
            "high": {
              "value": 1.2,
              "code": "mg/dL",
              "system": "http://unitsofmeasure.org"
            }
          }
        ],
        "text": {
          "status": "generated",
          "div": "<div xmlns=\"http://www.w3.org/1999/xhtml\"><table class=\"hl7__eu__lab__report\"><tr><th>Test</th><th>12-Jun-2019</th><th>Reference&#xA0;Range</th><th>Unit</th></tr><tr><td>Bilirubin.total [Mass/volume] in Serum or Plasma</td><td>0.6</td><td>0.3 - 1.2</td><td></td><td>mg/dL</td></tr></table></div>"
        },
        "status": "final",
        "subject": {
          "reference": "urn:uuid:31eeeeac-927c-4fc3-9079-7179cbfcc770",
          "display": "Gioele Fabbri"
        },
        "effectiveDateTime": "2019-06-12T15:46:20Z",
        "specimen": {
          "reference": "urn:uuid:70ef1572-0494-4500-b65a-275131281b1f"
        }
      }
    },
    {
      "fullUrl": "urn:uuid:0d008495-b26a-477b-b9cd-abe840c7d1ed",
      "resource": {
        "resourceType": "Observation",
        "id": "0d008495-b26a-477b-b9cd-abe840c7d1ed",
        "meta": {
          "profile": [
            "http://hl7.eu/fhir/laboratory/StructureDefinition/Observation-resultslab-eu-lab"
          ]
        },
        "performer": [
          {
            "display": "The Central European Lab"
          }
        ],
        "category": [
          {
            "coding": [
              {
                "system": "http://terminology.hl7.org/CodeSystem/observation-category",
                "code": "laboratory"
              }
            ]
          }
        ],
        "code": {
          "coding": [
            {
              "code": "6768-6",
              "system": "http://loinc.org",
              "display": "Alkaline phosphatase [Enzymatic activity/volume] in Serum or Plasma"
            }
          ],
          "text": "Alkaline phosphatase [Enzymatic activity/volume] in Serum or Plasma"
        },
        "valueQuantity": {
          "system": "http://unitsofmeasure.org",
          "value": 106.2,
          "unit": "U/L",
          "code": "U/L"
        },
        "referenceRange": [
          {
            "low": {
              "value": 39,
              "code": "U/L",
              "system": "http://unitsofmeasure.org"
            }
          },
          {
            "high": {
              "value": 136,
              "code": "U/L",
              "system": "http://unitsofmeasure.org"
            }
          }
        ],
        "text": {
          "status": "generated",
          "div": "<div xmlns=\"http://www.w3.org/1999/xhtml\"><table class=\"hl7__eu__lab__report\"><tr><th>Test</th><th>12-Jun-2019</th><th>Reference&#xA0;Range</th><th>Unit</th></tr><tr><td>Alkaline phosphatase [Enzymatic activity/volume] in Serum or Plasma</td><td>106.2</td><td>39 - 136</td><td></td><td>U/L</td></tr></table></div>"
        },
        "status": "final",
        "subject": {
          "reference": "urn:uuid:31eeeeac-927c-4fc3-9079-7179cbfcc770",
          "display": "Gioele Fabbri"
        },
        "effectiveDateTime": "2019-06-12T15:46:20Z",
        "specimen": {
          "reference": "urn:uuid:70ef1572-0494-4500-b65a-275131281b1f"
        }
      }
    },
    {
      "fullUrl": "urn:uuid:ad73a169-7a8c-487b-914e-757ee1625315",
      "resource": {
        "resourceType": "Observation",
        "id": "ad73a169-7a8c-487b-914e-757ee1625315",
        "meta": {
          "profile": [
            "http://hl7.eu/fhir/laboratory/StructureDefinition/Observation-resultslab-eu-lab"
          ]
        },
        "performer": [
          {
            "display": "The Central European Lab"
          }
        ],
        "category": [
          {
            "coding": [
              {
                "system": "http://terminology.hl7.org/CodeSystem/observation-category",
                "code": "laboratory"
              }
            ]
          }
        ],
        "code": {
          "coding": [
            {
              "code": "1742-6",
              "system": "http://loinc.org",
              "display": "Alanine aminotransferase [Enzymatic activity/volume] in Serum or Plasma"
            }
          ],
          "text": "Alanine aminotransferase [Enzymatic activity/volume] in Serum or Plasma"
        },
        "valueQuantity": {
          "system": "http://unitsofmeasure.org",
          "value": 44,
          "unit": "U/L",
          "code": "U/L"
        },
        "referenceRange": [
          {
            "low": {
              "value": 7,
              "code": "U/L",
              "system": "http://unitsofmeasure.org"
            }
          },
          {
            "high": {
              "value": 52,
              "code": "U/L",
              "system": "http://unitsofmeasure.org"
            }
          }
        ],
        "text": {
          "status": "generated",
          "div": "<div xmlns=\"http://www.w3.org/1999/xhtml\"><table class=\"hl7__eu__lab__report\"><tr><th>Test</th><th>12-Jun-2019</th><th>Reference&#xA0;Range</th><th>Unit</th></tr><tr><td>Alanine aminotransferase [Enzymatic activity/volume] in Serum or Plasma</td><td>44.0</td><td>7 - 52</td><td></td><td>U/L</td></tr></table></div>"
        },
        "status": "final",
        "subject": {
          "reference": "urn:uuid:31eeeeac-927c-4fc3-9079-7179cbfcc770",
          "display": "Gioele Fabbri"
        },
        "effectiveDateTime": "2019-06-12T15:46:20Z",
        "specimen": {
          "reference": "urn:uuid:70ef1572-0494-4500-b65a-275131281b1f"
        }
      }
    },
    {
      "fullUrl": "urn:uuid:9f61889b-b6f8-4eb8-bc07-04726a1a8026",
      "resource": {
        "resourceType": "Observation",
        "id": "9f61889b-b6f8-4eb8-bc07-04726a1a8026",
        "meta": {
          "profile": [
            "http://hl7.eu/fhir/laboratory/StructureDefinition/Observation-resultslab-eu-lab"
          ]
        },
        "performer": [
          {
            "display": "The Central European Lab"
          }
        ],
        "category": [
          {
            "coding": [
              {
                "system": "http://terminology.hl7.org/CodeSystem/observation-category",
                "code": "laboratory"
              }
            ]
          }
        ],
        "code": {
          "coding": [
            {
              "code": "1920-8",
              "system": "http://loinc.org",
              "display": "Aspartate aminotransferase [Enzymatic activity/volume] in Serum or Plasma"
            }
          ],
          "text": "Aspartate aminotransferase [Enzymatic activity/volume] in Serum or Plasma"
        },
        "valueQuantity": {
          "system": "http://unitsofmeasure.org",
          "value": 29.3,
          "unit": "U/L",
          "code": "U/L"
        },
        "referenceRange": [
          {
            "low": {
              "value": 10,
              "code": "U/L",
              "system": "http://unitsofmeasure.org"
            }
          },
          {
            "high": {
              "value": 40,
              "code": "U/L",
              "system": "http://unitsofmeasure.org"
            }
          }
        ],
        "text": {
          "status": "generated",
          "div": "<div xmlns=\"http://www.w3.org/1999/xhtml\"><table class=\"hl7__eu__lab__report\"><tr><th>Test</th><th>12-Jun-2019</th><th>Reference&#xA0;Range</th><th>Unit</th></tr><tr><td>Aspartate aminotransferase [Enzymatic activity/volume] in Serum or Plasma</td><td>29.3</td><td>10 - 40</td><td></td><td>U/L</td></tr></table></div>"
        },
        "status": "final",
        "subject": {
          "reference": "urn:uuid:31eeeeac-927c-4fc3-9079-7179cbfcc770",
          "display": "Gioele Fabbri"
        },
        "effectiveDateTime": "2019-06-12T15:46:20Z",
        "specimen": {
          "reference": "urn:uuid:70ef1572-0494-4500-b65a-275131281b1f"
        }
      }
    },
    {
      "fullUrl": "urn:uuid:282fd42e-6218-4b45-91fd-ab5add9edbd6",
      "resource": {
        "resourceType": "Observation",
        "id": "282fd42e-6218-4b45-91fd-ab5add9edbd6",
        "meta": {
          "profile": [
            "http://hl7.eu/fhir/laboratory/StructureDefinition/Observation-resultslab-eu-lab"
          ]
        },
        "performer": [
          {
            "display": "The Central European Lab"
          }
        ],
        "category": [
          {
            "coding": [
              {
                "system": "http://terminology.hl7.org/CodeSystem/observation-category",
                "code": "laboratory"
              }
            ]
          }
        ],
        "code": {
          "coding": [
            {
              "code": "2093-3",
              "system": "http://loinc.org",
              "display": "Cholesterol [Mass/volume] in Serum or Plasma"
            }
          ],
          "text": "Cholesterol [Mass/volume] in Serum or Plasma"
        },
        "valueQuantity": {
          "system": "http://unitsofmeasure.org",
          "value": 170.7,
          "unit": "mg/dL",
          "code": "mg/dL"
        },
        "referenceRange": [
          {
            "low": {
              "value": 125,
              "code": "mg/dL",
              "system": "http://unitsofmeasure.org"
            }
          },
          {
            "high": {
              "value": 200,
              "code": "mg/dL",
              "system": "http://unitsofmeasure.org"
            }
          }
        ],
        "text": {
          "status": "generated",
          "div": "<div xmlns=\"http://www.w3.org/1999/xhtml\"><table class=\"hl7__eu__lab__report\"><tr><th>Test</th><th>12-Jun-2019</th><th>Reference&#xA0;Range</th><th>Unit</th></tr><tr><td>Cholesterol [Mass/volume] in Serum or Plasma</td><td>170.7</td><td>125 - 200</td><td></td><td>mg/dL</td></tr></table></div>"
        },
        "status": "final",
        "subject": {
          "reference": "urn:uuid:31eeeeac-927c-4fc3-9079-7179cbfcc770",
          "display": "Gioele Fabbri"
        },
        "effectiveDateTime": "2019-06-12T15:46:20Z",
        "specimen": {
          "reference": "urn:uuid:70ef1572-0494-4500-b65a-275131281b1f"
        }
      }
    },
    {
      "fullUrl": "urn:uuid:8d00486a-f54d-4e52-952d-c7408b260303",
      "resource": {
        "resourceType": "Observation",
        "id": "8d00486a-f54d-4e52-952d-c7408b260303",
        "meta": {
          "profile": [
            "http://hl7.eu/fhir/laboratory/StructureDefinition/Observation-resultslab-eu-lab"
          ]
        },
        "performer": [
          {
            "display": "The Central European Lab"
          }
        ],
        "category": [
          {
            "coding": [
              {
                "system": "http://terminology.hl7.org/CodeSystem/observation-category",
                "code": "laboratory"
              }
            ]
          }
        ],
        "code": {
          "coding": [
            {
              "code": "2571-8",
              "system": "http://loinc.org",
              "display": "Triglyceride [Mass/volume] in Serum or Plasma"
            }
          ],
          "text": "Triglyceride [Mass/volume] in Serum or Plasma"
        },
        "valueQuantity": {
          "system": "http://unitsofmeasure.org",
          "value": 190.8,
          "unit": "mg/dL",
          "code": "mg/dL"
        },
        "referenceRange": [
          {
            "low": {
              "value": 0,
              "code": "mg/dL",
              "system": "http://unitsofmeasure.org"
            }
          },
          {
            "high": {
              "value": 150,
              "code": "mg/dL",
              "system": "http://unitsofmeasure.org"
            }
          }
        ],
        "interpretation": [
          {
            "coding": [
              {
                "code": "H",
                "system": "http://terminology.hl7.org/CodeSystem/v3-ObservationInterpretation",
                "display": "High"
              }
            ]
          }
        ],
        "text": {
          "status": "generated",
          "div": "<div xmlns=\"http://www.w3.org/1999/xhtml\"><table class=\"hl7__eu__lab__report\"><tr><th>Test</th><th>12-Jun-2019</th><th>Reference&#xA0;Range</th><th>Unit</th></tr><tr><td>Triglyceride [Mass/volume] in Serum or Plasma</td><td>190.8</td><td>0 - 150</td><td>H</td><td>mg/dL</td></tr></table></div>"
        },
        "status": "final",
        "subject": {
          "reference": "urn:uuid:31eeeeac-927c-4fc3-9079-7179cbfcc770",
          "display": "Gioele Fabbri"
        },
        "effectiveDateTime": "2019-06-12T15:46:20Z",
        "specimen": {
          "reference": "urn:uuid:70ef1572-0494-4500-b65a-275131281b1f"
        }
      }
    },
    {
      "fullUrl": "urn:uuid:850bd5e1-6a5a-4459-88f9-04dfce1dfbb0",
      "resource": {
        "resourceType": "Observation",
        "id": "850bd5e1-6a5a-4459-88f9-04dfce1dfbb0",
        "meta": {
          "profile": [
            "http://hl7.eu/fhir/laboratory/StructureDefinition/Observation-resultslab-eu-lab"
          ]
        },
        "performer": [
          {
            "display": "The Central European Lab"
          }
        ],
        "category": [
          {
            "coding": [
              {
                "system": "http://terminology.hl7.org/CodeSystem/observation-category",
                "code": "laboratory"
              }
            ]
          }
        ],
        "code": {
          "coding": [
            {
              "code": "18262-6",
              "system": "http://loinc.org",
              "display": "Cholesterol in LDL [Mass/volume] in Serum or Plasma by Direct assay"
            }
          ],
          "text": "Cholesterol in LDL [Mass/volume] in Serum or Plasma by Direct assay"
        },
        "valueQuantity": {
          "system": "http://unitsofmeasure.org",
          "value": 119.8,
          "unit": "mg/dL",
          "code": "mg/dL"
        },
        "referenceRange": [
          {
            "low": {
              "value": 0,
              "code": "mg/dL",
              "system": "http://unitsofmeasure.org"
            }
          },
          {
            "high": {
              "value": 130,
              "code": "mg/dL",
              "system": "http://unitsofmeasure.org"
            }
          }
        ],
        "text": {
          "status": "generated",
          "div": "<div xmlns=\"http://www.w3.org/1999/xhtml\"><table class=\"hl7__eu__lab__report\"><tr><th>Test</th><th>12-Jun-2019</th><th>Reference&#xA0;Range</th><th>Unit</th></tr><tr><td>Cholesterol in LDL [Mass/volume] in Serum or Plasma by Direct assay</td><td>119.8</td><td>0 - 130</td><td></td><td>mg/dL</td></tr></table></div>"
        },
        "status": "final",
        "subject": {
          "reference": "urn:uuid:31eeeeac-927c-4fc3-9079-7179cbfcc770",
          "display": "Gioele Fabbri"
        },
        "effectiveDateTime": "2019-06-12T15:46:20Z",
        "specimen": {
          "reference": "urn:uuid:70ef1572-0494-4500-b65a-275131281b1f"
        }
      }
    },
    {
      "fullUrl": "urn:uuid:5b8937a5-5d78-4357-8554-c69eb30a349b",
      "resource": {
        "resourceType": "Observation",
        "id": "5b8937a5-5d78-4357-8554-c69eb30a349b",
        "meta": {
          "profile": [
            "http://hl7.eu/fhir/laboratory/StructureDefinition/Observation-resultslab-eu-lab"
          ]
        },
        "performer": [
          {
            "display": "The Central European Lab"
          }
        ],
        "category": [
          {
            "coding": [
              {
                "system": "http://terminology.hl7.org/CodeSystem/observation-category",
                "code": "laboratory"
              }
            ]
          }
        ],
        "code": {
          "coding": [
            {
              "code": "2085-9",
              "system": "http://loinc.org",
              "display": "Cholesterol in HDL [Mass/volume] in Serum or Plasma"
            }
          ],
          "text": "Cholesterol in HDL [Mass/volume] in Serum or Plasma"
        },
        "valueQuantity": {
          "system": "http://unitsofmeasure.org",
          "value": 53.9,
          "unit": "mg/dL",
          "code": "mg/dL"
        },
        "referenceRange": [
          {
            "low": {
              "value": 40,
              "code": "mg/dL",
              "system": "http://unitsofmeasure.org"
            }
          },
          {
            "high": {
              "value": 100,
              "code": "mg/dL",
              "system": "http://unitsofmeasure.org"
            }
          }
        ],
        "text": {
          "status": "generated",
          "div": "<div xmlns=\"http://www.w3.org/1999/xhtml\"><table class=\"hl7__eu__lab__report\"><tr><th>Test</th><th>12-Jun-2019</th><th>Reference&#xA0;Range</th><th>Unit</th></tr><tr><td>Cholesterol in HDL [Mass/volume] in Serum or Plasma</td><td>53.9</td><td>40 - 100</td><td></td><td>mg/dL</td></tr></table></div>"
        },
        "status": "final",
        "subject": {
          "reference": "urn:uuid:31eeeeac-927c-4fc3-9079-7179cbfcc770",
          "display": "Gioele Fabbri"
        },
        "effectiveDateTime": "2019-06-12T15:46:20Z",
        "specimen": {
          "reference": "urn:uuid:70ef1572-0494-4500-b65a-275131281b1f"
        }
      }
    },
    {
      "fullUrl": "urn:uuid:5643164a-719e-4802-b9b3-80c43cb478d6",
      "resource": {
        "resourceType": "Device",
        "id": "5643164a-719e-4802-b9b3-80c43cb478d6",
        "deviceName": [
          {
            "name": "SYNDERAI Synthetic Generator",
            "type": "manufacturer-name"
          }
        ],
        "version": [
          {
            "value": "5.0"
          }
        ],
        "text": {
          "status": "generated",
          "div": "<div xmlns=\"http://www.w3.org/1999/xhtml\">SYNDERAI Synthetic Generator v5.0</div>"
        },
        "status": "active\"",
        "distinctIdentifier": "synderai-generator-50",
        "manufacturer": "SYNDERAI Project"
      }
    },
    {
      "fullUrl": "urn:uuid:2f4bfbb8-a643-4e55-b4ba-bf772ee1cca8",
      "resource": {
        "resourceType": "Provenance",
        "id": "2f4bfbb8-a643-4e55-b4ba-bf772ee1cca8",
        "target": [
          {
            "reference": "Patient/31eeeeac-927c-4fc3-9079-7179cbfcc770"
          },
          {
            "reference": "Bundle/f2f9f9cf-5c9d-4b31-b464-1cf2feedd2e8"
          },
          {
            "reference": "Composition/cec16ac4-a088-44cd-a9db-29ff752f252f"
          },
          {
            "reference": "PractitionerRole/b62ffc7c-f697-499a-b4f5-c59aa138b581"
          },
          {
            "reference": "Practitioner/c157de0e-6a80-4903-a4f1-9aafeb1d1cf8"
          },
          {
            "reference": "PractitionerRole/fd1f5a25-c843-40d9-bdc4-5cc3dcaff1ce"
          },
          {
            "reference": "Organization/e0e87eb7-b18d-43d2-ae9f-ad89581be3a8"
          }
        ],
        "activity": {
          "text": "Synthetic Example Data Generation"
        },
        "policy": [
          "https://synderai.net/synderai-synthetic-data-policy"
        ],
        "agent": [
          {
            "type": {
              "text": "author"
            },
            "who": {
              "reference": "Device/5643164a-719e-4802-b9b3-80c43cb478d6"
            }
          }
        ],
        "reason": [
          {
            "text": "Interoperability Testing and Training (non-clinical use)"
          }
        ],
        "text": {
          "status": "generated",
          "div": "<div xmlns=\"http://www.w3.org/1999/xhtml\">Provenance for SYNDERAI Synthetic Example Data Resource</div>"
        },
        "recorded": "2019-06-12T17:46:20Z"
      }
    },
    {
      "fullUrl": "urn:uuid:b62ffc7c-f697-499a-b4f5-c59aa138b581",
      "resource": {
        "resourceType": "PractitionerRole",
        "id": "b62ffc7c-f697-499a-b4f5-c59aa138b581",
        "meta": {
          "profile": [
            "http://hl7.eu/fhir/base/StructureDefinition/practitionerRole-eu"
          ]
        },
        "text": {
          "status": "generated",
          "div": "<div xmlns=\"http://www.w3.org/1999/xhtml\">Laboratory Role Id: b62ffc7c-f697-499a-b4f5-c59aa138b581</div>"
        },
        "practitioner": {
          "reference": "urn:uuid:c157de0e-6a80-4903-a4f1-9aafeb1d1cf8"
        }
      }
    },
    {
      "fullUrl": "urn:uuid:c157de0e-6a80-4903-a4f1-9aafeb1d1cf8",
      "resource": {
        "resourceType": "Practitioner",
        "id": "c157de0e-6a80-4903-a4f1-9aafeb1d1cf8",
        "meta": {
          "profile": [
            "http://hl7.eu/fhir/base/StructureDefinition/practitioner-eu"
          ]
        },
        "identifier": [
          {
            "assigner": {
              "display": "HL7 Europe"
            },
            "system": "urn:oid:2.16.840.1.113883.2.51.999",
            "value": "a62004bb-cce1-4f1e-a71c-bfb0c9b5629e"
          }
        ],
        "name": [
          {
            "prefix": [
              "dr"
            ],
            "given": [
              "Ex"
            ],
            "family": "Ample"
          }
        ],
        "address": [
          {
            "line": [
              "Laboratoire Central Européenne",
              "Boulevard du Jardin Botanique 32"
            ],
            "postalCode": "1000",
            "city": "Brussels",
            "country": "Belgium"
          }
        ],
        "text": {
          "status": "generated",
          "div": "<div xmlns=\"http://www.w3.org/1999/xhtml\">Laboratory: Laboratoire Central Européenne, 1000 Brussels, Belgium</div>"
        }
      }
    }
  ],
  "type": "document",
  "timestamp": "2019-06-12T17:46:20Z"
}
