<Bundle xmlns="http://hl7.org/fhir">
   <id value="bdac30ca-3ac9-4f88-bf13-814b9a4275cc"/>
   <meta>
      <profile value="http://hl7.eu/fhir/laboratory/StructureDefinition/Bundle-eu-lab"/>
   </meta>
   <identifier>
      <system value="urn:oid:2.16.840.1.113883.2.51.999"/>
      <value value="d922cb13-53c4-4ec4-93c2-dbe17f142253"/>
      <assigner>
         <display value="HL7 Europe"/>
      </assigner>
   </identifier>
   <type value="document"/>
   <timestamp value="2019-12-15T00:10:08Z"/>
   <entry>
      <fullUrl value="urn:uuid:1cad58b3-1b2a-41d5-9a8e-be86b6660e3f"/>
      <resource>
         <Composition>
            <id value="1cad58b3-1b2a-41d5-9a8e-be86b6660e3f"/>
            <meta>
               <profile value="http://hl7.eu/fhir/laboratory/StructureDefinition/Composition-eu-lab"/>
            </meta>
            <identifier>
               <system value="urn:oid:2.16.840.1.113883.2.51.999"/>
               <value value="fe327562-80ec-49ab-bfc4-179ed5bd20b3"/>
               <assigner>
                  <display value="HL7 Europe"/>
               </assigner>
            </identifier>
            <status value="final"/>
            <type>
               <coding>
                  <system value="http://loinc.org"/>
                  <code value="11502-2"/>
                  <display value="Laboratory report"/>
               </coding>
               <text value="Laboratory Report"/>
            </type>
            <category>
               <coding>
                  <system value="http://loinc.org"/>
                  <code value="26436-6"/>
                  <display value="Laboratory studies (set)"/>
               </coding>
            </category>
            <subject>
               <reference value="urn:uuid:748dfc35-ab98-4543-8d3c-6ae02f886c15"/>
               <display value="Gastone Farnese"/>
            </subject>
            <date value="2019-12-15T00:10:08Z"/>
            <author>
               <reference value="urn:uuid:fe0b3ffb-6818-4fb0-a700-bddd03d41d12"/>
            </author>
            <title value="Laboratory Report"/>
            <confidentiality value="N"/>
            <section>
               <title value="Laboratory Report"/>
               <code>
                  <coding>
                     <system value="http://loinc.org"/>
                     <code value="26436-6"/>
                     <display value="Laboratory studies (set)"/>
                  </coding>
                  <text value="Laboratory studies"/>
               </code>
               <section>
                  <title value="Chemistry"/>
                  <code>
                     <coding>
                        <system value="http://loinc.org"/>
                        <code value="$18719-5"/>
                        <display value="Chemistry studies (set)"/>
                     </coding>
                     <text value="Chemistry"/>
                  </code>
                  <text>
                     <status value="generated"/>
                     <div xmlns="http://www.w3.org/1999/xhtml">
                        <h3>Chemistry</h3>
                        <table class="hl7__eu__lab__report">
                           <thead>
                              <tr>
                                 <th>Test</th>
                                 <th>15-DEC-2019</th>
                                 <th>Reference Range</th>
                                 <th>Unit</th>
                              </tr>
                           </thead>
                           <tbody>
                              <tr>
                                 <td>Cholesterol [Mass/volume] in Serum or Plasma</td>
                                 <td>113.5</td>
                                 <td>0 - 200</td>
                                 <td>mg/dL</td>
                              </tr>
                              <tr>
                                 <td>Triglyceride [Mass/volume] in Serum or Plasma</td>
                                 <td>100.0</td>
                                 <td>0 - 199</td>
                                 <td>mg/dL</td>
                              </tr>
                              <tr>
                                 <td>Cholesterol in LDL [Mass/volume] in Serum or Plasma by Direct assay</td>
                                 <td>40.5</td>
                                 <td>0 - 130</td>
                                 <td>mg/dL</td>
                              </tr>
                              <tr>
                                 <td>Cholesterol in HDL [Mass/volume] in Serum or Plasma</td>
                                 <td>53.0</td>
                                 <td>40 - 100</td>
                                 <td>mg/dL</td>
                              </tr>
                           </tbody>
                        </table>
                     </div>
                  </text>
                  <entry>
                     <reference value="urn:uuid:893e7a56-1f34-4f3f-aa11-959998b5e56c"/>
                  </entry>
                  <entry>
                     <reference value="urn:uuid:2e0dc1a1-daa8-4907-8c09-d70d9a72554d"/>
                  </entry>
                  <entry>
                     <reference value="urn:uuid:71f5af11-7f44-448a-b3ad-03032b314c33"/>
                  </entry>
                  <entry>
                     <reference value="urn:uuid:6e29b0f0-bb5e-4e1b-b312-7c59e7fa0665"/>
                  </entry>
               </section>
            </section>
            <section>
               <title value="Annotation comment"/>
               <code>
                  <coding>
                     <system value="http://loinc.org"/>
                     <code value="48767-8"/>
                     <display value="Annotation comment"/>
                  </coding>
               </code>
               <text>
                  <status value="generated"/>
                  <div xmlns="http://www.w3.org/1999/xhtml">
                     <h3>Annotation</h3>
                     <table class="hl7__eu__lab__report">
                        <tr>
                           <th>Conclusion and Recommendations based on this report and previous findings known to us</th>
                        </tr>
                        <tr>
                           <td>All lipid parameters (total cholesterol, triglycerides, LDL, HDL) are within normal limits. No laboratory evidence of dyslipidemia at this time. No further action required from a laboratory perspective.</td>
                        </tr>
                     </table>
                  </div>
               </text>
            </section>
         </Composition>
      </resource>
   </entry>
   <entry>
      <fullUrl value="urn:uuid:f1856a2f-d60d-4f71-a87a-7e6b1a62c995"/>
      <resource>
         <DiagnosticReport>
            <id value="f1856a2f-d60d-4f71-a87a-7e6b1a62c995"/>
            <meta>
               <profile value="http://hl7.eu/fhir/laboratory/StructureDefinition/DiagnosticReport-eu-lab"/>
            </meta>
            <extension url="http://hl7.org/fhir/5.0/StructureDefinition/extension-DiagnosticReport.composition">
               <valueReference>
                  <reference value="urn:uuid:fe327562-80ec-49ab-bfc4-179ed5bd20b3"/>
               </valueReference>
            </extension>
            <identifier>
               <system value="urn:oid:2.16.840.1.113883.2.51.999"/>
               <value value="106a78f2-1c18-4525-a1ca-d2b29be6966d"/>
               <assigner>
                  <display value="HL7 Europe"/>
               </assigner>
            </identifier>
            <status value="registered"/>
            <category>
               <coding>
                  <system value="http://loinc.org"/>
                  <code value="26436-6"/>
                  <display value="Laboratory studies (set)"/>
               </coding>
            </category>
            <code>
               <coding>
                  <system value="http://loinc.org"/>
                  <code value="11502-2"/>
                  <display value="Laboratory report"/>
               </coding>
            </code>
            <subject>
               <reference value="urn:uuid:748dfc35-ab98-4543-8d3c-6ae02f886c15"/>
               <display value="Gastone Farnese"/>
            </subject>
            <specimen>
               <reference value="urn:uuid:974b8f5c-c3d9-47ce-bb09-3011cafc6ffa"/>
            </specimen>
            <result>
               <reference value="urn:uuid:893e7a56-1f34-4f3f-aa11-959998b5e56c"/>
            </result>
            <result>
               <reference value="urn:uuid:2e0dc1a1-daa8-4907-8c09-d70d9a72554d"/>
            </result>
            <result>
               <reference value="urn:uuid:71f5af11-7f44-448a-b3ad-03032b314c33"/>
            </result>
            <result>
               <reference value="urn:uuid:6e29b0f0-bb5e-4e1b-b312-7c59e7fa0665"/>
            </result>
         </DiagnosticReport>
      </resource>
   </entry>
   <entry>
      <fullUrl value="urn:uuid:748dfc35-ab98-4543-8d3c-6ae02f886c15"/>
      <resource>
         <Patient>
            <id value="748dfc35-ab98-4543-8d3c-6ae02f886c15"/>
            <meta>
               <profile value="http://hl7.eu/fhir/base/StructureDefinition/patient-eu-core"/>
               <security>
                  <system value="http://terminology.hl7.org/CodeSystem/v3-ActReason"/>
                  <code value="HTEST"/>
               </security>
               <security>
                  <system value="http://terminology.hl7.org/CodeSystem/v3-ActReason"/>
                  <code value="TRAIN"/>
               </security>
               <tag>
                  <system value="https://synderai.net/fhir/CodeSystem/tags"/>
                  <code value="synthetic"/>
                  <display value="SYNDERAI Synthetic data"/>
               </tag>
            </meta>
            <text>
               <status value="generated"/>
               <div xmlns="http://www.w3.org/1999/xhtml">
                  <table class="hl7__ips">
                     <tr>
                        <td>Gastone Farnese</td>
                        <td>male</td>
                        <td>16-Apr-1939</td>
                     </tr>
                  </table>
               </div>
            </text>
            <extension url="http://hl7.org/fhir/StructureDefinition/patient-nationality">
               <valueCodeableConcept>
                  <coding>
                     <system value="http://hl7.org/fhir/ValueSet/country"/>
                     <code value="IT"/>
                  </coding>
               </valueCodeableConcept>
            </extension>
            <identifier>
               <type>
                  <coding>
                     <system value="http://terminology.hl7.org/CodeSystem/v2-0203"/>
                     <code value="PT"/>
                  </coding>
               </type>
               <system value="http://ec.europa.eu/identifier/eci"/>
               <value value="9783-008691-0"/>
            </identifier>
            <identifier>
               <type>
                  <coding>
                     <system value="http://terminology.hl7.org/CodeSystem/v2-0203"/>
                     <code value="MR"/>
                  </coding>
               </type>
               <system value="http://local.setting.eu/identifier"/>
               <value value="3a83b0c2-9162-b4ed-57ec-07c0d12b05d8"/>
            </identifier>
            <name>
               <family value="Farnese"/>
            </name>
            <name>
               <given value="Gastone"/>
            </name>
            <name>
               <text value="Gastone Farnese"/>
            </name>
            <telecom>
               <system value="phone"/>
               <value value="+39 350079040"/>
            </telecom>
            <gender value="male"/>
            <birthDate value="1939-04-16"/>
            <address>
               <use value="home"/>
               <type value="physical"/>
               <line value="Rotonda Verdone, 9 Appartamento 6"/>
               <city value="Galzignano Terme"/>
               <postalCode value="35030"/>
               <country value="Italy"/>
            </address>
         </Patient>
      </resource>
   </entry>
   <entry>
      <fullUrl value="urn:uuid:d0181ee4-fa40-42dc-8ad3-7067db0ff885"/>
      <resource>
         <ServiceRequest>
            <id value="d0181ee4-fa40-42dc-8ad3-7067db0ff885"/>
            <meta>
               <profile value="http://hl7.eu/fhir/laboratory/StructureDefinition/ServiceRequest-eu-lab"/>
            </meta>
            <identifier>
               <system value="http://example.org"/>
               <value value="c6418f53-85a7-4cd2-a4d0-329277a1d651"/>
            </identifier>
            <status value="active"/>
            <intent value="order"/>
            <code>
               <coding>
                  <system value="http://snomed.info/sct"/>
                  <code value="108252007"/>
                  <display value="Laboratory procedure"/>
               </coding>
            </code>
            <subject>
               <reference value="urn:uuid:748dfc35-ab98-4543-8d3c-6ae02f886c15"/>
               <display value="Gastone Farnese"/>
            </subject>
            <requester>
               <reference value="urn:uuid:26846c98-e68e-48e4-897b-0ff9e0474149"/>
            </requester>
            <reasonCode>
               <coding>
                  <system value="http://snomed.info/sct"/>
                  <code value="414545008"/>
                  <display value="Ischemic heart disease"/>
               </coding>
            </reasonCode>
            <specimen>
               <reference value="urn:uuid:974b8f5c-c3d9-47ce-bb09-3011cafc6ffa"/>
            </specimen>
         </ServiceRequest>
      </resource>
   </entry>
   <entry>
      <fullUrl value="urn:uuid:26846c98-e68e-48e4-897b-0ff9e0474149"/>
      <resource>
         <PractitionerRole>
            <id value="26846c98-e68e-48e4-897b-0ff9e0474149"/>
            <meta>
               <profile value="http://hl7.eu/fhir/base/StructureDefinition/practitionerRole-eu"/>
            </meta>
            <text>
               <status value="generated"/>
               <div xmlns="http://www.w3.org/1999/xhtml">Provider Role Id: 26846c98-e68e-48e4-897b-0ff9e0474149</div>
            </text>
            <organization>
               <reference value="urn:uuid:71049b11-6fb1-449a-83e5-7ecd27b25236"/>
            </organization>
         </PractitionerRole>
      </resource>
   </entry>
   <entry>
      <fullUrl value="urn:uuid:71049b11-6fb1-449a-83e5-7ecd27b25236"/>
      <resource>
         <Organization>
            <id value="71049b11-6fb1-449a-83e5-7ecd27b25236"/>
            <meta>
               <profile value="http://hl7.eu/fhir/base/StructureDefinition/organization-eu"/>
            </meta>
            <text>
               <status value="generated"/>
               <div xmlns="http://www.w3.org/1999/xhtml">Provider Organization: Ospedali Riuniti Padova Sud "Madre Teresa di Calcutta"</div>
            </text>
            <identifier>
               <system value="urn:oid:2.16.840.1.113883.2.51.999"/>
               <value value="48cc5560-efd3-449d-a79a-5dda0fb1997c"/>
               <assigner>
                  <display value="HL7 Europe"/>
               </assigner>
            </identifier>
            <name value="Ospedali Riuniti Padova Sud &amp;quot;Madre Teresa di Calcutta&amp;quot;"/>
            <address>
               <line value="Via Albere nan"/>
               <city value="Este"/>
               <postalCode value="35042"/>
               <country value="Italy"/>
            </address>
         </Organization>
      </resource>
   </entry>
   <entry>
      <fullUrl value="urn:uuid:974b8f5c-c3d9-47ce-bb09-3011cafc6ffa"/>
      <resource>
         <Specimen>
            <id value="974b8f5c-c3d9-47ce-bb09-3011cafc6ffa"/>
            <meta>
               <profile value="http://hl7.eu/fhir/laboratory/StructureDefinition/Specimen-eu-lab"/>
            </meta>
            <text>
               <status value="generated"/>
               <div xmlns="http://www.w3.org/1999/xhtml">
                  <table class="hl7__eu__lab__report">
                     <tr>
                        <th>Specimen</th>
                        <th>Collection Date</th>
                     </tr>
                     <tr>
                        <td>Acellular blood (serum or plasma) specimen</td>
                        <td>
                           <span class="nb">14-Dec-2019</span>
                        </td>
                     </tr>
                  </table>
               </div>
            </text>
            <type>
               <coding>
                  <system value="http://snomed.info/sct"/>
                  <code value="122592007"/>
                  <display value="Acellular blood (serum or plasma) specimen"/>
               </coding>
            </type>
            <collection>
               <collectedDateTime value="2019-12-14"/>
            </collection>
         </Specimen>
      </resource>
   </entry>
   <entry>
      <fullUrl value="urn:uuid:893e7a56-1f34-4f3f-aa11-959998b5e56c"/>
      <resource>
         <Observation>
            <id value="893e7a56-1f34-4f3f-aa11-959998b5e56c"/>
            <meta>
               <profile value="http://hl7.eu/fhir/laboratory/StructureDefinition/Observation-resultslab-eu-lab"/>
            </meta>
            <text>
               <status value="generated"/>
               <div xmlns="http://www.w3.org/1999/xhtml">
                  <table class="hl7__eu__lab__report">
                     <tr>
                        <th>Test</th>
                        <th>15-Dec-2019</th>
                        <th>Reference Range</th>
                        <th>Unit</th>
                     </tr>
                     <tr>
                        <td>Cholesterol [Mass/volume] in Serum or Plasma</td>
                        <td>113.5</td>
                        <td>0 - 200</td>
                        <td/>
                        <td>mg/dL</td>
                     </tr>
                  </table>
               </div>
            </text>
            <status value="final"/>
            <category>
               <coding>
                  <system value="http://terminology.hl7.org/CodeSystem/observation-category"/>
                  <code value="laboratory"/>
               </coding>
            </category>
            <code>
               <coding>
                  <system value="http://loinc.org"/>
                  <code value="2093-3"/>
                  <display value="Cholesterol [Mass/volume] in Serum or Plasma"/>
               </coding>
               <text value="Cholesterol [Mass/volume] in Serum or Plasma"/>
            </code>
            <subject>
               <reference value="urn:uuid:748dfc35-ab98-4543-8d3c-6ae02f886c15"/>
               <display value="Gastone Farnese"/>
            </subject>
            <effectiveDateTime value="2019-12-14T23:10:08Z"/>
            <performer>
               <display value="The Central European Lab"/>
            </performer>
            <valueQuantity>
               <value value="113.5"/>
               <unit value="mg/dL"/>
               <system value="http://unitsofmeasure.org"/>
               <code value="mg/dL"/>
            </valueQuantity>
            <specimen>
               <reference value="urn:uuid:974b8f5c-c3d9-47ce-bb09-3011cafc6ffa"/>
            </specimen>
            <referenceRange>
               <low>
                  <value value="0"/>
                  <system value="http://unitsofmeasure.org"/>
                  <code value="mg/dL"/>
               </low>
            </referenceRange>
            <referenceRange>
               <high>
                  <value value="200"/>
                  <system value="http://unitsofmeasure.org"/>
                  <code value="mg/dL"/>
               </high>
            </referenceRange>
         </Observation>
      </resource>
   </entry>
   <entry>
      <fullUrl value="urn:uuid:2e0dc1a1-daa8-4907-8c09-d70d9a72554d"/>
      <resource>
         <Observation>
            <id value="2e0dc1a1-daa8-4907-8c09-d70d9a72554d"/>
            <meta>
               <profile value="http://hl7.eu/fhir/laboratory/StructureDefinition/Observation-resultslab-eu-lab"/>
            </meta>
            <text>
               <status value="generated"/>
               <div xmlns="http://www.w3.org/1999/xhtml">
                  <table class="hl7__eu__lab__report">
                     <tr>
                        <th>Test</th>
                        <th>15-Dec-2019</th>
                        <th>Reference Range</th>
                        <th>Unit</th>
                     </tr>
                     <tr>
                        <td>Triglyceride [Mass/volume] in Serum or Plasma</td>
                        <td>100.0</td>
                        <td>0 - 199</td>
                        <td/>
                        <td>mg/dL</td>
                     </tr>
                  </table>
               </div>
            </text>
            <status value="final"/>
            <category>
               <coding>
                  <system value="http://terminology.hl7.org/CodeSystem/observation-category"/>
                  <code value="laboratory"/>
               </coding>
            </category>
            <code>
               <coding>
                  <system value="http://loinc.org"/>
                  <code value="2571-8"/>
                  <display value="Triglyceride [Mass/volume] in Serum or Plasma"/>
               </coding>
               <text value="Triglyceride [Mass/volume] in Serum or Plasma"/>
            </code>
            <subject>
               <reference value="urn:uuid:748dfc35-ab98-4543-8d3c-6ae02f886c15"/>
               <display value="Gastone Farnese"/>
            </subject>
            <effectiveDateTime value="2019-12-14T23:10:08Z"/>
            <performer>
               <display value="The Central European Lab"/>
            </performer>
            <valueQuantity>
               <value value="100"/>
               <unit value="mg/dL"/>
               <system value="http://unitsofmeasure.org"/>
               <code value="mg/dL"/>
            </valueQuantity>
            <specimen>
               <reference value="urn:uuid:974b8f5c-c3d9-47ce-bb09-3011cafc6ffa"/>
            </specimen>
            <referenceRange>
               <low>
                  <value value="0"/>
                  <system value="http://unitsofmeasure.org"/>
                  <code value="mg/dL"/>
               </low>
            </referenceRange>
            <referenceRange>
               <high>
                  <value value="199"/>
                  <system value="http://unitsofmeasure.org"/>
                  <code value="mg/dL"/>
               </high>
            </referenceRange>
         </Observation>
      </resource>
   </entry>
   <entry>
      <fullUrl value="urn:uuid:71f5af11-7f44-448a-b3ad-03032b314c33"/>
      <resource>
         <Observation>
            <id value="71f5af11-7f44-448a-b3ad-03032b314c33"/>
            <meta>
               <profile value="http://hl7.eu/fhir/laboratory/StructureDefinition/Observation-resultslab-eu-lab"/>
            </meta>
            <text>
               <status value="generated"/>
               <div xmlns="http://www.w3.org/1999/xhtml">
                  <table class="hl7__eu__lab__report">
                     <tr>
                        <th>Test</th>
                        <th>15-Dec-2019</th>
                        <th>Reference Range</th>
                        <th>Unit</th>
                     </tr>
                     <tr>
                        <td>Cholesterol in LDL [Mass/volume] in Serum or Plasma by Direct assay</td>
                        <td>40.5</td>
                        <td>0 - 130</td>
                        <td/>
                        <td>mg/dL</td>
                     </tr>
                  </table>
               </div>
            </text>
            <status value="final"/>
            <category>
               <coding>
                  <system value="http://terminology.hl7.org/CodeSystem/observation-category"/>
                  <code value="laboratory"/>
               </coding>
            </category>
            <code>
               <coding>
                  <system value="http://loinc.org"/>
                  <code value="18262-6"/>
                  <display value="Cholesterol in LDL [Mass/volume] in Serum or Plasma by Direct assay"/>
               </coding>
               <text value="Cholesterol in LDL [Mass/volume] in Serum or Plasma by Direct assay"/>
            </code>
            <subject>
               <reference value="urn:uuid:748dfc35-ab98-4543-8d3c-6ae02f886c15"/>
               <display value="Gastone Farnese"/>
            </subject>
            <effectiveDateTime value="2019-12-14T23:10:08Z"/>
            <performer>
               <display value="The Central European Lab"/>
            </performer>
            <valueQuantity>
               <value value="40.5"/>
               <unit value="mg/dL"/>
               <system value="http://unitsofmeasure.org"/>
               <code value="mg/dL"/>
            </valueQuantity>
            <specimen>
               <reference value="urn:uuid:974b8f5c-c3d9-47ce-bb09-3011cafc6ffa"/>
            </specimen>
            <referenceRange>
               <low>
                  <value value="0"/>
                  <system value="http://unitsofmeasure.org"/>
                  <code value="mg/dL"/>
               </low>
            </referenceRange>
            <referenceRange>
               <high>
                  <value value="130"/>
                  <system value="http://unitsofmeasure.org"/>
                  <code value="mg/dL"/>
               </high>
            </referenceRange>
         </Observation>
      </resource>
   </entry>
   <entry>
      <fullUrl value="urn:uuid:6e29b0f0-bb5e-4e1b-b312-7c59e7fa0665"/>
      <resource>
         <Observation>
            <id value="6e29b0f0-bb5e-4e1b-b312-7c59e7fa0665"/>
            <meta>
               <profile value="http://hl7.eu/fhir/laboratory/StructureDefinition/Observation-resultslab-eu-lab"/>
            </meta>
            <text>
               <status value="generated"/>
               <div xmlns="http://www.w3.org/1999/xhtml">
                  <table class="hl7__eu__lab__report">
                     <tr>
                        <th>Test</th>
                        <th>15-Dec-2019</th>
                        <th>Reference Range</th>
                        <th>Unit</th>
                     </tr>
                     <tr>
                        <td>Cholesterol in HDL [Mass/volume] in Serum or Plasma</td>
                        <td>53.0</td>
                        <td>40 - 100</td>
                        <td/>
                        <td>mg/dL</td>
                     </tr>
                  </table>
               </div>
            </text>
            <status value="final"/>
            <category>
               <coding>
                  <system value="http://terminology.hl7.org/CodeSystem/observation-category"/>
                  <code value="laboratory"/>
               </coding>
            </category>
            <code>
               <coding>
                  <system value="http://loinc.org"/>
                  <code value="2085-9"/>
                  <display value="Cholesterol in HDL [Mass/volume] in Serum or Plasma"/>
               </coding>
               <text value="Cholesterol in HDL [Mass/volume] in Serum or Plasma"/>
            </code>
            <subject>
               <reference value="urn:uuid:748dfc35-ab98-4543-8d3c-6ae02f886c15"/>
               <display value="Gastone Farnese"/>
            </subject>
            <effectiveDateTime value="2019-12-14T23:10:08Z"/>
            <performer>
               <display value="The Central European Lab"/>
            </performer>
            <valueQuantity>
               <value value="53"/>
               <unit value="mg/dL"/>
               <system value="http://unitsofmeasure.org"/>
               <code value="mg/dL"/>
            </valueQuantity>
            <specimen>
               <reference value="urn:uuid:974b8f5c-c3d9-47ce-bb09-3011cafc6ffa"/>
            </specimen>
            <referenceRange>
               <low>
                  <value value="40"/>
                  <system value="http://unitsofmeasure.org"/>
                  <code value="mg/dL"/>
               </low>
            </referenceRange>
            <referenceRange>
               <high>
                  <value value="100"/>
                  <system value="http://unitsofmeasure.org"/>
                  <code value="mg/dL"/>
               </high>
            </referenceRange>
         </Observation>
      </resource>
   </entry>
   <entry>
      <fullUrl value="urn:uuid:57907389-509d-460c-94a4-d54ceafd4509"/>
      <resource>
         <Device>
            <id value="57907389-509d-460c-94a4-d54ceafd4509"/>
            <text>
               <status value="generated"/>
               <div xmlns="http://www.w3.org/1999/xhtml">SYNDERAI Synthetic Generator v5.0</div>
            </text>
            <status value="active&#34;"/>
            <distinctIdentifier value="synderai-generator-50"/>
            <manufacturer value="SYNDERAI Project"/>
            <deviceName>
               <name value="SYNDERAI Synthetic Generator"/>
               <type value="manufacturer-name"/>
            </deviceName>
            <version>
               <value value="5.0"/>
            </version>
         </Device>
      </resource>
   </entry>
   <entry>
      <fullUrl value="urn:uuid:5c657b26-4c79-4f2d-a57b-6cbcd868dfd4"/>
      <resource>
         <Provenance>
            <id value="5c657b26-4c79-4f2d-a57b-6cbcd868dfd4"/>
            <text>
               <status value="generated"/>
               <div xmlns="http://www.w3.org/1999/xhtml">Provenance for SYNDERAI Synthetic Example Data Resource</div>
            </text>
            <target>
               <reference value="Patient/748dfc35-ab98-4543-8d3c-6ae02f886c15"/>
            </target>
            <target>
               <reference value="Bundle/bdac30ca-3ac9-4f88-bf13-814b9a4275cc"/>
            </target>
            <target>
               <reference value="Composition/1cad58b3-1b2a-41d5-9a8e-be86b6660e3f"/>
            </target>
            <target>
               <reference value="PractitionerRole/fe0b3ffb-6818-4fb0-a700-bddd03d41d12"/>
            </target>
            <target>
               <reference value="Practitioner/0e443cb4-dff0-4678-b0b1-9c26866e847c"/>
            </target>
            <target>
               <reference value="PractitionerRole/26846c98-e68e-48e4-897b-0ff9e0474149"/>
            </target>
            <target>
               <reference value="Organization/71049b11-6fb1-449a-83e5-7ecd27b25236"/>
            </target>
            <recorded value="2019-12-15T00:10:08Z"/>
            <policy value="https://synderai.net/synderai-synthetic-data-policy"/>
            <reason>
               <text value="Interoperability Testing and Training (non-clinical use)"/>
            </reason>
            <activity>
               <text value="Synthetic Example Data Generation"/>
            </activity>
            <agent>
               <type>
                  <text value="author"/>
               </type>
               <who>
                  <reference value="Device/57907389-509d-460c-94a4-d54ceafd4509"/>
               </who>
            </agent>
         </Provenance>
      </resource>
   </entry>
   <entry>
      <fullUrl value="urn:uuid:fe0b3ffb-6818-4fb0-a700-bddd03d41d12"/>
      <resource>
         <PractitionerRole>
            <id value="fe0b3ffb-6818-4fb0-a700-bddd03d41d12"/>
            <meta>
               <profile value="http://hl7.eu/fhir/base/StructureDefinition/practitionerRole-eu"/>
            </meta>
            <text>
               <status value="generated"/>
               <div xmlns="http://www.w3.org/1999/xhtml">Laboratory Role Id: fe0b3ffb-6818-4fb0-a700-bddd03d41d12</div>
            </text>
            <practitioner>
               <reference value="urn:uuid:0e443cb4-dff0-4678-b0b1-9c26866e847c"/>
            </practitioner>
         </PractitionerRole>
      </resource>
   </entry>
   <entry>
      <fullUrl value="urn:uuid:0e443cb4-dff0-4678-b0b1-9c26866e847c"/>
      <resource>
         <Practitioner>
            <id value="0e443cb4-dff0-4678-b0b1-9c26866e847c"/>
            <meta>
               <profile value="http://hl7.eu/fhir/base/StructureDefinition/practitioner-eu"/>
            </meta>
            <text>
               <status value="generated"/>
               <div xmlns="http://www.w3.org/1999/xhtml">Laboratory: Laboratoire Central Européenne, 1000 Brussels, Belgium</div>
            </text>
            <identifier>
               <system value="urn:oid:2.16.840.1.113883.2.51.999"/>
               <value value="91bf14a5-7c63-48bb-ae41-d4ea341a06e9"/>
               <assigner>
                  <display value="HL7 Europe"/>
               </assigner>
            </identifier>
            <name>
               <family value="Ample"/>
               <given value="Ex"/>
               <prefix value="dr"/>
            </name>
            <address>
               <line value="Laboratoire Central Européenne"/>
               <line value="Boulevard du Jardin Botanique 32"/>
               <city value="Brussels"/>
               <postalCode value="1000"/>
               <country value="Belgium"/>
            </address>
         </Practitioner>
      </resource>
   </entry>
</Bundle>