{
  "resourceType": "Bundle",
  "id": "aa0c1038-9c11-4aa5-9761-9a669f126abc",
  "meta": {
    "profile": [
      "http://hl7.eu/fhir/laboratory/StructureDefinition/Bundle-eu-lab"
    ]
  },
  "identifier": {
    "assigner": {
      "display": "HL7 Europe"
    },
    "system": "urn:oid:2.16.840.1.113883.2.51.999",
    "value": "cc194a23-3602-4672-a302-68af7f3f5720"
  },
  "entry": [
    {
      "fullUrl": "urn:uuid:916f60e5-c41a-46c2-9312-3ae83928fabf",
      "resource": {
        "resourceType": "Composition",
        "id": "916f60e5-c41a-46c2-9312-3ae83928fabf",
        "meta": {
          "profile": [
            "http://hl7.eu/fhir/laboratory/StructureDefinition/Composition-eu-lab"
          ]
        },
        "identifier": {
          "assigner": {
            "display": "HL7 Europe"
          },
          "system": "urn:oid:2.16.840.1.113883.2.51.999",
          "value": "1827f88e-dbc4-4e9d-a1e0-c3acb6b54132"
        },
        "author": [
          {
            "reference": "urn:uuid:4fd2e5ca-968f-44d3-ad83-c0957ecac154"
          }
        ],
        "category": [
          {
            "coding": [
              {
                "code": "26436-6",
                "system": "http://loinc.org",
                "display": "Laboratory studies (set)"
              }
            ]
          }
        ],
        "type": {
          "coding": [
            {
              "code": "11502-2",
              "system": "http://loinc.org",
              "display": "Laboratory report"
            }
          ],
          "text": "Laboratory Report"
        },
        "section": [
          {
            "code": {
              "coding": [
                {
                  "code": "26436-6",
                  "system": "http://loinc.org",
                  "display": "Laboratory studies (set)"
                }
              ],
              "text": "Laboratory studies"
            },
            "section": [
              {
                "code": {
                  "coding": [
                    {
                      "code": "$18719-5",
                      "system": "http://loinc.org",
                      "display": "Chemistry studies (set)"
                    }
                  ],
                  "text": "Chemistry"
                },
                "entry": [
                  {
                    "reference": "urn:uuid:2dbf3294-f204-4e76-b0f6-0750fbd158c1"
                  },
                  {
                    "reference": "urn:uuid:5222d456-9009-4e14-a074-735ccd5067c4"
                  },
                  {
                    "reference": "urn:uuid:0c249a75-7e87-4a21-9a45-abe570ab386c"
                  },
                  {
                    "reference": "urn:uuid:7fafe3cb-cb61-419a-83fd-e9f17dd9bc46"
                  },
                  {
                    "reference": "urn:uuid:2503c9e8-24d7-41f0-82e8-157c154c10e6"
                  },
                  {
                    "reference": "urn:uuid:3bc12b70-abe3-4a75-b0d8-eaef4ef482fa"
                  },
                  {
                    "reference": "urn:uuid:9eaeba5b-c267-48fd-b81f-6e6a204cbb82"
                  },
                  {
                    "reference": "urn:uuid:199ffe42-009b-43f0-b49b-cb55c1154f62"
                  },
                  {
                    "reference": "urn:uuid:b4a2358a-4ce3-43fa-b7e7-0b860f1881ec"
                  }
                ],
                "text": {
                  "status": "generated",
                  "div": "<div xmlns=\"http://www.w3.org/1999/xhtml\"><h3>Chemistry</h3><table class=\"hl7__eu__lab__report\"><thead><tr><th>Test</th><th>17-OCT-2017</th><th>Reference&#xA0;Range</th><th>Unit</th></tr></thead><tbody><tr><td>Hemoglobin A1c/Hemoglobin.total in Blood</td><td><strong>6.1 H</strong></td><td>4.8 - 5.7</td><td>%</td></tr><tr><td>Glucose [Mass/volume] in Blood</td><td>79.8</td><td>70 - 99</td><td>mg/dL</td></tr><tr><td>Urea nitrogen [Mass/volume] in Blood</td><td>16.6</td><td>7 - 20</td><td>mg/dL</td></tr><tr><td>Creatinine [Mass/volume] in Blood</td><td><strong>1.2 H</strong></td><td>0.6 - 1.1</td><td>mg/dL</td></tr><tr><td>Calcium [Mass/volume] in Blood</td><td>8.6</td><td>8.5 - 10.5</td><td>mg/dL</td></tr><tr><td>Sodium [Moles/volume] in Blood</td><td>142.3</td><td>135 - 145</td><td>mmol/L</td></tr><tr><td>Potassium [Moles/volume] in Blood</td><td>4.4</td><td>3.5 - 5.3</td><td>mmol/L</td></tr><tr><td>Chloride [Moles/volume] in Blood</td><td>105.9</td><td>98 - 114</td><td>mmol/L</td></tr><tr><td>Carbon dioxide, total [Moles/volume] in Blood</td><td>25.0</td><td>22 - 29</td><td>mmol/L</td></tr></tbody></table></div>"
                },
                "title": "Chemistry"
              }
            ],
            "title": "Laboratory Report"
          },
          {
            "text": {
              "status": "generated",
              "div": "<div xmlns=\"http://www.w3.org/1999/xhtml\"><h3>Annotation</h3><table class=\"hl7__eu__lab__report\"><tr><th>Conclusion and Recommendations based on this report and previous findings known to us</th></tr><tr><td>The patient shows mildly elevated HbA1c, indicating impaired glucose regulation or possible prediabetes, and a slightly increased creatinine, which may suggest early renal impairment. All other parameters are within normal limits. Recommend clinical correlation for diabetes risk and assessment of renal function, with follow-up as appropriate.</td></tr></table></div>"
            },
            "code": {
              "coding": [
                {
                  "system": "http://loinc.org",
                  "code": "48767-8",
                  "display": "Annotation comment"
                }
              ]
            },
            "title": "Annotation comment"
          }
        ],
        "status": "final",
        "subject": {
          "reference": "urn:uuid:b73471fd-cce9-4cc6-b1a4-fc5f87ecffb1",
          "display": "Aniela Sacharczuk"
        },
        "date": "2017-10-17T07:26:59Z",
        "title": "Laboratory Report",
        "confidentiality": "N"
      }
    },
    {
      "fullUrl": "urn:uuid:e19ad27e-1def-4898-bc9c-01c67df25763",
      "resource": {
        "resourceType": "DiagnosticReport",
        "id": "e19ad27e-1def-4898-bc9c-01c67df25763",
        "meta": {
          "profile": [
            "http://hl7.eu/fhir/laboratory/StructureDefinition/DiagnosticReport-eu-lab"
          ]
        },
        "identifier": [
          {
            "assigner": {
              "display": "HL7 Europe"
            },
            "system": "urn:oid:2.16.840.1.113883.2.51.999",
            "value": "2841be4b-58fa-484d-a4c8-5cbb5e6023e7"
          }
        ],
        "extension": [
          {
            "url": "http://hl7.org/fhir/5.0/StructureDefinition/extension-DiagnosticReport.composition",
            "valueReference": {
              "reference": "urn:uuid:1827f88e-dbc4-4e9d-a1e0-c3acb6b54132"
            }
          }
        ],
        "category": [
          {
            "coding": [
              {
                "code": "26436-6",
                "system": "http://loinc.org",
                "display": "Laboratory studies (set)"
              }
            ]
          }
        ],
        "specimen": [
          {
            "reference": "urn:uuid:ceb7659b-513a-430c-8462-d3607f42fc0c"
          }
        ],
        "result": [
          {
            "reference": "urn:uuid:2dbf3294-f204-4e76-b0f6-0750fbd158c1"
          },
          {
            "reference": "urn:uuid:5222d456-9009-4e14-a074-735ccd5067c4"
          },
          {
            "reference": "urn:uuid:0c249a75-7e87-4a21-9a45-abe570ab386c"
          },
          {
            "reference": "urn:uuid:7fafe3cb-cb61-419a-83fd-e9f17dd9bc46"
          },
          {
            "reference": "urn:uuid:2503c9e8-24d7-41f0-82e8-157c154c10e6"
          },
          {
            "reference": "urn:uuid:3bc12b70-abe3-4a75-b0d8-eaef4ef482fa"
          },
          {
            "reference": "urn:uuid:9eaeba5b-c267-48fd-b81f-6e6a204cbb82"
          },
          {
            "reference": "urn:uuid:199ffe42-009b-43f0-b49b-cb55c1154f62"
          },
          {
            "reference": "urn:uuid:b4a2358a-4ce3-43fa-b7e7-0b860f1881ec"
          }
        ],
        "status": "registered",
        "code": {
          "coding": [
            {
              "code": "11502-2",
              "system": "http://loinc.org",
              "display": "Laboratory report"
            }
          ]
        },
        "subject": {
          "reference": "urn:uuid:b73471fd-cce9-4cc6-b1a4-fc5f87ecffb1",
          "display": "Aniela Sacharczuk"
        }
      }
    },
    {
      "fullUrl": "urn:uuid:b73471fd-cce9-4cc6-b1a4-fc5f87ecffb1",
      "resource": {
        "resourceType": "Patient",
        "id": "b73471fd-cce9-4cc6-b1a4-fc5f87ecffb1",
        "meta": {
          "security": [
            {
              "system": "http://terminology.hl7.org/CodeSystem/v3-ActReason",
              "code": "HTEST"
            },
            {
              "system": "http://terminology.hl7.org/CodeSystem/v3-ActReason",
              "code": "TRAIN"
            }
          ],
          "tag": [
            {
              "system": "https://synderai.net/fhir/CodeSystem/tags",
              "code": "synthetic",
              "display": "SYNDERAI Synthetic data"
            }
          ],
          "profile": [
            "http://hl7.eu/fhir/base/StructureDefinition/patient-eu-core"
          ]
        },
        "identifier": [
          {
            "type": {
              "coding": [
                {
                  "code": "PT",
                  "system": "http://terminology.hl7.org/CodeSystem/v2-0203"
                }
              ]
            },
            "system": "http://ec.europa.eu/identifier/eci",
            "value": "3843-787162-7"
          },
          {
            "type": {
              "coding": [
                {
                  "code": "MR",
                  "system": "http://terminology.hl7.org/CodeSystem/v2-0203"
                }
              ]
            },
            "system": "http://local.setting.eu/identifier",
            "value": "cd2e7aac-e2c0-8306-b862-9ed4c443c8b5"
          }
        ],
        "name": [
          {
            "family": "Sacharczuk"
          },
          {
            "given": [
              "Aniela"
            ]
          },
          {
            "text": "Aniela Sacharczuk"
          }
        ],
        "address": [
          {
            "line": [
              "plac Szpitalna 13"
            ],
            "use": "home",
            "type": "physical",
            "postalCode": "27-600",
            "city": "Sandomierz",
            "country": "Poland"
          }
        ],
        "telecom": [
          {
            "system": "phone",
            "value": "+48 536 227 035"
          }
        ],
        "extension": [
          {
            "url": "http://hl7.org/fhir/StructureDefinition/patient-nationality",
            "valueCodeableConcept": {
              "coding": [
                {
                  "code": "PL",
                  "system": "http://hl7.org/fhir/ValueSet/country"
                }
              ]
            }
          }
        ],
        "text": {
          "status": "generated",
          "div": "<div xmlns=\"http://www.w3.org/1999/xhtml\"><table class=\"hl7__ips\"><tr><td>Aniela Sacharczuk</td><td>female</td><td>02-Nov-1970</td></tr></table></div>"
        },
        "gender": "female",
        "birthDate": "1970-11-02"
      }
    },
    {
      "fullUrl": "urn:uuid:8a1845c2-f120-45c6-9a0f-d7dba2b165a1",
      "resource": {
        "resourceType": "ServiceRequest",
        "id": "8a1845c2-f120-45c6-9a0f-d7dba2b165a1",
        "meta": {
          "profile": [
            "http://hl7.eu/fhir/laboratory/StructureDefinition/ServiceRequest-eu-lab"
          ]
        },
        "identifier": [
          {
            "system": "http://example.org",
            "value": "04282159-8a4c-4435-9164-e18f40950ea4"
          }
        ],
        "specimen": [
          {
            "reference": "urn:uuid:ceb7659b-513a-430c-8462-d3607f42fc0c"
          }
        ],
        "reasonCode": [
          {
            "coding": [
              {
                "code": "237602007",
                "system": "http://snomed.info/sct",
                "display": "Metabolic syndrome X"
              }
            ]
          },
          {
            "coding": [
              {
                "code": "15777000",
                "system": "http://snomed.info/sct",
                "display": "Prediabetes"
              }
            ]
          },
          {
            "coding": [
              {
                "code": "59621000",
                "system": "http://snomed.info/sct",
                "display": "Essential hypertension"
              }
            ]
          }
        ],
        "status": "active",
        "intent": "order",
        "code": {
          "coding": [
            {
              "code": "108252007",
              "system": "http://snomed.info/sct",
              "display": "Laboratory procedure"
            }
          ]
        },
        "subject": {
          "reference": "urn:uuid:b73471fd-cce9-4cc6-b1a4-fc5f87ecffb1",
          "display": "Aniela Sacharczuk"
        },
        "requester": {
          "reference": "urn:uuid:e1c25dd5-6554-41b5-b83f-1c97a6865bbb"
        }
      }
    },
    {
      "fullUrl": "urn:uuid:e1c25dd5-6554-41b5-b83f-1c97a6865bbb",
      "resource": {
        "resourceType": "PractitionerRole",
        "id": "e1c25dd5-6554-41b5-b83f-1c97a6865bbb",
        "meta": {
          "profile": [
            "http://hl7.eu/fhir/base/StructureDefinition/practitionerRole-eu"
          ]
        },
        "text": {
          "status": "generated",
          "div": "<div xmlns=\"http://www.w3.org/1999/xhtml\">Provider Role Id: e1c25dd5-6554-41b5-b83f-1c97a6865bbb</div>"
        },
        "organization": {
          "reference": "urn:uuid:60a82359-a656-4072-9ecf-312bbdf7ee39"
        }
      }
    },
    {
      "fullUrl": "urn:uuid:60a82359-a656-4072-9ecf-312bbdf7ee39",
      "resource": {
        "resourceType": "Organization",
        "id": "60a82359-a656-4072-9ecf-312bbdf7ee39",
        "meta": {
          "profile": [
            "http://hl7.eu/fhir/base/StructureDefinition/organization-eu"
          ]
        },
        "identifier": [
          {
            "assigner": {
              "display": "HL7 Europe"
            },
            "system": "urn:oid:2.16.840.1.113883.2.51.999",
            "value": "bf5c8b11-cc55-48e4-9411-5f02d2073e71"
          }
        ],
        "address": [
          {
            "line": [
              "Józefa Piłsudskiego 17"
            ],
            "city": "Gorzyce",
            "postalCode": "39-432",
            "country": "Poland"
          }
        ],
        "text": {
          "status": "generated",
          "div": "<div xmlns=\"http://www.w3.org/1999/xhtml\">Provider Organization: Ośrodek Zdrowia</div>"
        },
        "name": "Ośrodek Zdrowia"
      }
    },
    {
      "fullUrl": "urn:uuid:ceb7659b-513a-430c-8462-d3607f42fc0c",
      "resource": {
        "resourceType": "Specimen",
        "id": "ceb7659b-513a-430c-8462-d3607f42fc0c",
        "meta": {
          "profile": [
            "http://hl7.eu/fhir/laboratory/StructureDefinition/Specimen-eu-lab"
          ]
        },
        "collection": {
          "collectedDateTime": "2017-10-17"
        },
        "text": {
          "status": "generated",
          "div": "<div xmlns=\"http://www.w3.org/1999/xhtml\"><table class=\"hl7__eu__lab__report\"><tr><th>Specimen</th><th>Collection Date</th></tr><tr><td>Whole blood specimen (specimen)</td><td><span class=\"nb\">17-Oct-2017</span></td></tr></table></div>"
        },
        "type": {
          "coding": [
            {
              "code": "258580003",
              "system": "http://snomed.info/sct",
              "display": "Whole blood specimen (specimen)"
            }
          ]
        }
      }
    },
    {
      "fullUrl": "urn:uuid:2dbf3294-f204-4e76-b0f6-0750fbd158c1",
      "resource": {
        "resourceType": "Observation",
        "id": "2dbf3294-f204-4e76-b0f6-0750fbd158c1",
        "meta": {
          "profile": [
            "http://hl7.eu/fhir/laboratory/StructureDefinition/Observation-resultslab-eu-lab"
          ]
        },
        "performer": [
          {
            "display": "The Central European Lab"
          }
        ],
        "category": [
          {
            "coding": [
              {
                "system": "http://terminology.hl7.org/CodeSystem/observation-category",
                "code": "laboratory"
              }
            ]
          }
        ],
        "code": {
          "coding": [
            {
              "code": "4548-4",
              "system": "http://loinc.org",
              "display": "Hemoglobin A1c/Hemoglobin.total in Blood"
            }
          ],
          "text": "Hemoglobin A1c/Hemoglobin.total in Blood"
        },
        "valueQuantity": {
          "system": "http://unitsofmeasure.org",
          "value": 6.1,
          "unit": "%",
          "code": "%"
        },
        "referenceRange": [
          {
            "low": {
              "value": 4.8,
              "code": "%",
              "system": "http://unitsofmeasure.org"
            }
          },
          {
            "high": {
              "value": 5.7,
              "code": "%",
              "system": "http://unitsofmeasure.org"
            }
          }
        ],
        "interpretation": [
          {
            "coding": [
              {
                "code": "H",
                "system": "http://terminology.hl7.org/CodeSystem/v3-ObservationInterpretation",
                "display": "High"
              }
            ]
          }
        ],
        "text": {
          "status": "generated",
          "div": "<div xmlns=\"http://www.w3.org/1999/xhtml\"><table class=\"hl7__eu__lab__report\"><tr><th>Test</th><th>17-Oct-2017</th><th>Reference&#xA0;Range</th><th>Unit</th></tr><tr><td>Hemoglobin A1c/Hemoglobin.total in Blood</td><td>6.1</td><td>4.8 - 5.7</td><td>H</td><td>%</td></tr></table></div>"
        },
        "status": "final",
        "subject": {
          "reference": "urn:uuid:b73471fd-cce9-4cc6-b1a4-fc5f87ecffb1",
          "display": "Aniela Sacharczuk"
        },
        "effectiveDateTime": "2017-10-17T05:26:59Z",
        "specimen": {
          "reference": "urn:uuid:ceb7659b-513a-430c-8462-d3607f42fc0c"
        }
      }
    },
    {
      "fullUrl": "urn:uuid:5222d456-9009-4e14-a074-735ccd5067c4",
      "resource": {
        "resourceType": "Observation",
        "id": "5222d456-9009-4e14-a074-735ccd5067c4",
        "meta": {
          "profile": [
            "http://hl7.eu/fhir/laboratory/StructureDefinition/Observation-resultslab-eu-lab"
          ]
        },
        "performer": [
          {
            "display": "The Central European Lab"
          }
        ],
        "category": [
          {
            "coding": [
              {
                "system": "http://terminology.hl7.org/CodeSystem/observation-category",
                "code": "laboratory"
              }
            ]
          }
        ],
        "code": {
          "coding": [
            {
              "code": "2339-0",
              "system": "http://loinc.org",
              "display": "Glucose [Mass/volume] in Blood"
            }
          ],
          "text": "Glucose [Mass/volume] in Blood"
        },
        "valueQuantity": {
          "system": "http://unitsofmeasure.org",
          "value": 79.8,
          "unit": "mg/dL",
          "code": "mg/dL"
        },
        "referenceRange": [
          {
            "low": {
              "value": 70,
              "code": "mg/dL",
              "system": "http://unitsofmeasure.org"
            }
          },
          {
            "high": {
              "value": 99,
              "code": "mg/dL",
              "system": "http://unitsofmeasure.org"
            }
          }
        ],
        "text": {
          "status": "generated",
          "div": "<div xmlns=\"http://www.w3.org/1999/xhtml\"><table class=\"hl7__eu__lab__report\"><tr><th>Test</th><th>17-Oct-2017</th><th>Reference&#xA0;Range</th><th>Unit</th></tr><tr><td>Glucose [Mass/volume] in Blood</td><td>79.8</td><td>70 - 99</td><td></td><td>mg/dL</td></tr></table></div>"
        },
        "status": "final",
        "subject": {
          "reference": "urn:uuid:b73471fd-cce9-4cc6-b1a4-fc5f87ecffb1",
          "display": "Aniela Sacharczuk"
        },
        "effectiveDateTime": "2017-10-17T05:26:59Z",
        "specimen": {
          "reference": "urn:uuid:ceb7659b-513a-430c-8462-d3607f42fc0c"
        }
      }
    },
    {
      "fullUrl": "urn:uuid:0c249a75-7e87-4a21-9a45-abe570ab386c",
      "resource": {
        "resourceType": "Observation",
        "id": "0c249a75-7e87-4a21-9a45-abe570ab386c",
        "meta": {
          "profile": [
            "http://hl7.eu/fhir/laboratory/StructureDefinition/Observation-resultslab-eu-lab"
          ]
        },
        "performer": [
          {
            "display": "The Central European Lab"
          }
        ],
        "category": [
          {
            "coding": [
              {
                "system": "http://terminology.hl7.org/CodeSystem/observation-category",
                "code": "laboratory"
              }
            ]
          }
        ],
        "code": {
          "coding": [
            {
              "code": "6299-2",
              "system": "http://loinc.org",
              "display": "Urea nitrogen [Mass/volume] in Blood"
            }
          ],
          "text": "Urea nitrogen [Mass/volume] in Blood"
        },
        "valueQuantity": {
          "system": "http://unitsofmeasure.org",
          "value": 16.6,
          "unit": "mg/dL",
          "code": "mg/dL"
        },
        "referenceRange": [
          {
            "low": {
              "value": 7,
              "code": "mg/dL",
              "system": "http://unitsofmeasure.org"
            }
          },
          {
            "high": {
              "value": 20,
              "code": "mg/dL",
              "system": "http://unitsofmeasure.org"
            }
          }
        ],
        "text": {
          "status": "generated",
          "div": "<div xmlns=\"http://www.w3.org/1999/xhtml\"><table class=\"hl7__eu__lab__report\"><tr><th>Test</th><th>17-Oct-2017</th><th>Reference&#xA0;Range</th><th>Unit</th></tr><tr><td>Urea nitrogen [Mass/volume] in Blood</td><td>16.6</td><td>7 - 20</td><td></td><td>mg/dL</td></tr></table></div>"
        },
        "status": "final",
        "subject": {
          "reference": "urn:uuid:b73471fd-cce9-4cc6-b1a4-fc5f87ecffb1",
          "display": "Aniela Sacharczuk"
        },
        "effectiveDateTime": "2017-10-17T05:26:59Z",
        "specimen": {
          "reference": "urn:uuid:ceb7659b-513a-430c-8462-d3607f42fc0c"
        }
      }
    },
    {
      "fullUrl": "urn:uuid:7fafe3cb-cb61-419a-83fd-e9f17dd9bc46",
      "resource": {
        "resourceType": "Observation",
        "id": "7fafe3cb-cb61-419a-83fd-e9f17dd9bc46",
        "meta": {
          "profile": [
            "http://hl7.eu/fhir/laboratory/StructureDefinition/Observation-resultslab-eu-lab"
          ]
        },
        "performer": [
          {
            "display": "The Central European Lab"
          }
        ],
        "category": [
          {
            "coding": [
              {
                "system": "http://terminology.hl7.org/CodeSystem/observation-category",
                "code": "laboratory"
              }
            ]
          }
        ],
        "code": {
          "coding": [
            {
              "code": "38483-4",
              "system": "http://loinc.org",
              "display": "Creatinine [Mass/volume] in Blood"
            }
          ],
          "text": "Creatinine [Mass/volume] in Blood"
        },
        "valueQuantity": {
          "system": "http://unitsofmeasure.org",
          "value": 1.2,
          "unit": "mg/dL",
          "code": "mg/dL"
        },
        "referenceRange": [
          {
            "low": {
              "value": 0.6,
              "code": "mg/dL",
              "system": "http://unitsofmeasure.org"
            }
          },
          {
            "high": {
              "value": 1.1,
              "code": "mg/dL",
              "system": "http://unitsofmeasure.org"
            }
          }
        ],
        "interpretation": [
          {
            "coding": [
              {
                "code": "H",
                "system": "http://terminology.hl7.org/CodeSystem/v3-ObservationInterpretation",
                "display": "High"
              }
            ]
          }
        ],
        "text": {
          "status": "generated",
          "div": "<div xmlns=\"http://www.w3.org/1999/xhtml\"><table class=\"hl7__eu__lab__report\"><tr><th>Test</th><th>17-Oct-2017</th><th>Reference&#xA0;Range</th><th>Unit</th></tr><tr><td>Creatinine [Mass/volume] in Blood</td><td>1.2</td><td>0.6 - 1.1</td><td>H</td><td>mg/dL</td></tr></table></div>"
        },
        "status": "final",
        "subject": {
          "reference": "urn:uuid:b73471fd-cce9-4cc6-b1a4-fc5f87ecffb1",
          "display": "Aniela Sacharczuk"
        },
        "effectiveDateTime": "2017-10-17T05:26:59Z",
        "specimen": {
          "reference": "urn:uuid:ceb7659b-513a-430c-8462-d3607f42fc0c"
        }
      }
    },
    {
      "fullUrl": "urn:uuid:2503c9e8-24d7-41f0-82e8-157c154c10e6",
      "resource": {
        "resourceType": "Observation",
        "id": "2503c9e8-24d7-41f0-82e8-157c154c10e6",
        "meta": {
          "profile": [
            "http://hl7.eu/fhir/laboratory/StructureDefinition/Observation-resultslab-eu-lab"
          ]
        },
        "performer": [
          {
            "display": "The Central European Lab"
          }
        ],
        "category": [
          {
            "coding": [
              {
                "system": "http://terminology.hl7.org/CodeSystem/observation-category",
                "code": "laboratory"
              }
            ]
          }
        ],
        "code": {
          "coding": [
            {
              "code": "49765-1",
              "system": "http://loinc.org",
              "display": "Calcium [Mass/volume] in Blood"
            }
          ],
          "text": "Calcium [Mass/volume] in Blood"
        },
        "valueQuantity": {
          "system": "http://unitsofmeasure.org",
          "value": 8.6,
          "unit": "mg/dL",
          "code": "mg/dL"
        },
        "referenceRange": [
          {
            "low": {
              "value": 8.5,
              "code": "mg/dL",
              "system": "http://unitsofmeasure.org"
            }
          },
          {
            "high": {
              "value": 10.5,
              "code": "mg/dL",
              "system": "http://unitsofmeasure.org"
            }
          }
        ],
        "text": {
          "status": "generated",
          "div": "<div xmlns=\"http://www.w3.org/1999/xhtml\"><table class=\"hl7__eu__lab__report\"><tr><th>Test</th><th>17-Oct-2017</th><th>Reference&#xA0;Range</th><th>Unit</th></tr><tr><td>Calcium [Mass/volume] in Blood</td><td>8.6</td><td>8.5 - 10.5</td><td></td><td>mg/dL</td></tr></table></div>"
        },
        "status": "final",
        "subject": {
          "reference": "urn:uuid:b73471fd-cce9-4cc6-b1a4-fc5f87ecffb1",
          "display": "Aniela Sacharczuk"
        },
        "effectiveDateTime": "2017-10-17T05:26:59Z",
        "specimen": {
          "reference": "urn:uuid:ceb7659b-513a-430c-8462-d3607f42fc0c"
        }
      }
    },
    {
      "fullUrl": "urn:uuid:3bc12b70-abe3-4a75-b0d8-eaef4ef482fa",
      "resource": {
        "resourceType": "Observation",
        "id": "3bc12b70-abe3-4a75-b0d8-eaef4ef482fa",
        "meta": {
          "profile": [
            "http://hl7.eu/fhir/laboratory/StructureDefinition/Observation-resultslab-eu-lab"
          ]
        },
        "performer": [
          {
            "display": "The Central European Lab"
          }
        ],
        "category": [
          {
            "coding": [
              {
                "system": "http://terminology.hl7.org/CodeSystem/observation-category",
                "code": "laboratory"
              }
            ]
          }
        ],
        "code": {
          "coding": [
            {
              "code": "2947-0",
              "system": "http://loinc.org",
              "display": "Sodium [Moles/volume] in Blood"
            }
          ],
          "text": "Sodium [Moles/volume] in Blood"
        },
        "valueQuantity": {
          "system": "http://unitsofmeasure.org",
          "value": 142.3,
          "unit": "mmol/L",
          "code": "mmol/L"
        },
        "referenceRange": [
          {
            "low": {
              "value": 135,
              "code": "mmol/L",
              "system": "http://unitsofmeasure.org"
            }
          },
          {
            "high": {
              "value": 145,
              "code": "mmol/L",
              "system": "http://unitsofmeasure.org"
            }
          }
        ],
        "text": {
          "status": "generated",
          "div": "<div xmlns=\"http://www.w3.org/1999/xhtml\"><table class=\"hl7__eu__lab__report\"><tr><th>Test</th><th>17-Oct-2017</th><th>Reference&#xA0;Range</th><th>Unit</th></tr><tr><td>Sodium [Moles/volume] in Blood</td><td>142.3</td><td>135 - 145</td><td></td><td>mmol/L</td></tr></table></div>"
        },
        "status": "final",
        "subject": {
          "reference": "urn:uuid:b73471fd-cce9-4cc6-b1a4-fc5f87ecffb1",
          "display": "Aniela Sacharczuk"
        },
        "effectiveDateTime": "2017-10-17T05:26:59Z",
        "specimen": {
          "reference": "urn:uuid:ceb7659b-513a-430c-8462-d3607f42fc0c"
        }
      }
    },
    {
      "fullUrl": "urn:uuid:9eaeba5b-c267-48fd-b81f-6e6a204cbb82",
      "resource": {
        "resourceType": "Observation",
        "id": "9eaeba5b-c267-48fd-b81f-6e6a204cbb82",
        "meta": {
          "profile": [
            "http://hl7.eu/fhir/laboratory/StructureDefinition/Observation-resultslab-eu-lab"
          ]
        },
        "performer": [
          {
            "display": "The Central European Lab"
          }
        ],
        "category": [
          {
            "coding": [
              {
                "system": "http://terminology.hl7.org/CodeSystem/observation-category",
                "code": "laboratory"
              }
            ]
          }
        ],
        "code": {
          "coding": [
            {
              "code": "6298-4",
              "system": "http://loinc.org",
              "display": "Potassium [Moles/volume] in Blood"
            }
          ],
          "text": "Potassium [Moles/volume] in Blood"
        },
        "valueQuantity": {
          "system": "http://unitsofmeasure.org",
          "value": 4.4,
          "unit": "mmol/L",
          "code": "mmol/L"
        },
        "referenceRange": [
          {
            "low": {
              "value": 3.5,
              "code": "mmol/L",
              "system": "http://unitsofmeasure.org"
            }
          },
          {
            "high": {
              "value": 5.3,
              "code": "mmol/L",
              "system": "http://unitsofmeasure.org"
            }
          }
        ],
        "text": {
          "status": "generated",
          "div": "<div xmlns=\"http://www.w3.org/1999/xhtml\"><table class=\"hl7__eu__lab__report\"><tr><th>Test</th><th>17-Oct-2017</th><th>Reference&#xA0;Range</th><th>Unit</th></tr><tr><td>Potassium [Moles/volume] in Blood</td><td>4.4</td><td>3.5 - 5.3</td><td></td><td>mmol/L</td></tr></table></div>"
        },
        "status": "final",
        "subject": {
          "reference": "urn:uuid:b73471fd-cce9-4cc6-b1a4-fc5f87ecffb1",
          "display": "Aniela Sacharczuk"
        },
        "effectiveDateTime": "2017-10-17T05:26:59Z",
        "specimen": {
          "reference": "urn:uuid:ceb7659b-513a-430c-8462-d3607f42fc0c"
        }
      }
    },
    {
      "fullUrl": "urn:uuid:199ffe42-009b-43f0-b49b-cb55c1154f62",
      "resource": {
        "resourceType": "Observation",
        "id": "199ffe42-009b-43f0-b49b-cb55c1154f62",
        "meta": {
          "profile": [
            "http://hl7.eu/fhir/laboratory/StructureDefinition/Observation-resultslab-eu-lab"
          ]
        },
        "performer": [
          {
            "display": "The Central European Lab"
          }
        ],
        "category": [
          {
            "coding": [
              {
                "system": "http://terminology.hl7.org/CodeSystem/observation-category",
                "code": "laboratory"
              }
            ]
          }
        ],
        "code": {
          "coding": [
            {
              "code": "2069-3",
              "system": "http://loinc.org",
              "display": "Chloride [Moles/volume] in Blood"
            }
          ],
          "text": "Chloride [Moles/volume] in Blood"
        },
        "valueQuantity": {
          "system": "http://unitsofmeasure.org",
          "value": 105.9,
          "unit": "mmol/L",
          "code": "mmol/L"
        },
        "referenceRange": [
          {
            "low": {
              "value": 98,
              "code": "mmol/L",
              "system": "http://unitsofmeasure.org"
            }
          },
          {
            "high": {
              "value": 114,
              "code": "mmol/L",
              "system": "http://unitsofmeasure.org"
            }
          }
        ],
        "text": {
          "status": "generated",
          "div": "<div xmlns=\"http://www.w3.org/1999/xhtml\"><table class=\"hl7__eu__lab__report\"><tr><th>Test</th><th>17-Oct-2017</th><th>Reference&#xA0;Range</th><th>Unit</th></tr><tr><td>Chloride [Moles/volume] in Blood</td><td>105.9</td><td>98 - 114</td><td></td><td>mmol/L</td></tr></table></div>"
        },
        "status": "final",
        "subject": {
          "reference": "urn:uuid:b73471fd-cce9-4cc6-b1a4-fc5f87ecffb1",
          "display": "Aniela Sacharczuk"
        },
        "effectiveDateTime": "2017-10-17T05:26:59Z",
        "specimen": {
          "reference": "urn:uuid:ceb7659b-513a-430c-8462-d3607f42fc0c"
        }
      }
    },
    {
      "fullUrl": "urn:uuid:b4a2358a-4ce3-43fa-b7e7-0b860f1881ec",
      "resource": {
        "resourceType": "Observation",
        "id": "b4a2358a-4ce3-43fa-b7e7-0b860f1881ec",
        "meta": {
          "profile": [
            "http://hl7.eu/fhir/laboratory/StructureDefinition/Observation-resultslab-eu-lab"
          ]
        },
        "performer": [
          {
            "display": "The Central European Lab"
          }
        ],
        "category": [
          {
            "coding": [
              {
                "system": "http://terminology.hl7.org/CodeSystem/observation-category",
                "code": "laboratory"
              }
            ]
          }
        ],
        "code": {
          "coding": [
            {
              "code": "20565-8",
              "system": "http://loinc.org",
              "display": "Carbon dioxide, total [Moles/volume] in Blood"
            }
          ],
          "text": "Carbon dioxide, total [Moles/volume] in Blood"
        },
        "valueQuantity": {
          "system": "http://unitsofmeasure.org",
          "value": 25,
          "unit": "mmol/L",
          "code": "mmol/L"
        },
        "referenceRange": [
          {
            "low": {
              "value": 22,
              "code": "mmol/L",
              "system": "http://unitsofmeasure.org"
            }
          },
          {
            "high": {
              "value": 29,
              "code": "mmol/L",
              "system": "http://unitsofmeasure.org"
            }
          }
        ],
        "text": {
          "status": "generated",
          "div": "<div xmlns=\"http://www.w3.org/1999/xhtml\"><table class=\"hl7__eu__lab__report\"><tr><th>Test</th><th>17-Oct-2017</th><th>Reference&#xA0;Range</th><th>Unit</th></tr><tr><td>Carbon dioxide, total [Moles/volume] in Blood</td><td>25.0</td><td>22 - 29</td><td></td><td>mmol/L</td></tr></table></div>"
        },
        "status": "final",
        "subject": {
          "reference": "urn:uuid:b73471fd-cce9-4cc6-b1a4-fc5f87ecffb1",
          "display": "Aniela Sacharczuk"
        },
        "effectiveDateTime": "2017-10-17T05:26:59Z",
        "specimen": {
          "reference": "urn:uuid:ceb7659b-513a-430c-8462-d3607f42fc0c"
        }
      }
    },
    {
      "fullUrl": "urn:uuid:b9520bfa-9760-4a5f-98f5-4e199bf5db56",
      "resource": {
        "resourceType": "Device",
        "id": "b9520bfa-9760-4a5f-98f5-4e199bf5db56",
        "deviceName": [
          {
            "name": "SYNDERAI Synthetic Generator",
            "type": "manufacturer-name"
          }
        ],
        "version": [
          {
            "value": "5.0"
          }
        ],
        "text": {
          "status": "generated",
          "div": "<div xmlns=\"http://www.w3.org/1999/xhtml\">SYNDERAI Synthetic Generator v5.0</div>"
        },
        "status": "active\"",
        "distinctIdentifier": "synderai-generator-50",
        "manufacturer": "SYNDERAI Project"
      }
    },
    {
      "fullUrl": "urn:uuid:39849a9c-5761-4817-9154-61466d5116ab",
      "resource": {
        "resourceType": "Provenance",
        "id": "39849a9c-5761-4817-9154-61466d5116ab",
        "target": [
          {
            "reference": "Patient/b73471fd-cce9-4cc6-b1a4-fc5f87ecffb1"
          },
          {
            "reference": "Bundle/aa0c1038-9c11-4aa5-9761-9a669f126abc"
          },
          {
            "reference": "Composition/916f60e5-c41a-46c2-9312-3ae83928fabf"
          },
          {
            "reference": "PractitionerRole/4fd2e5ca-968f-44d3-ad83-c0957ecac154"
          },
          {
            "reference": "Practitioner/a468b273-7b9d-47f2-a7b2-7c5dd5dfc25b"
          },
          {
            "reference": "PractitionerRole/e1c25dd5-6554-41b5-b83f-1c97a6865bbb"
          },
          {
            "reference": "Organization/60a82359-a656-4072-9ecf-312bbdf7ee39"
          }
        ],
        "activity": {
          "text": "Synthetic Example Data Generation"
        },
        "policy": [
          "https://synderai.net/synderai-synthetic-data-policy"
        ],
        "agent": [
          {
            "type": {
              "text": "author"
            },
            "who": {
              "reference": "Device/b9520bfa-9760-4a5f-98f5-4e199bf5db56"
            }
          }
        ],
        "reason": [
          {
            "text": "Interoperability Testing and Training (non-clinical use)"
          }
        ],
        "text": {
          "status": "generated",
          "div": "<div xmlns=\"http://www.w3.org/1999/xhtml\">Provenance for SYNDERAI Synthetic Example Data Resource</div>"
        },
        "recorded": "2017-10-17T07:26:59Z"
      }
    },
    {
      "fullUrl": "urn:uuid:4fd2e5ca-968f-44d3-ad83-c0957ecac154",
      "resource": {
        "resourceType": "PractitionerRole",
        "id": "4fd2e5ca-968f-44d3-ad83-c0957ecac154",
        "meta": {
          "profile": [
            "http://hl7.eu/fhir/base/StructureDefinition/practitionerRole-eu"
          ]
        },
        "text": {
          "status": "generated",
          "div": "<div xmlns=\"http://www.w3.org/1999/xhtml\">Laboratory Role Id: 4fd2e5ca-968f-44d3-ad83-c0957ecac154</div>"
        },
        "practitioner": {
          "reference": "urn:uuid:a468b273-7b9d-47f2-a7b2-7c5dd5dfc25b"
        }
      }
    },
    {
      "fullUrl": "urn:uuid:a468b273-7b9d-47f2-a7b2-7c5dd5dfc25b",
      "resource": {
        "resourceType": "Practitioner",
        "id": "a468b273-7b9d-47f2-a7b2-7c5dd5dfc25b",
        "meta": {
          "profile": [
            "http://hl7.eu/fhir/base/StructureDefinition/practitioner-eu"
          ]
        },
        "identifier": [
          {
            "assigner": {
              "display": "HL7 Europe"
            },
            "system": "urn:oid:2.16.840.1.113883.2.51.999",
            "value": "77ad2bc8-0886-43b3-8676-cf624cffe5ff"
          }
        ],
        "name": [
          {
            "prefix": [
              "dr"
            ],
            "given": [
              "Ex"
            ],
            "family": "Ample"
          }
        ],
        "address": [
          {
            "line": [
              "Laboratoire Central Européenne",
              "Boulevard du Jardin Botanique 32"
            ],
            "postalCode": "1000",
            "city": "Brussels",
            "country": "Belgium"
          }
        ],
        "text": {
          "status": "generated",
          "div": "<div xmlns=\"http://www.w3.org/1999/xhtml\">Laboratory: Laboratoire Central Européenne, 1000 Brussels, Belgium</div>"
        }
      }
    }
  ],
  "type": "document",
  "timestamp": "2017-10-17T07:26:59Z"
}
