{
  "resourceType": "Bundle",
  "id": "45c5c9e9-7783-48a5-ba37-95bba49e0cf6",
  "meta": {
    "profile": [
      "http://hl7.eu/fhir/laboratory/StructureDefinition/Bundle-eu-lab"
    ]
  },
  "identifier": {
    "assigner": {
      "display": "HL7 Europe"
    },
    "system": "urn:oid:2.16.840.1.113883.2.51.999",
    "value": "44038e5b-f301-481d-a3ac-485fbb8cb2b6"
  },
  "entry": [
    {
      "fullUrl": "urn:uuid:18726fd0-ed9b-4342-b080-6952b48e3ff3",
      "resource": {
        "resourceType": "Composition",
        "id": "18726fd0-ed9b-4342-b080-6952b48e3ff3",
        "meta": {
          "profile": [
            "http://hl7.eu/fhir/laboratory/StructureDefinition/Composition-eu-lab"
          ]
        },
        "identifier": {
          "assigner": {
            "display": "HL7 Europe"
          },
          "system": "urn:oid:2.16.840.1.113883.2.51.999",
          "value": "4f821700-fc3d-4b80-b959-3181b35788cb"
        },
        "author": [
          {
            "reference": "urn:uuid:5d347aaa-09c7-487c-9366-4e0ee29061d4"
          }
        ],
        "category": [
          {
            "coding": [
              {
                "code": "26436-6",
                "system": "http://loinc.org",
                "display": "Laboratory studies (set)"
              }
            ]
          }
        ],
        "type": {
          "coding": [
            {
              "code": "11502-2",
              "system": "http://loinc.org",
              "display": "Laboratory report"
            }
          ],
          "text": "Laboratory Report"
        },
        "section": [
          {
            "code": {
              "coding": [
                {
                  "code": "26436-6",
                  "system": "http://loinc.org",
                  "display": "Laboratory studies (set)"
                }
              ],
              "text": "Laboratory studies"
            },
            "section": [
              {
                "code": {
                  "coding": [
                    {
                      "code": "$18719-5",
                      "system": "http://loinc.org",
                      "display": "Chemistry studies (set)"
                    }
                  ],
                  "text": "Chemistry"
                },
                "entry": [
                  {
                    "reference": "urn:uuid:1ca2cb27-55a2-415c-99cb-ad81b896b506"
                  },
                  {
                    "reference": "urn:uuid:fbd49c28-f65b-4646-9e2d-43cde31f12d4"
                  },
                  {
                    "reference": "urn:uuid:4872a8ee-9179-40ac-bb6e-74ad2bfed77c"
                  },
                  {
                    "reference": "urn:uuid:58f458b8-6c9b-478f-97a9-179acb76bb26"
                  },
                  {
                    "reference": "urn:uuid:4fe884d6-2dbb-4b31-862b-83df9bb55cf6"
                  },
                  {
                    "reference": "urn:uuid:d6bbadb2-b656-4c0e-b885-4c9b1dca7989"
                  },
                  {
                    "reference": "urn:uuid:88d2e1a7-3c81-42cb-a455-fd30be7fa722"
                  },
                  {
                    "reference": "urn:uuid:84f1bbf0-cae0-44b5-bfce-52ae44805dc8"
                  },
                  {
                    "reference": "urn:uuid:ec573b8d-000e-4845-a73b-e8e966a73de3"
                  },
                  {
                    "reference": "urn:uuid:c3e774be-5662-4bf2-8ca8-352489753971"
                  },
                  {
                    "reference": "urn:uuid:64076080-e75a-4450-8d2e-45f77b916ca0"
                  },
                  {
                    "reference": "urn:uuid:cedcce4e-42d2-4c70-9893-29e7182b91e4"
                  },
                  {
                    "reference": "urn:uuid:21959251-ecbd-4426-a433-a1028359fa09"
                  },
                  {
                    "reference": "urn:uuid:7ea78e33-ba2e-482f-9677-27a241baa0cd"
                  },
                  {
                    "reference": "urn:uuid:17e1d085-51ab-43d8-9fb4-aae21123cd0c"
                  },
                  {
                    "reference": "urn:uuid:04d7c1d7-df69-40be-b5ed-998b77f93318"
                  },
                  {
                    "reference": "urn:uuid:56d6ff78-2d47-475f-a978-4dbd60d19e8a"
                  },
                  {
                    "reference": "urn:uuid:1070bc3b-bc0e-4220-8413-15d2c3647c6f"
                  }
                ],
                "text": {
                  "status": "generated",
                  "div": "<div xmlns=\"http://www.w3.org/1999/xhtml\"><h3>Chemistry</h3><table class=\"hl7__eu__lab__report\"><thead><tr><th>Test</th><th>30-JAN-2017</th><th>Reference&#xA0;Range</th><th>Unit</th></tr></thead><tbody><tr><td>Glucose [Mass/volume] in Serum or Plasma</td><td>93.6</td><td>70 - 99</td><td>mg/dL</td></tr><tr><td>Urea nitrogen [Mass/volume] in Serum or Plasma</td><td>19.9</td><td>7 - 50</td><td>mg/dL</td></tr><tr><td>Creatinine [Mass/volume] in Serum or Plasma</td><td><strong>1.9 H</strong></td><td>0.6 - 1.1</td><td>mg/dL</td></tr><tr><td>Calcium [Mass/volume] in Serum or Plasma</td><td>9.7</td><td>8.6 - 10.4</td><td>mg/dL</td></tr><tr><td>Sodium [Moles/volume] in Serum or Plasma</td><td>141.2</td><td>135 - 145</td><td>mmol/L</td></tr><tr><td>Potassium [Moles/volume] in Serum or Plasma</td><td>4.9</td><td>3.5 - 5.1</td><td>mmol/L</td></tr><tr><td>Chloride [Moles/volume] in Serum or Plasma</td><td>106.5</td><td>98 - 108</td><td>mmol/L</td></tr><tr><td>Carbon dioxide, total [Moles/volume] in Serum or Plasma</td><td>26.9</td><td>22 - 32</td><td>mmol/L</td></tr><tr><td>Ketones [Presence] in Urine by Test strip</td><td>Urine ketone test = +</td><td></td><td></td></tr><tr><td>Hemoglobin A1c/Hemoglobin.total in Blood</td><td><strong>3.3 L</strong></td><td>4 - 6.4</td><td>%</td></tr><tr><td>Glucose [Mass/volume] in Blood</td><td>93.6</td><td>70 - 100</td><td>mg/dL</td></tr><tr><td>Urea nitrogen [Mass/volume] in Blood</td><td>19.9</td><td>7 - 43</td><td>mg/dL</td></tr><tr><td>Creatinine [Mass/volume] in Blood</td><td><strong>1.4 H</strong></td><td>0.6 - 1.1</td><td>mg/dL</td></tr><tr><td>Calcium [Mass/volume] in Blood</td><td>9.7</td><td>8.5 - 10.5</td><td>mg/dL</td></tr><tr><td>Sodium [Moles/volume] in Blood</td><td>141.2</td><td>135 - 145</td><td>mmol/L</td></tr><tr><td>Potassium [Moles/volume] in Blood</td><td>4.9</td><td>3.5 - 5.1</td><td>mmol/L</td></tr><tr><td>Chloride [Moles/volume] in Blood</td><td>106.5</td><td>98 - 108</td><td>mmol/L</td></tr><tr><td>Carbon dioxide, total [Moles/volume] in Blood</td><td>26.9</td><td>22 - 29</td><td>mmol/L</td></tr></tbody></table></div>"
                },
                "title": "Chemistry"
              },
              {
                "code": {
                  "coding": [
                    {
                      "code": "$18729-4",
                      "system": "http://loinc.org",
                      "display": "Urinalysis studies (set)"
                    }
                  ],
                  "text": "Urinalysis"
                },
                "entry": [
                  {
                    "reference": "urn:uuid:ac35adf8-d389-4759-82dd-afc73a7fddc8"
                  },
                  {
                    "reference": "urn:uuid:d3826e42-ab25-4c3d-8cd2-8393ddde93a6"
                  },
                  {
                    "reference": "urn:uuid:a24cc3e2-80e3-494a-9206-9d5673a32ca0"
                  },
                  {
                    "reference": "urn:uuid:fd95860f-6a0d-4490-9a30-67e5ff928e45"
                  },
                  {
                    "reference": "urn:uuid:c607c6ea-e688-4a7b-9f36-c3f65131c272"
                  },
                  {
                    "reference": "urn:uuid:b2ee220c-df64-46c4-adec-e94903dbcdee"
                  },
                  {
                    "reference": "urn:uuid:c3a24975-ec0c-4b91-8a53-b930c093eb89"
                  },
                  {
                    "reference": "urn:uuid:7d825cef-76f3-4487-9ac5-cead6776cf3d"
                  },
                  {
                    "reference": "urn:uuid:3f8f4398-575b-4b68-a871-008c70c58d50"
                  },
                  {
                    "reference": "urn:uuid:10a9dd05-448a-40a8-ba46-cf6e89f25600"
                  },
                  {
                    "reference": "urn:uuid:72e0cb55-d431-4a92-9eb4-463d240cdb8d"
                  },
                  {
                    "reference": "urn:uuid:c66da259-10c3-4f46-b0da-a4416610e724"
                  }
                ],
                "text": {
                  "status": "generated",
                  "div": "<div xmlns=\"http://www.w3.org/1999/xhtml\"><h3>Urinalysis</h3><table class=\"hl7__eu__lab__report\"><thead><tr><th>Test</th><th>30-JAN-2017</th><th>Reference&#xA0;Range</th><th>Unit</th></tr></thead><tbody><tr><td>Glucose [Mass/volume] in Urine by Test strip</td><td><strong>1.7 H</strong></td><td>0.8 - 0</td><td>mg/dL</td></tr><tr><td>Glucose [Presence] in Urine by Test strip</td><td>++</td><td></td><td></td></tr><tr><td>Bilirubin.total [Mass/volume] in Urine by Test strip</td><td>0.4</td><td>0 - 1</td><td>mg/dL</td></tr><tr><td>Bilirubin.total [Presence] in Urine by Test strip</td><td>Finding of bilirubin in urine</td><td></td><td></td></tr><tr><td>Ketones [Mass/volume] in Urine by Test strip</td><td>2.6</td><td>0 - 4</td><td>mg/dL</td></tr><tr><td>Specific gravity of Urine by Test strip</td><td><strong>1.0 L</strong></td><td>1.005 - 1.03</td><td>{nominal}</td></tr><tr><td>pH of Urine by Test strip</td><td>5.1</td><td>4.6 - 7</td><td>pH</td></tr><tr><td>Protein [Mass/volume] in Urine by Test strip</td><td><strong>182.9 H</strong></td><td>0 - 14</td><td>mg/dL</td></tr><tr><td>Protein [Presence] in Urine by Test strip</td><td>Urine protein test = ++</td><td></td><td></td></tr><tr><td>Nitrite [Presence] in Urine by Test strip</td><td>Urine nitrite negative</td><td></td><td></td></tr><tr><td>Hemoglobin [Presence] in Urine by Test strip</td><td>Urine blood test = negative</td><td></td><td></td></tr><tr><td>Leukocyte esterase [Presence] in Urine by Test strip</td><td>Urine leukocyte test negative</td><td></td><td></td></tr></tbody></table></div>"
                },
                "title": "Urinalysis"
              },
              {
                "code": {
                  "coding": [
                    {
                      "code": "$LP7846-1",
                      "system": "http://loinc.org",
                      "display": "Specimen information"
                    }
                  ],
                  "text": "Specimen information"
                },
                "entry": [
                  {
                    "reference": "urn:uuid:c265af83-c385-4108-9f54-f893f7ea4f90"
                  },
                  {
                    "reference": "urn:uuid:2f1d66a6-dc8c-4883-a6e6-e4a0631ef13a"
                  },
                  {
                    "reference": "urn:uuid:08626041-3cdd-4dd2-bbff-ed1f0c425a4c"
                  },
                  {
                    "reference": "urn:uuid:8d351531-a3ff-4a4e-82a0-044e44f39c3b"
                  }
                ],
                "text": {
                  "status": "generated",
                  "div": "<div xmlns=\"http://www.w3.org/1999/xhtml\"><h3>Specimen information</h3><table class=\"hl7__eu__lab__report\"><thead><tr><th>Test</th><th>30-JAN-2017</th><th>Specimen</th><th></th></tr></thead><tbody><tr><td>Appearance of Urine</td><td>Cloudy urine</td><td>Urine</td><td></td></tr><tr><td>Odor of Urine</td><td>Urine smell ammoniacal</td><td>Urine</td><td></td></tr><tr><td>Clarity of Urine</td><td>Translucent</td><td>Urine</td><td></td></tr><tr><td>Color of Urine</td><td>Brown color</td><td>Urine</td><td></td></tr></tbody></table></div>"
                },
                "title": "Specimen information"
              }
            ],
            "title": "Laboratory Report"
          },
          {
            "text": {
              "status": "generated",
              "div": "<div xmlns=\"http://www.w3.org/1999/xhtml\"><h3>Annotation</h3><table class=\"hl7__eu__lab__report\"><tr><th>Conclusion and Recommendations based on this report and previous findings known to us</th></tr><tr><td>The patient shows elevated creatinine, suggesting impaired renal function. Urinalysis reveals significant proteinuria, glucosuria, ketonuria, low specific gravity, and abnormal urine appearance (cloudy, brown, ammoniacal), indicating possible nephropathy and/or tubular dysfunction. HbA1c is low, ruling out chronic hyperglycemia. No evidence of urinary infection. Recommend further nephrological evaluation and assessment for possible acute or chronic kidney disease.</td></tr></table></div>"
            },
            "code": {
              "coding": [
                {
                  "system": "http://loinc.org",
                  "code": "48767-8",
                  "display": "Annotation comment"
                }
              ]
            },
            "title": "Annotation comment"
          }
        ],
        "status": "final",
        "subject": {
          "reference": "urn:uuid:f30493ab-b917-4281-b906-bab69aa2b1ba",
          "display": "Meaghan Neary"
        },
        "date": "2017-01-30T23:11:04Z",
        "title": "Laboratory Report",
        "confidentiality": "N"
      }
    },
    {
      "fullUrl": "urn:uuid:a45bade4-8d54-4d53-88c3-56976d5851cc",
      "resource": {
        "resourceType": "DiagnosticReport",
        "id": "a45bade4-8d54-4d53-88c3-56976d5851cc",
        "meta": {
          "profile": [
            "http://hl7.eu/fhir/laboratory/StructureDefinition/DiagnosticReport-eu-lab"
          ]
        },
        "identifier": [
          {
            "assigner": {
              "display": "HL7 Europe"
            },
            "system": "urn:oid:2.16.840.1.113883.2.51.999",
            "value": "296917d1-d275-45c0-9887-8a90e9c469e0"
          }
        ],
        "extension": [
          {
            "url": "http://hl7.org/fhir/5.0/StructureDefinition/extension-DiagnosticReport.composition",
            "valueReference": {
              "reference": "urn:uuid:4f821700-fc3d-4b80-b959-3181b35788cb"
            }
          }
        ],
        "category": [
          {
            "coding": [
              {
                "code": "26436-6",
                "system": "http://loinc.org",
                "display": "Laboratory studies (set)"
              }
            ]
          }
        ],
        "specimen": [
          {
            "reference": "urn:uuid:c5242480-3e80-4dc4-8180-417482c5a589"
          },
          {
            "reference": "urn:uuid:2b1df718-1e79-4f9c-a893-e60e8368fa15"
          },
          {
            "reference": "urn:uuid:d3cada97-2880-419e-b71f-f86d5e1361ce"
          }
        ],
        "result": [
          {
            "reference": "urn:uuid:1ca2cb27-55a2-415c-99cb-ad81b896b506"
          },
          {
            "reference": "urn:uuid:fbd49c28-f65b-4646-9e2d-43cde31f12d4"
          },
          {
            "reference": "urn:uuid:4872a8ee-9179-40ac-bb6e-74ad2bfed77c"
          },
          {
            "reference": "urn:uuid:58f458b8-6c9b-478f-97a9-179acb76bb26"
          },
          {
            "reference": "urn:uuid:4fe884d6-2dbb-4b31-862b-83df9bb55cf6"
          },
          {
            "reference": "urn:uuid:d6bbadb2-b656-4c0e-b885-4c9b1dca7989"
          },
          {
            "reference": "urn:uuid:88d2e1a7-3c81-42cb-a455-fd30be7fa722"
          },
          {
            "reference": "urn:uuid:84f1bbf0-cae0-44b5-bfce-52ae44805dc8"
          },
          {
            "reference": "urn:uuid:c265af83-c385-4108-9f54-f893f7ea4f90"
          },
          {
            "reference": "urn:uuid:2f1d66a6-dc8c-4883-a6e6-e4a0631ef13a"
          },
          {
            "reference": "urn:uuid:08626041-3cdd-4dd2-bbff-ed1f0c425a4c"
          },
          {
            "reference": "urn:uuid:8d351531-a3ff-4a4e-82a0-044e44f39c3b"
          },
          {
            "reference": "urn:uuid:ac35adf8-d389-4759-82dd-afc73a7fddc8"
          },
          {
            "reference": "urn:uuid:d3826e42-ab25-4c3d-8cd2-8393ddde93a6"
          },
          {
            "reference": "urn:uuid:a24cc3e2-80e3-494a-9206-9d5673a32ca0"
          },
          {
            "reference": "urn:uuid:fd95860f-6a0d-4490-9a30-67e5ff928e45"
          },
          {
            "reference": "urn:uuid:c607c6ea-e688-4a7b-9f36-c3f65131c272"
          },
          {
            "reference": "urn:uuid:ec573b8d-000e-4845-a73b-e8e966a73de3"
          },
          {
            "reference": "urn:uuid:b2ee220c-df64-46c4-adec-e94903dbcdee"
          },
          {
            "reference": "urn:uuid:c3a24975-ec0c-4b91-8a53-b930c093eb89"
          },
          {
            "reference": "urn:uuid:7d825cef-76f3-4487-9ac5-cead6776cf3d"
          },
          {
            "reference": "urn:uuid:3f8f4398-575b-4b68-a871-008c70c58d50"
          },
          {
            "reference": "urn:uuid:10a9dd05-448a-40a8-ba46-cf6e89f25600"
          },
          {
            "reference": "urn:uuid:72e0cb55-d431-4a92-9eb4-463d240cdb8d"
          },
          {
            "reference": "urn:uuid:c66da259-10c3-4f46-b0da-a4416610e724"
          },
          {
            "reference": "urn:uuid:c3e774be-5662-4bf2-8ca8-352489753971"
          },
          {
            "reference": "urn:uuid:64076080-e75a-4450-8d2e-45f77b916ca0"
          },
          {
            "reference": "urn:uuid:cedcce4e-42d2-4c70-9893-29e7182b91e4"
          },
          {
            "reference": "urn:uuid:21959251-ecbd-4426-a433-a1028359fa09"
          },
          {
            "reference": "urn:uuid:7ea78e33-ba2e-482f-9677-27a241baa0cd"
          },
          {
            "reference": "urn:uuid:17e1d085-51ab-43d8-9fb4-aae21123cd0c"
          },
          {
            "reference": "urn:uuid:04d7c1d7-df69-40be-b5ed-998b77f93318"
          },
          {
            "reference": "urn:uuid:56d6ff78-2d47-475f-a978-4dbd60d19e8a"
          },
          {
            "reference": "urn:uuid:1070bc3b-bc0e-4220-8413-15d2c3647c6f"
          }
        ],
        "status": "registered",
        "code": {
          "coding": [
            {
              "code": "11502-2",
              "system": "http://loinc.org",
              "display": "Laboratory report"
            }
          ]
        },
        "subject": {
          "reference": "urn:uuid:f30493ab-b917-4281-b906-bab69aa2b1ba",
          "display": "Meaghan Neary"
        }
      }
    },
    {
      "fullUrl": "urn:uuid:f30493ab-b917-4281-b906-bab69aa2b1ba",
      "resource": {
        "resourceType": "Patient",
        "id": "f30493ab-b917-4281-b906-bab69aa2b1ba",
        "meta": {
          "security": [
            {
              "system": "http://terminology.hl7.org/CodeSystem/v3-ActReason",
              "code": "HTEST"
            },
            {
              "system": "http://terminology.hl7.org/CodeSystem/v3-ActReason",
              "code": "TRAIN"
            }
          ],
          "tag": [
            {
              "system": "https://synderai.net/fhir/CodeSystem/tags",
              "code": "synthetic",
              "display": "SYNDERAI Synthetic data"
            }
          ],
          "profile": [
            "http://hl7.eu/fhir/base/StructureDefinition/patient-eu-core"
          ]
        },
        "identifier": [
          {
            "type": {
              "coding": [
                {
                  "code": "PT",
                  "system": "http://terminology.hl7.org/CodeSystem/v2-0203"
                }
              ]
            },
            "system": "http://ec.europa.eu/identifier/eci",
            "value": "1586-567257-8"
          },
          {
            "type": {
              "coding": [
                {
                  "code": "MR",
                  "system": "http://terminology.hl7.org/CodeSystem/v2-0203"
                }
              ]
            },
            "system": "http://local.setting.eu/identifier",
            "value": "443e6379-f231-b364-3ccb-644740a1aa2a"
          }
        ],
        "name": [
          {
            "family": "Neary"
          },
          {
            "given": [
              "Meaghan"
            ]
          },
          {
            "text": "Meaghan Neary"
          }
        ],
        "address": [
          {
            "line": [
              "64 Linskey Street"
            ],
            "use": "home",
            "type": "physical",
            "postalCode": "D02",
            "city": "Dublin",
            "country": "Ireland"
          }
        ],
        "telecom": [
          {
            "system": "phone",
            "value": "001-967-573-0911x465"
          }
        ],
        "extension": [
          {
            "url": "http://hl7.org/fhir/StructureDefinition/patient-nationality",
            "valueCodeableConcept": {
              "coding": [
                {
                  "code": "IE",
                  "system": "http://hl7.org/fhir/ValueSet/country"
                }
              ]
            }
          }
        ],
        "text": {
          "status": "generated",
          "div": "<div xmlns=\"http://www.w3.org/1999/xhtml\"><table class=\"hl7__ips\"><tr><td>Meaghan Neary</td><td>female</td><td>19-Dec-1960</td></tr></table></div>"
        },
        "gender": "female",
        "birthDate": "1960-12-19"
      }
    },
    {
      "fullUrl": "urn:uuid:783a94c7-e82f-497b-ba03-6aa331fc6282",
      "resource": {
        "resourceType": "ServiceRequest",
        "id": "783a94c7-e82f-497b-ba03-6aa331fc6282",
        "meta": {
          "profile": [
            "http://hl7.eu/fhir/laboratory/StructureDefinition/ServiceRequest-eu-lab"
          ]
        },
        "identifier": [
          {
            "system": "http://example.org",
            "value": "c2e94a3a-ee20-4214-a387-8ace3913dc58"
          }
        ],
        "specimen": [
          {
            "reference": "urn:uuid:c5242480-3e80-4dc4-8180-417482c5a589"
          },
          {
            "reference": "urn:uuid:2b1df718-1e79-4f9c-a893-e60e8368fa15"
          },
          {
            "reference": "urn:uuid:d3cada97-2880-419e-b71f-f86d5e1361ce"
          }
        ],
        "reasonCode": [
          {
            "coding": [
              {
                "code": "55822004",
                "system": "http://snomed.info/sct",
                "display": "Hyperlipidemia"
              }
            ]
          },
          {
            "coding": [
              {
                "code": "433144002",
                "system": "http://snomed.info/sct",
                "display": "Chronic kidney disease stage 3"
              }
            ]
          },
          {
            "coding": [
              {
                "code": "157141000119108",
                "system": "http://snomed.info/sct",
                "display": "Proteinuria due to type 2 diabetes mellitus"
              }
            ]
          },
          {
            "coding": [
              {
                "code": "431856006",
                "system": "http://snomed.info/sct",
                "display": "Chronic kidney disease stage 2"
              }
            ]
          },
          {
            "coding": [
              {
                "code": "90781000119102",
                "system": "http://snomed.info/sct",
                "display": "Microalbuminuria due to type 2 diabetes mellitus"
              }
            ]
          },
          {
            "coding": [
              {
                "code": "127013003",
                "system": "http://snomed.info/sct",
                "display": "Disorder of kidney due to diabetes mellitus"
              }
            ]
          },
          {
            "coding": [
              {
                "code": "431855005",
                "system": "http://snomed.info/sct",
                "display": "Chronic kidney disease stage 1"
              }
            ]
          },
          {
            "coding": [
              {
                "code": "237602007",
                "system": "http://snomed.info/sct",
                "display": "Metabolic syndrome X"
              }
            ]
          },
          {
            "coding": [
              {
                "code": "271737000",
                "system": "http://snomed.info/sct",
                "display": "Anemia"
              }
            ]
          },
          {
            "coding": [
              {
                "code": "15777000",
                "system": "http://snomed.info/sct",
                "display": "Prediabetes"
              }
            ]
          },
          {
            "coding": [
              {
                "code": "59621000",
                "system": "http://snomed.info/sct",
                "display": "Essential hypertension"
              }
            ]
          }
        ],
        "status": "active",
        "intent": "order",
        "code": {
          "coding": [
            {
              "code": "108252007",
              "system": "http://snomed.info/sct",
              "display": "Laboratory procedure"
            }
          ]
        },
        "subject": {
          "reference": "urn:uuid:f30493ab-b917-4281-b906-bab69aa2b1ba",
          "display": "Meaghan Neary"
        },
        "requester": {
          "reference": "urn:uuid:40ca4945-e794-4ec8-a91d-479312dee32d"
        }
      }
    },
    {
      "fullUrl": "urn:uuid:40ca4945-e794-4ec8-a91d-479312dee32d",
      "resource": {
        "resourceType": "PractitionerRole",
        "id": "40ca4945-e794-4ec8-a91d-479312dee32d",
        "meta": {
          "profile": [
            "http://hl7.eu/fhir/base/StructureDefinition/practitionerRole-eu"
          ]
        },
        "text": {
          "status": "generated",
          "div": "<div xmlns=\"http://www.w3.org/1999/xhtml\">Provider Role Id: 40ca4945-e794-4ec8-a91d-479312dee32d</div>"
        },
        "organization": {
          "reference": "urn:uuid:f5362de9-b3b8-41f7-9b1c-fcd578ed4673"
        }
      }
    },
    {
      "fullUrl": "urn:uuid:f5362de9-b3b8-41f7-9b1c-fcd578ed4673",
      "resource": {
        "resourceType": "Organization",
        "id": "f5362de9-b3b8-41f7-9b1c-fcd578ed4673",
        "meta": {
          "profile": [
            "http://hl7.eu/fhir/base/StructureDefinition/organization-eu"
          ]
        },
        "identifier": [
          {
            "assigner": {
              "display": "HL7 Europe"
            },
            "system": "urn:oid:2.16.840.1.113883.2.51.999",
            "value": "43b144ff-7fe2-4c5d-9d37-9321bd3c4eb4"
          }
        ],
        "address": [
          {
            "line": [
              "Parnell Square West nan"
            ],
            "city": "Dublin",
            "postalCode": "D01",
            "country": "Ireland"
          }
        ],
        "text": {
          "status": "generated",
          "div": "<div xmlns=\"http://www.w3.org/1999/xhtml\">Provider Organization: Rotunda Hospital</div>"
        },
        "name": "Rotunda Hospital"
      }
    },
    {
      "fullUrl": "urn:uuid:c5242480-3e80-4dc4-8180-417482c5a589",
      "resource": {
        "resourceType": "Specimen",
        "id": "c5242480-3e80-4dc4-8180-417482c5a589",
        "meta": {
          "profile": [
            "http://hl7.eu/fhir/laboratory/StructureDefinition/Specimen-eu-lab"
          ]
        },
        "collection": {
          "collectedDateTime": "2017-01-30"
        },
        "text": {
          "status": "generated",
          "div": "<div xmlns=\"http://www.w3.org/1999/xhtml\"><table class=\"hl7__eu__lab__report\"><tr><th>Specimen</th><th>Collection Date</th></tr><tr><td>Acellular blood (serum or plasma) specimen</td><td><span class=\"nb\">30-Jan-2017</span></td></tr></table></div>"
        },
        "type": {
          "coding": [
            {
              "code": "122592007",
              "system": "http://snomed.info/sct",
              "display": "Acellular blood (serum or plasma) specimen"
            }
          ]
        }
      }
    },
    {
      "fullUrl": "urn:uuid:2b1df718-1e79-4f9c-a893-e60e8368fa15",
      "resource": {
        "resourceType": "Specimen",
        "id": "2b1df718-1e79-4f9c-a893-e60e8368fa15",
        "meta": {
          "profile": [
            "http://hl7.eu/fhir/laboratory/StructureDefinition/Specimen-eu-lab"
          ]
        },
        "collection": {
          "collectedDateTime": "2017-01-30"
        },
        "text": {
          "status": "generated",
          "div": "<div xmlns=\"http://www.w3.org/1999/xhtml\"><table class=\"hl7__eu__lab__report\"><tr><th>Specimen</th><th>Collection Date</th></tr><tr><td>Urine specimen</td><td><span class=\"nb\">30-Jan-2017</span></td></tr></table></div>"
        },
        "type": {
          "coding": [
            {
              "code": "122575003",
              "system": "http://snomed.info/sct",
              "display": "Urine specimen"
            }
          ]
        }
      }
    },
    {
      "fullUrl": "urn:uuid:d3cada97-2880-419e-b71f-f86d5e1361ce",
      "resource": {
        "resourceType": "Specimen",
        "id": "d3cada97-2880-419e-b71f-f86d5e1361ce",
        "meta": {
          "profile": [
            "http://hl7.eu/fhir/laboratory/StructureDefinition/Specimen-eu-lab"
          ]
        },
        "collection": {
          "collectedDateTime": "2017-01-30"
        },
        "text": {
          "status": "generated",
          "div": "<div xmlns=\"http://www.w3.org/1999/xhtml\"><table class=\"hl7__eu__lab__report\"><tr><th>Specimen</th><th>Collection Date</th></tr><tr><td>Whole blood specimen (specimen)</td><td><span class=\"nb\">30-Jan-2017</span></td></tr></table></div>"
        },
        "type": {
          "coding": [
            {
              "code": "258580003",
              "system": "http://snomed.info/sct",
              "display": "Whole blood specimen (specimen)"
            }
          ]
        }
      }
    },
    {
      "fullUrl": "urn:uuid:1ca2cb27-55a2-415c-99cb-ad81b896b506",
      "resource": {
        "resourceType": "Observation",
        "id": "1ca2cb27-55a2-415c-99cb-ad81b896b506",
        "meta": {
          "profile": [
            "http://hl7.eu/fhir/laboratory/StructureDefinition/Observation-resultslab-eu-lab"
          ]
        },
        "performer": [
          {
            "display": "The Central European Lab"
          }
        ],
        "category": [
          {
            "coding": [
              {
                "system": "http://terminology.hl7.org/CodeSystem/observation-category",
                "code": "laboratory"
              }
            ]
          }
        ],
        "code": {
          "coding": [
            {
              "code": "2345-7",
              "system": "http://loinc.org",
              "display": "Glucose [Mass/volume] in Serum or Plasma"
            }
          ],
          "text": "Glucose [Mass/volume] in Serum or Plasma"
        },
        "valueQuantity": {
          "system": "http://unitsofmeasure.org",
          "value": 93.6,
          "unit": "mg/dL",
          "code": "mg/dL"
        },
        "referenceRange": [
          {
            "low": {
              "value": 70,
              "code": "mg/dL",
              "system": "http://unitsofmeasure.org"
            }
          },
          {
            "high": {
              "value": 99,
              "code": "mg/dL",
              "system": "http://unitsofmeasure.org"
            }
          }
        ],
        "text": {
          "status": "generated",
          "div": "<div xmlns=\"http://www.w3.org/1999/xhtml\"><table class=\"hl7__eu__lab__report\"><tr><th>Test</th><th>30-Jan-2017</th><th>Reference&#xA0;Range</th><th>Unit</th></tr><tr><td>Glucose [Mass/volume] in Serum or Plasma</td><td>93.6</td><td>70 - 99</td><td></td><td>mg/dL</td></tr></table></div>"
        },
        "status": "final",
        "subject": {
          "reference": "urn:uuid:f30493ab-b917-4281-b906-bab69aa2b1ba",
          "display": "Meaghan Neary"
        },
        "effectiveDateTime": "2017-01-30T22:11:04Z",
        "specimen": {
          "reference": "urn:uuid:c5242480-3e80-4dc4-8180-417482c5a589"
        }
      }
    },
    {
      "fullUrl": "urn:uuid:fbd49c28-f65b-4646-9e2d-43cde31f12d4",
      "resource": {
        "resourceType": "Observation",
        "id": "fbd49c28-f65b-4646-9e2d-43cde31f12d4",
        "meta": {
          "profile": [
            "http://hl7.eu/fhir/laboratory/StructureDefinition/Observation-resultslab-eu-lab"
          ]
        },
        "performer": [
          {
            "display": "The Central European Lab"
          }
        ],
        "category": [
          {
            "coding": [
              {
                "system": "http://terminology.hl7.org/CodeSystem/observation-category",
                "code": "laboratory"
              }
            ]
          }
        ],
        "code": {
          "coding": [
            {
              "code": "3094-0",
              "system": "http://loinc.org",
              "display": "Urea nitrogen [Mass/volume] in Serum or Plasma"
            }
          ],
          "text": "Urea nitrogen [Mass/volume] in Serum or Plasma"
        },
        "valueQuantity": {
          "system": "http://unitsofmeasure.org",
          "value": 19.9,
          "unit": "mg/dL",
          "code": "mg/dL"
        },
        "referenceRange": [
          {
            "low": {
              "value": 7,
              "code": "mg/dL",
              "system": "http://unitsofmeasure.org"
            }
          },
          {
            "high": {
              "value": 50,
              "code": "mg/dL",
              "system": "http://unitsofmeasure.org"
            }
          }
        ],
        "text": {
          "status": "generated",
          "div": "<div xmlns=\"http://www.w3.org/1999/xhtml\"><table class=\"hl7__eu__lab__report\"><tr><th>Test</th><th>30-Jan-2017</th><th>Reference&#xA0;Range</th><th>Unit</th></tr><tr><td>Urea nitrogen [Mass/volume] in Serum or Plasma</td><td>19.9</td><td>7 - 50</td><td></td><td>mg/dL</td></tr></table></div>"
        },
        "status": "final",
        "subject": {
          "reference": "urn:uuid:f30493ab-b917-4281-b906-bab69aa2b1ba",
          "display": "Meaghan Neary"
        },
        "effectiveDateTime": "2017-01-30T22:11:04Z",
        "specimen": {
          "reference": "urn:uuid:c5242480-3e80-4dc4-8180-417482c5a589"
        }
      }
    },
    {
      "fullUrl": "urn:uuid:4872a8ee-9179-40ac-bb6e-74ad2bfed77c",
      "resource": {
        "resourceType": "Observation",
        "id": "4872a8ee-9179-40ac-bb6e-74ad2bfed77c",
        "meta": {
          "profile": [
            "http://hl7.eu/fhir/laboratory/StructureDefinition/Observation-resultslab-eu-lab"
          ]
        },
        "performer": [
          {
            "display": "The Central European Lab"
          }
        ],
        "category": [
          {
            "coding": [
              {
                "system": "http://terminology.hl7.org/CodeSystem/observation-category",
                "code": "laboratory"
              }
            ]
          }
        ],
        "code": {
          "coding": [
            {
              "code": "2160-0",
              "system": "http://loinc.org",
              "display": "Creatinine [Mass/volume] in Serum or Plasma"
            }
          ],
          "text": "Creatinine [Mass/volume] in Serum or Plasma"
        },
        "valueQuantity": {
          "system": "http://unitsofmeasure.org",
          "value": 1.9,
          "unit": "mg/dL",
          "code": "mg/dL"
        },
        "referenceRange": [
          {
            "low": {
              "value": 0.6,
              "code": "mg/dL",
              "system": "http://unitsofmeasure.org"
            }
          },
          {
            "high": {
              "value": 1.1,
              "code": "mg/dL",
              "system": "http://unitsofmeasure.org"
            }
          }
        ],
        "interpretation": [
          {
            "coding": [
              {
                "code": "H",
                "system": "http://terminology.hl7.org/CodeSystem/v3-ObservationInterpretation",
                "display": "High"
              }
            ]
          }
        ],
        "text": {
          "status": "generated",
          "div": "<div xmlns=\"http://www.w3.org/1999/xhtml\"><table class=\"hl7__eu__lab__report\"><tr><th>Test</th><th>30-Jan-2017</th><th>Reference&#xA0;Range</th><th>Unit</th></tr><tr><td>Creatinine [Mass/volume] in Serum or Plasma</td><td>1.9</td><td>0.6 - 1.1</td><td>H</td><td>mg/dL</td></tr></table></div>"
        },
        "status": "final",
        "subject": {
          "reference": "urn:uuid:f30493ab-b917-4281-b906-bab69aa2b1ba",
          "display": "Meaghan Neary"
        },
        "effectiveDateTime": "2017-01-30T22:11:04Z",
        "specimen": {
          "reference": "urn:uuid:c5242480-3e80-4dc4-8180-417482c5a589"
        }
      }
    },
    {
      "fullUrl": "urn:uuid:58f458b8-6c9b-478f-97a9-179acb76bb26",
      "resource": {
        "resourceType": "Observation",
        "id": "58f458b8-6c9b-478f-97a9-179acb76bb26",
        "meta": {
          "profile": [
            "http://hl7.eu/fhir/laboratory/StructureDefinition/Observation-resultslab-eu-lab"
          ]
        },
        "performer": [
          {
            "display": "The Central European Lab"
          }
        ],
        "category": [
          {
            "coding": [
              {
                "system": "http://terminology.hl7.org/CodeSystem/observation-category",
                "code": "laboratory"
              }
            ]
          }
        ],
        "code": {
          "coding": [
            {
              "code": "17861-6",
              "system": "http://loinc.org",
              "display": "Calcium [Mass/volume] in Serum or Plasma"
            }
          ],
          "text": "Calcium [Mass/volume] in Serum or Plasma"
        },
        "valueQuantity": {
          "system": "http://unitsofmeasure.org",
          "value": 9.7,
          "unit": "mg/dL",
          "code": "mg/dL"
        },
        "referenceRange": [
          {
            "low": {
              "value": 8.6,
              "code": "mg/dL",
              "system": "http://unitsofmeasure.org"
            }
          },
          {
            "high": {
              "value": 10.4,
              "code": "mg/dL",
              "system": "http://unitsofmeasure.org"
            }
          }
        ],
        "text": {
          "status": "generated",
          "div": "<div xmlns=\"http://www.w3.org/1999/xhtml\"><table class=\"hl7__eu__lab__report\"><tr><th>Test</th><th>30-Jan-2017</th><th>Reference&#xA0;Range</th><th>Unit</th></tr><tr><td>Calcium [Mass/volume] in Serum or Plasma</td><td>9.7</td><td>8.6 - 10.4</td><td></td><td>mg/dL</td></tr></table></div>"
        },
        "status": "final",
        "subject": {
          "reference": "urn:uuid:f30493ab-b917-4281-b906-bab69aa2b1ba",
          "display": "Meaghan Neary"
        },
        "effectiveDateTime": "2017-01-30T22:11:04Z",
        "specimen": {
          "reference": "urn:uuid:c5242480-3e80-4dc4-8180-417482c5a589"
        }
      }
    },
    {
      "fullUrl": "urn:uuid:4fe884d6-2dbb-4b31-862b-83df9bb55cf6",
      "resource": {
        "resourceType": "Observation",
        "id": "4fe884d6-2dbb-4b31-862b-83df9bb55cf6",
        "meta": {
          "profile": [
            "http://hl7.eu/fhir/laboratory/StructureDefinition/Observation-resultslab-eu-lab"
          ]
        },
        "performer": [
          {
            "display": "The Central European Lab"
          }
        ],
        "category": [
          {
            "coding": [
              {
                "system": "http://terminology.hl7.org/CodeSystem/observation-category",
                "code": "laboratory"
              }
            ]
          }
        ],
        "code": {
          "coding": [
            {
              "code": "2951-2",
              "system": "http://loinc.org",
              "display": "Sodium [Moles/volume] in Serum or Plasma"
            }
          ],
          "text": "Sodium [Moles/volume] in Serum or Plasma"
        },
        "valueQuantity": {
          "system": "http://unitsofmeasure.org",
          "value": 141.2,
          "unit": "mmol/L",
          "code": "mmol/L"
        },
        "referenceRange": [
          {
            "low": {
              "value": 135,
              "code": "mmol/L",
              "system": "http://unitsofmeasure.org"
            }
          },
          {
            "high": {
              "value": 145,
              "code": "mmol/L",
              "system": "http://unitsofmeasure.org"
            }
          }
        ],
        "text": {
          "status": "generated",
          "div": "<div xmlns=\"http://www.w3.org/1999/xhtml\"><table class=\"hl7__eu__lab__report\"><tr><th>Test</th><th>30-Jan-2017</th><th>Reference&#xA0;Range</th><th>Unit</th></tr><tr><td>Sodium [Moles/volume] in Serum or Plasma</td><td>141.2</td><td>135 - 145</td><td></td><td>mmol/L</td></tr></table></div>"
        },
        "status": "final",
        "subject": {
          "reference": "urn:uuid:f30493ab-b917-4281-b906-bab69aa2b1ba",
          "display": "Meaghan Neary"
        },
        "effectiveDateTime": "2017-01-30T22:11:04Z",
        "specimen": {
          "reference": "urn:uuid:c5242480-3e80-4dc4-8180-417482c5a589"
        }
      }
    },
    {
      "fullUrl": "urn:uuid:d6bbadb2-b656-4c0e-b885-4c9b1dca7989",
      "resource": {
        "resourceType": "Observation",
        "id": "d6bbadb2-b656-4c0e-b885-4c9b1dca7989",
        "meta": {
          "profile": [
            "http://hl7.eu/fhir/laboratory/StructureDefinition/Observation-resultslab-eu-lab"
          ]
        },
        "performer": [
          {
            "display": "The Central European Lab"
          }
        ],
        "category": [
          {
            "coding": [
              {
                "system": "http://terminology.hl7.org/CodeSystem/observation-category",
                "code": "laboratory"
              }
            ]
          }
        ],
        "code": {
          "coding": [
            {
              "code": "2823-3",
              "system": "http://loinc.org",
              "display": "Potassium [Moles/volume] in Serum or Plasma"
            }
          ],
          "text": "Potassium [Moles/volume] in Serum or Plasma"
        },
        "valueQuantity": {
          "system": "http://unitsofmeasure.org",
          "value": 4.9,
          "unit": "mmol/L",
          "code": "mmol/L"
        },
        "referenceRange": [
          {
            "low": {
              "value": 3.5,
              "code": "mmol/L",
              "system": "http://unitsofmeasure.org"
            }
          },
          {
            "high": {
              "value": 5.1,
              "code": "mmol/L",
              "system": "http://unitsofmeasure.org"
            }
          }
        ],
        "text": {
          "status": "generated",
          "div": "<div xmlns=\"http://www.w3.org/1999/xhtml\"><table class=\"hl7__eu__lab__report\"><tr><th>Test</th><th>30-Jan-2017</th><th>Reference&#xA0;Range</th><th>Unit</th></tr><tr><td>Potassium [Moles/volume] in Serum or Plasma</td><td>4.9</td><td>3.5 - 5.1</td><td></td><td>mmol/L</td></tr></table></div>"
        },
        "status": "final",
        "subject": {
          "reference": "urn:uuid:f30493ab-b917-4281-b906-bab69aa2b1ba",
          "display": "Meaghan Neary"
        },
        "effectiveDateTime": "2017-01-30T22:11:04Z",
        "specimen": {
          "reference": "urn:uuid:c5242480-3e80-4dc4-8180-417482c5a589"
        }
      }
    },
    {
      "fullUrl": "urn:uuid:88d2e1a7-3c81-42cb-a455-fd30be7fa722",
      "resource": {
        "resourceType": "Observation",
        "id": "88d2e1a7-3c81-42cb-a455-fd30be7fa722",
        "meta": {
          "profile": [
            "http://hl7.eu/fhir/laboratory/StructureDefinition/Observation-resultslab-eu-lab"
          ]
        },
        "performer": [
          {
            "display": "The Central European Lab"
          }
        ],
        "category": [
          {
            "coding": [
              {
                "system": "http://terminology.hl7.org/CodeSystem/observation-category",
                "code": "laboratory"
              }
            ]
          }
        ],
        "code": {
          "coding": [
            {
              "code": "2075-0",
              "system": "http://loinc.org",
              "display": "Chloride [Moles/volume] in Serum or Plasma"
            }
          ],
          "text": "Chloride [Moles/volume] in Serum or Plasma"
        },
        "valueQuantity": {
          "system": "http://unitsofmeasure.org",
          "value": 106.5,
          "unit": "mmol/L",
          "code": "mmol/L"
        },
        "referenceRange": [
          {
            "low": {
              "value": 98,
              "code": "mmol/L",
              "system": "http://unitsofmeasure.org"
            }
          },
          {
            "high": {
              "value": 108,
              "code": "mmol/L",
              "system": "http://unitsofmeasure.org"
            }
          }
        ],
        "text": {
          "status": "generated",
          "div": "<div xmlns=\"http://www.w3.org/1999/xhtml\"><table class=\"hl7__eu__lab__report\"><tr><th>Test</th><th>30-Jan-2017</th><th>Reference&#xA0;Range</th><th>Unit</th></tr><tr><td>Chloride [Moles/volume] in Serum or Plasma</td><td>106.5</td><td>98 - 108</td><td></td><td>mmol/L</td></tr></table></div>"
        },
        "status": "final",
        "subject": {
          "reference": "urn:uuid:f30493ab-b917-4281-b906-bab69aa2b1ba",
          "display": "Meaghan Neary"
        },
        "effectiveDateTime": "2017-01-30T22:11:04Z",
        "specimen": {
          "reference": "urn:uuid:c5242480-3e80-4dc4-8180-417482c5a589"
        }
      }
    },
    {
      "fullUrl": "urn:uuid:84f1bbf0-cae0-44b5-bfce-52ae44805dc8",
      "resource": {
        "resourceType": "Observation",
        "id": "84f1bbf0-cae0-44b5-bfce-52ae44805dc8",
        "meta": {
          "profile": [
            "http://hl7.eu/fhir/laboratory/StructureDefinition/Observation-resultslab-eu-lab"
          ]
        },
        "performer": [
          {
            "display": "The Central European Lab"
          }
        ],
        "category": [
          {
            "coding": [
              {
                "system": "http://terminology.hl7.org/CodeSystem/observation-category",
                "code": "laboratory"
              }
            ]
          }
        ],
        "code": {
          "coding": [
            {
              "code": "2028-9",
              "system": "http://loinc.org",
              "display": "Carbon dioxide, total [Moles/volume] in Serum or Plasma"
            }
          ],
          "text": "Carbon dioxide, total [Moles/volume] in Serum or Plasma"
        },
        "valueQuantity": {
          "system": "http://unitsofmeasure.org",
          "value": 26.9,
          "unit": "mmol/L",
          "code": "mmol/L"
        },
        "referenceRange": [
          {
            "low": {
              "value": 22,
              "code": "mmol/L",
              "system": "http://unitsofmeasure.org"
            }
          },
          {
            "high": {
              "value": 32,
              "code": "mmol/L",
              "system": "http://unitsofmeasure.org"
            }
          }
        ],
        "text": {
          "status": "generated",
          "div": "<div xmlns=\"http://www.w3.org/1999/xhtml\"><table class=\"hl7__eu__lab__report\"><tr><th>Test</th><th>30-Jan-2017</th><th>Reference&#xA0;Range</th><th>Unit</th></tr><tr><td>Carbon dioxide, total [Moles/volume] in Serum or Plasma</td><td>26.9</td><td>22 - 32</td><td></td><td>mmol/L</td></tr></table></div>"
        },
        "status": "final",
        "subject": {
          "reference": "urn:uuid:f30493ab-b917-4281-b906-bab69aa2b1ba",
          "display": "Meaghan Neary"
        },
        "effectiveDateTime": "2017-01-30T22:11:04Z",
        "specimen": {
          "reference": "urn:uuid:c5242480-3e80-4dc4-8180-417482c5a589"
        }
      }
    },
    {
      "fullUrl": "urn:uuid:c265af83-c385-4108-9f54-f893f7ea4f90",
      "resource": {
        "resourceType": "Observation",
        "id": "c265af83-c385-4108-9f54-f893f7ea4f90",
        "meta": {
          "profile": [
            "http://hl7.eu/fhir/laboratory/StructureDefinition/Observation-resultslab-eu-lab"
          ]
        },
        "performer": [
          {
            "display": "The Central European Lab"
          }
        ],
        "category": [
          {
            "coding": [
              {
                "system": "http://terminology.hl7.org/CodeSystem/observation-category",
                "code": "laboratory"
              }
            ]
          }
        ],
        "code": {
          "coding": [
            {
              "code": "5767-9",
              "system": "http://loinc.org",
              "display": "Appearance of Urine"
            }
          ],
          "text": "Appearance of Urine"
        },
        "text": {
          "status": "generated",
          "div": "<div xmlns=\"http://www.w3.org/1999/xhtml\"><table class=\"hl7__eu__lab__report\"><tr><th>Test</th><th>30-Jan-2017</th><th>Reference&#xA0;Range</th><th>Unit</th></tr><tr><td>Appearance of Urine</td></tr></table></div>"
        },
        "status": "final",
        "subject": {
          "reference": "urn:uuid:f30493ab-b917-4281-b906-bab69aa2b1ba",
          "display": "Meaghan Neary"
        },
        "effectiveDateTime": "2017-01-30T22:11:04Z",
        "specimen": {
          "reference": "urn:uuid:2b1df718-1e79-4f9c-a893-e60e8368fa15"
        }
      }
    },
    {
      "fullUrl": "urn:uuid:2f1d66a6-dc8c-4883-a6e6-e4a0631ef13a",
      "resource": {
        "resourceType": "Observation",
        "id": "2f1d66a6-dc8c-4883-a6e6-e4a0631ef13a",
        "meta": {
          "profile": [
            "http://hl7.eu/fhir/laboratory/StructureDefinition/Observation-resultslab-eu-lab"
          ]
        },
        "performer": [
          {
            "display": "The Central European Lab"
          }
        ],
        "category": [
          {
            "coding": [
              {
                "system": "http://terminology.hl7.org/CodeSystem/observation-category",
                "code": "laboratory"
              }
            ]
          }
        ],
        "code": {
          "coding": [
            {
              "code": "34533-0",
              "system": "http://loinc.org",
              "display": "Odor of Urine"
            }
          ],
          "text": "Odor of Urine"
        },
        "text": {
          "status": "generated",
          "div": "<div xmlns=\"http://www.w3.org/1999/xhtml\"><table class=\"hl7__eu__lab__report\"><tr><th>Test</th><th>30-Jan-2017</th><th>Reference&#xA0;Range</th><th>Unit</th></tr><tr><td>Odor of Urine</td></tr></table></div>"
        },
        "status": "final",
        "subject": {
          "reference": "urn:uuid:f30493ab-b917-4281-b906-bab69aa2b1ba",
          "display": "Meaghan Neary"
        },
        "effectiveDateTime": "2017-01-30T22:11:04Z",
        "specimen": {
          "reference": "urn:uuid:2b1df718-1e79-4f9c-a893-e60e8368fa15"
        }
      }
    },
    {
      "fullUrl": "urn:uuid:08626041-3cdd-4dd2-bbff-ed1f0c425a4c",
      "resource": {
        "resourceType": "Observation",
        "id": "08626041-3cdd-4dd2-bbff-ed1f0c425a4c",
        "meta": {
          "profile": [
            "http://hl7.eu/fhir/laboratory/StructureDefinition/Observation-resultslab-eu-lab"
          ]
        },
        "performer": [
          {
            "display": "The Central European Lab"
          }
        ],
        "category": [
          {
            "coding": [
              {
                "system": "http://terminology.hl7.org/CodeSystem/observation-category",
                "code": "laboratory"
              }
            ]
          }
        ],
        "code": {
          "coding": [
            {
              "code": "32167-9",
              "system": "http://loinc.org",
              "display": "Clarity of Urine"
            }
          ],
          "text": "Clarity of Urine"
        },
        "text": {
          "status": "generated",
          "div": "<div xmlns=\"http://www.w3.org/1999/xhtml\"><table class=\"hl7__eu__lab__report\"><tr><th>Test</th><th>30-Jan-2017</th><th>Reference&#xA0;Range</th><th>Unit</th></tr><tr><td>Clarity of Urine</td></tr></table></div>"
        },
        "status": "final",
        "subject": {
          "reference": "urn:uuid:f30493ab-b917-4281-b906-bab69aa2b1ba",
          "display": "Meaghan Neary"
        },
        "effectiveDateTime": "2017-01-30T22:11:04Z",
        "specimen": {
          "reference": "urn:uuid:2b1df718-1e79-4f9c-a893-e60e8368fa15"
        }
      }
    },
    {
      "fullUrl": "urn:uuid:8d351531-a3ff-4a4e-82a0-044e44f39c3b",
      "resource": {
        "resourceType": "Observation",
        "id": "8d351531-a3ff-4a4e-82a0-044e44f39c3b",
        "meta": {
          "profile": [
            "http://hl7.eu/fhir/laboratory/StructureDefinition/Observation-resultslab-eu-lab"
          ]
        },
        "performer": [
          {
            "display": "The Central European Lab"
          }
        ],
        "category": [
          {
            "coding": [
              {
                "system": "http://terminology.hl7.org/CodeSystem/observation-category",
                "code": "laboratory"
              }
            ]
          }
        ],
        "code": {
          "coding": [
            {
              "code": "5778-6",
              "system": "http://loinc.org",
              "display": "Color of Urine"
            }
          ],
          "text": "Color of Urine"
        },
        "text": {
          "status": "generated",
          "div": "<div xmlns=\"http://www.w3.org/1999/xhtml\"><table class=\"hl7__eu__lab__report\"><tr><th>Test</th><th>30-Jan-2017</th><th>Reference&#xA0;Range</th><th>Unit</th></tr><tr><td>Color of Urine</td></tr></table></div>"
        },
        "status": "final",
        "subject": {
          "reference": "urn:uuid:f30493ab-b917-4281-b906-bab69aa2b1ba",
          "display": "Meaghan Neary"
        },
        "effectiveDateTime": "2017-01-30T22:11:04Z",
        "specimen": {
          "reference": "urn:uuid:2b1df718-1e79-4f9c-a893-e60e8368fa15"
        }
      }
    },
    {
      "fullUrl": "urn:uuid:ac35adf8-d389-4759-82dd-afc73a7fddc8",
      "resource": {
        "resourceType": "Observation",
        "id": "ac35adf8-d389-4759-82dd-afc73a7fddc8",
        "meta": {
          "profile": [
            "http://hl7.eu/fhir/laboratory/StructureDefinition/Observation-resultslab-eu-lab"
          ]
        },
        "performer": [
          {
            "display": "The Central European Lab"
          }
        ],
        "category": [
          {
            "coding": [
              {
                "system": "http://terminology.hl7.org/CodeSystem/observation-category",
                "code": "laboratory"
              }
            ]
          }
        ],
        "code": {
          "coding": [
            {
              "code": "5792-7",
              "system": "http://loinc.org",
              "display": "Glucose [Mass/volume] in Urine by Test strip"
            }
          ],
          "text": "Glucose [Mass/volume] in Urine by Test strip"
        },
        "valueQuantity": {
          "system": "http://unitsofmeasure.org",
          "value": 1.7,
          "unit": "mg/dL",
          "code": "mg/dL"
        },
        "referenceRange": [
          {
            "low": {
              "value": 0.8,
              "code": "mg/dL",
              "system": "http://unitsofmeasure.org"
            }
          },
          {
            "high": {
              "value": 0,
              "code": "mg/dL",
              "system": "http://unitsofmeasure.org"
            }
          }
        ],
        "interpretation": [
          {
            "coding": [
              {
                "code": "H",
                "system": "http://terminology.hl7.org/CodeSystem/v3-ObservationInterpretation",
                "display": "High"
              }
            ]
          }
        ],
        "text": {
          "status": "generated",
          "div": "<div xmlns=\"http://www.w3.org/1999/xhtml\"><table class=\"hl7__eu__lab__report\"><tr><th>Test</th><th>30-Jan-2017</th><th>Reference&#xA0;Range</th><th>Unit</th></tr><tr><td>Glucose [Mass/volume] in Urine by Test strip</td><td>1.7</td><td>0.8 - 0</td><td>H</td><td>mg/dL</td></tr></table></div>"
        },
        "status": "final",
        "subject": {
          "reference": "urn:uuid:f30493ab-b917-4281-b906-bab69aa2b1ba",
          "display": "Meaghan Neary"
        },
        "effectiveDateTime": "2017-01-30T22:11:04Z",
        "specimen": {
          "reference": "urn:uuid:2b1df718-1e79-4f9c-a893-e60e8368fa15"
        }
      }
    },
    {
      "fullUrl": "urn:uuid:d3826e42-ab25-4c3d-8cd2-8393ddde93a6",
      "resource": {
        "resourceType": "Observation",
        "id": "d3826e42-ab25-4c3d-8cd2-8393ddde93a6",
        "meta": {
          "profile": [
            "http://hl7.eu/fhir/laboratory/StructureDefinition/Observation-resultslab-eu-lab"
          ]
        },
        "performer": [
          {
            "display": "The Central European Lab"
          }
        ],
        "category": [
          {
            "coding": [
              {
                "system": "http://terminology.hl7.org/CodeSystem/observation-category",
                "code": "laboratory"
              }
            ]
          }
        ],
        "code": {
          "coding": [
            {
              "code": "25428-4",
              "system": "http://loinc.org",
              "display": "Glucose [Presence] in Urine by Test strip"
            }
          ],
          "text": "Glucose [Presence] in Urine by Test strip"
        },
        "text": {
          "status": "generated",
          "div": "<div xmlns=\"http://www.w3.org/1999/xhtml\"><table class=\"hl7__eu__lab__report\"><tr><th>Test</th><th>30-Jan-2017</th><th>Reference&#xA0;Range</th><th>Unit</th></tr><tr><td>Glucose [Presence] in Urine by Test strip</td></tr></table></div>"
        },
        "status": "final",
        "subject": {
          "reference": "urn:uuid:f30493ab-b917-4281-b906-bab69aa2b1ba",
          "display": "Meaghan Neary"
        },
        "effectiveDateTime": "2017-01-30T22:11:04Z",
        "specimen": {
          "reference": "urn:uuid:2b1df718-1e79-4f9c-a893-e60e8368fa15"
        }
      }
    },
    {
      "fullUrl": "urn:uuid:a24cc3e2-80e3-494a-9206-9d5673a32ca0",
      "resource": {
        "resourceType": "Observation",
        "id": "a24cc3e2-80e3-494a-9206-9d5673a32ca0",
        "meta": {
          "profile": [
            "http://hl7.eu/fhir/laboratory/StructureDefinition/Observation-resultslab-eu-lab"
          ]
        },
        "performer": [
          {
            "display": "The Central European Lab"
          }
        ],
        "category": [
          {
            "coding": [
              {
                "system": "http://terminology.hl7.org/CodeSystem/observation-category",
                "code": "laboratory"
              }
            ]
          }
        ],
        "code": {
          "coding": [
            {
              "code": "20505-4",
              "system": "http://loinc.org",
              "display": "Bilirubin.total [Mass/volume] in Urine by Test strip"
            }
          ],
          "text": "Bilirubin.total [Mass/volume] in Urine by Test strip"
        },
        "valueQuantity": {
          "system": "http://unitsofmeasure.org",
          "value": 0.4,
          "unit": "mg/dL",
          "code": "mg/dL"
        },
        "referenceRange": [
          {
            "low": {
              "value": 0,
              "code": "mg/dL",
              "system": "http://unitsofmeasure.org"
            }
          },
          {
            "high": {
              "value": 1,
              "code": "mg/dL",
              "system": "http://unitsofmeasure.org"
            }
          }
        ],
        "text": {
          "status": "generated",
          "div": "<div xmlns=\"http://www.w3.org/1999/xhtml\"><table class=\"hl7__eu__lab__report\"><tr><th>Test</th><th>30-Jan-2017</th><th>Reference&#xA0;Range</th><th>Unit</th></tr><tr><td>Bilirubin.total [Mass/volume] in Urine by Test strip</td><td>0.4</td><td>0 - 1</td><td></td><td>mg/dL</td></tr></table></div>"
        },
        "status": "final",
        "subject": {
          "reference": "urn:uuid:f30493ab-b917-4281-b906-bab69aa2b1ba",
          "display": "Meaghan Neary"
        },
        "effectiveDateTime": "2017-01-30T22:11:04Z",
        "specimen": {
          "reference": "urn:uuid:2b1df718-1e79-4f9c-a893-e60e8368fa15"
        }
      }
    },
    {
      "fullUrl": "urn:uuid:fd95860f-6a0d-4490-9a30-67e5ff928e45",
      "resource": {
        "resourceType": "Observation",
        "id": "fd95860f-6a0d-4490-9a30-67e5ff928e45",
        "meta": {
          "profile": [
            "http://hl7.eu/fhir/laboratory/StructureDefinition/Observation-resultslab-eu-lab"
          ]
        },
        "performer": [
          {
            "display": "The Central European Lab"
          }
        ],
        "category": [
          {
            "coding": [
              {
                "system": "http://terminology.hl7.org/CodeSystem/observation-category",
                "code": "laboratory"
              }
            ]
          }
        ],
        "code": {
          "coding": [
            {
              "code": "5770-3",
              "system": "http://loinc.org",
              "display": "Bilirubin.total [Presence] in Urine by Test strip"
            }
          ],
          "text": "Bilirubin.total [Presence] in Urine by Test strip"
        },
        "text": {
          "status": "generated",
          "div": "<div xmlns=\"http://www.w3.org/1999/xhtml\"><table class=\"hl7__eu__lab__report\"><tr><th>Test</th><th>30-Jan-2017</th><th>Reference&#xA0;Range</th><th>Unit</th></tr><tr><td>Bilirubin.total [Presence] in Urine by Test strip</td></tr></table></div>"
        },
        "status": "final",
        "subject": {
          "reference": "urn:uuid:f30493ab-b917-4281-b906-bab69aa2b1ba",
          "display": "Meaghan Neary"
        },
        "effectiveDateTime": "2017-01-30T22:11:04Z",
        "specimen": {
          "reference": "urn:uuid:2b1df718-1e79-4f9c-a893-e60e8368fa15"
        }
      }
    },
    {
      "fullUrl": "urn:uuid:c607c6ea-e688-4a7b-9f36-c3f65131c272",
      "resource": {
        "resourceType": "Observation",
        "id": "c607c6ea-e688-4a7b-9f36-c3f65131c272",
        "meta": {
          "profile": [
            "http://hl7.eu/fhir/laboratory/StructureDefinition/Observation-resultslab-eu-lab"
          ]
        },
        "performer": [
          {
            "display": "The Central European Lab"
          }
        ],
        "category": [
          {
            "coding": [
              {
                "system": "http://terminology.hl7.org/CodeSystem/observation-category",
                "code": "laboratory"
              }
            ]
          }
        ],
        "code": {
          "coding": [
            {
              "code": "5797-6",
              "system": "http://loinc.org",
              "display": "Ketones [Mass/volume] in Urine by Test strip"
            }
          ],
          "text": "Ketones [Mass/volume] in Urine by Test strip"
        },
        "valueQuantity": {
          "system": "http://unitsofmeasure.org",
          "value": 2.6,
          "unit": "mg/dL",
          "code": "mg/dL"
        },
        "referenceRange": [
          {
            "low": {
              "value": 0,
              "code": "mg/dL",
              "system": "http://unitsofmeasure.org"
            }
          },
          {
            "high": {
              "value": 4,
              "code": "mg/dL",
              "system": "http://unitsofmeasure.org"
            }
          }
        ],
        "text": {
          "status": "generated",
          "div": "<div xmlns=\"http://www.w3.org/1999/xhtml\"><table class=\"hl7__eu__lab__report\"><tr><th>Test</th><th>30-Jan-2017</th><th>Reference&#xA0;Range</th><th>Unit</th></tr><tr><td>Ketones [Mass/volume] in Urine by Test strip</td><td>2.6</td><td>0 - 4</td><td></td><td>mg/dL</td></tr></table></div>"
        },
        "status": "final",
        "subject": {
          "reference": "urn:uuid:f30493ab-b917-4281-b906-bab69aa2b1ba",
          "display": "Meaghan Neary"
        },
        "effectiveDateTime": "2017-01-30T22:11:04Z",
        "specimen": {
          "reference": "urn:uuid:2b1df718-1e79-4f9c-a893-e60e8368fa15"
        }
      }
    },
    {
      "fullUrl": "urn:uuid:ec573b8d-000e-4845-a73b-e8e966a73de3",
      "resource": {
        "resourceType": "Observation",
        "id": "ec573b8d-000e-4845-a73b-e8e966a73de3",
        "meta": {
          "profile": [
            "http://hl7.eu/fhir/laboratory/StructureDefinition/Observation-resultslab-eu-lab"
          ]
        },
        "performer": [
          {
            "display": "The Central European Lab"
          }
        ],
        "category": [
          {
            "coding": [
              {
                "system": "http://terminology.hl7.org/CodeSystem/observation-category",
                "code": "laboratory"
              }
            ]
          }
        ],
        "code": {
          "coding": [
            {
              "code": "2514-8",
              "system": "http://loinc.org",
              "display": "Ketones [Presence] in Urine by Test strip"
            }
          ],
          "text": "Ketones [Presence] in Urine by Test strip"
        },
        "text": {
          "status": "generated",
          "div": "<div xmlns=\"http://www.w3.org/1999/xhtml\"><table class=\"hl7__eu__lab__report\"><tr><th>Test</th><th>30-Jan-2017</th><th>Reference&#xA0;Range</th><th>Unit</th></tr><tr><td>Ketones [Presence] in Urine by Test strip</td></tr></table></div>"
        },
        "status": "final",
        "subject": {
          "reference": "urn:uuid:f30493ab-b917-4281-b906-bab69aa2b1ba",
          "display": "Meaghan Neary"
        },
        "effectiveDateTime": "2017-01-30T22:11:04Z",
        "specimen": {
          "reference": "urn:uuid:2b1df718-1e79-4f9c-a893-e60e8368fa15"
        }
      }
    },
    {
      "fullUrl": "urn:uuid:b2ee220c-df64-46c4-adec-e94903dbcdee",
      "resource": {
        "resourceType": "Observation",
        "id": "b2ee220c-df64-46c4-adec-e94903dbcdee",
        "meta": {
          "profile": [
            "http://hl7.eu/fhir/laboratory/StructureDefinition/Observation-resultslab-eu-lab"
          ]
        },
        "performer": [
          {
            "display": "The Central European Lab"
          }
        ],
        "category": [
          {
            "coding": [
              {
                "system": "http://terminology.hl7.org/CodeSystem/observation-category",
                "code": "laboratory"
              }
            ]
          }
        ],
        "code": {
          "coding": [
            {
              "code": "5811-5",
              "system": "http://loinc.org",
              "display": "Specific gravity of Urine by Test strip"
            }
          ],
          "text": "Specific gravity of Urine by Test strip"
        },
        "valueQuantity": {
          "system": "http://unitsofmeasure.org",
          "value": 1,
          "unit": "{nominal}",
          "code": "{nominal}"
        },
        "referenceRange": [
          {
            "low": {
              "value": 1.005,
              "code": "g/mL",
              "system": "http://unitsofmeasure.org"
            }
          },
          {
            "high": {
              "value": 1.03,
              "code": "g/mL",
              "system": "http://unitsofmeasure.org"
            }
          }
        ],
        "interpretation": [
          {
            "coding": [
              {
                "code": "L",
                "system": "http://terminology.hl7.org/CodeSystem/v3-ObservationInterpretation",
                "display": "Low"
              }
            ]
          }
        ],
        "text": {
          "status": "generated",
          "div": "<div xmlns=\"http://www.w3.org/1999/xhtml\"><table class=\"hl7__eu__lab__report\"><tr><th>Test</th><th>30-Jan-2017</th><th>Reference&#xA0;Range</th><th>Unit</th></tr><tr><td>Specific gravity of Urine by Test strip</td><td>1.0</td><td>1.005 - 1.03</td><td>L</td><td>{nominal}</td></tr></table></div>"
        },
        "status": "final",
        "subject": {
          "reference": "urn:uuid:f30493ab-b917-4281-b906-bab69aa2b1ba",
          "display": "Meaghan Neary"
        },
        "effectiveDateTime": "2017-01-30T22:11:04Z",
        "specimen": {
          "reference": "urn:uuid:2b1df718-1e79-4f9c-a893-e60e8368fa15"
        }
      }
    },
    {
      "fullUrl": "urn:uuid:c3a24975-ec0c-4b91-8a53-b930c093eb89",
      "resource": {
        "resourceType": "Observation",
        "id": "c3a24975-ec0c-4b91-8a53-b930c093eb89",
        "meta": {
          "profile": [
            "http://hl7.eu/fhir/laboratory/StructureDefinition/Observation-resultslab-eu-lab"
          ]
        },
        "performer": [
          {
            "display": "The Central European Lab"
          }
        ],
        "category": [
          {
            "coding": [
              {
                "system": "http://terminology.hl7.org/CodeSystem/observation-category",
                "code": "laboratory"
              }
            ]
          }
        ],
        "code": {
          "coding": [
            {
              "code": "5803-2",
              "system": "http://loinc.org",
              "display": "pH of Urine by Test strip"
            }
          ],
          "text": "pH of Urine by Test strip"
        },
        "valueQuantity": {
          "system": "http://unitsofmeasure.org",
          "value": 5.1,
          "unit": "pH",
          "code": "pH"
        },
        "referenceRange": [
          {
            "low": {
              "value": 4.6,
              "code": "pH",
              "system": "http://unitsofmeasure.org"
            }
          },
          {
            "high": {
              "value": 7,
              "code": "pH",
              "system": "http://unitsofmeasure.org"
            }
          }
        ],
        "text": {
          "status": "generated",
          "div": "<div xmlns=\"http://www.w3.org/1999/xhtml\"><table class=\"hl7__eu__lab__report\"><tr><th>Test</th><th>30-Jan-2017</th><th>Reference&#xA0;Range</th><th>Unit</th></tr><tr><td>pH of Urine by Test strip</td><td>5.1</td><td>4.6 - 7</td><td></td><td>pH</td></tr></table></div>"
        },
        "status": "final",
        "subject": {
          "reference": "urn:uuid:f30493ab-b917-4281-b906-bab69aa2b1ba",
          "display": "Meaghan Neary"
        },
        "effectiveDateTime": "2017-01-30T22:11:04Z",
        "specimen": {
          "reference": "urn:uuid:2b1df718-1e79-4f9c-a893-e60e8368fa15"
        }
      }
    },
    {
      "fullUrl": "urn:uuid:7d825cef-76f3-4487-9ac5-cead6776cf3d",
      "resource": {
        "resourceType": "Observation",
        "id": "7d825cef-76f3-4487-9ac5-cead6776cf3d",
        "meta": {
          "profile": [
            "http://hl7.eu/fhir/laboratory/StructureDefinition/Observation-resultslab-eu-lab"
          ]
        },
        "performer": [
          {
            "display": "The Central European Lab"
          }
        ],
        "category": [
          {
            "coding": [
              {
                "system": "http://terminology.hl7.org/CodeSystem/observation-category",
                "code": "laboratory"
              }
            ]
          }
        ],
        "code": {
          "coding": [
            {
              "code": "5804-0",
              "system": "http://loinc.org",
              "display": "Protein [Mass/volume] in Urine by Test strip"
            }
          ],
          "text": "Protein [Mass/volume] in Urine by Test strip"
        },
        "valueQuantity": {
          "system": "http://unitsofmeasure.org",
          "value": 182.9,
          "unit": "mg/dL",
          "code": "mg/dL"
        },
        "referenceRange": [
          {
            "low": {
              "value": 0,
              "code": "mg/dL",
              "system": "http://unitsofmeasure.org"
            }
          },
          {
            "high": {
              "value": 14,
              "code": "mg/dL",
              "system": "http://unitsofmeasure.org"
            }
          }
        ],
        "interpretation": [
          {
            "coding": [
              {
                "code": "H",
                "system": "http://terminology.hl7.org/CodeSystem/v3-ObservationInterpretation",
                "display": "High"
              }
            ]
          }
        ],
        "text": {
          "status": "generated",
          "div": "<div xmlns=\"http://www.w3.org/1999/xhtml\"><table class=\"hl7__eu__lab__report\"><tr><th>Test</th><th>30-Jan-2017</th><th>Reference&#xA0;Range</th><th>Unit</th></tr><tr><td>Protein [Mass/volume] in Urine by Test strip</td><td>182.9</td><td>0 - 14</td><td>H</td><td>mg/dL</td></tr></table></div>"
        },
        "status": "final",
        "subject": {
          "reference": "urn:uuid:f30493ab-b917-4281-b906-bab69aa2b1ba",
          "display": "Meaghan Neary"
        },
        "effectiveDateTime": "2017-01-30T22:11:04Z",
        "specimen": {
          "reference": "urn:uuid:2b1df718-1e79-4f9c-a893-e60e8368fa15"
        }
      }
    },
    {
      "fullUrl": "urn:uuid:3f8f4398-575b-4b68-a871-008c70c58d50",
      "resource": {
        "resourceType": "Observation",
        "id": "3f8f4398-575b-4b68-a871-008c70c58d50",
        "meta": {
          "profile": [
            "http://hl7.eu/fhir/laboratory/StructureDefinition/Observation-resultslab-eu-lab"
          ]
        },
        "performer": [
          {
            "display": "The Central European Lab"
          }
        ],
        "category": [
          {
            "coding": [
              {
                "system": "http://terminology.hl7.org/CodeSystem/observation-category",
                "code": "laboratory"
              }
            ]
          }
        ],
        "code": {
          "coding": [
            {
              "code": "20454-5",
              "system": "http://loinc.org",
              "display": "Protein [Presence] in Urine by Test strip"
            }
          ],
          "text": "Protein [Presence] in Urine by Test strip"
        },
        "text": {
          "status": "generated",
          "div": "<div xmlns=\"http://www.w3.org/1999/xhtml\"><table class=\"hl7__eu__lab__report\"><tr><th>Test</th><th>30-Jan-2017</th><th>Reference&#xA0;Range</th><th>Unit</th></tr><tr><td>Protein [Presence] in Urine by Test strip</td></tr></table></div>"
        },
        "status": "final",
        "subject": {
          "reference": "urn:uuid:f30493ab-b917-4281-b906-bab69aa2b1ba",
          "display": "Meaghan Neary"
        },
        "effectiveDateTime": "2017-01-30T22:11:04Z",
        "specimen": {
          "reference": "urn:uuid:2b1df718-1e79-4f9c-a893-e60e8368fa15"
        }
      }
    },
    {
      "fullUrl": "urn:uuid:10a9dd05-448a-40a8-ba46-cf6e89f25600",
      "resource": {
        "resourceType": "Observation",
        "id": "10a9dd05-448a-40a8-ba46-cf6e89f25600",
        "meta": {
          "profile": [
            "http://hl7.eu/fhir/laboratory/StructureDefinition/Observation-resultslab-eu-lab"
          ]
        },
        "performer": [
          {
            "display": "The Central European Lab"
          }
        ],
        "category": [
          {
            "coding": [
              {
                "system": "http://terminology.hl7.org/CodeSystem/observation-category",
                "code": "laboratory"
              }
            ]
          }
        ],
        "code": {
          "coding": [
            {
              "code": "5802-4",
              "system": "http://loinc.org",
              "display": "Nitrite [Presence] in Urine by Test strip"
            }
          ],
          "text": "Nitrite [Presence] in Urine by Test strip"
        },
        "text": {
          "status": "generated",
          "div": "<div xmlns=\"http://www.w3.org/1999/xhtml\"><table class=\"hl7__eu__lab__report\"><tr><th>Test</th><th>30-Jan-2017</th><th>Reference&#xA0;Range</th><th>Unit</th></tr><tr><td>Nitrite [Presence] in Urine by Test strip</td></tr></table></div>"
        },
        "status": "final",
        "subject": {
          "reference": "urn:uuid:f30493ab-b917-4281-b906-bab69aa2b1ba",
          "display": "Meaghan Neary"
        },
        "effectiveDateTime": "2017-01-30T22:11:04Z",
        "specimen": {
          "reference": "urn:uuid:2b1df718-1e79-4f9c-a893-e60e8368fa15"
        }
      }
    },
    {
      "fullUrl": "urn:uuid:72e0cb55-d431-4a92-9eb4-463d240cdb8d",
      "resource": {
        "resourceType": "Observation",
        "id": "72e0cb55-d431-4a92-9eb4-463d240cdb8d",
        "meta": {
          "profile": [
            "http://hl7.eu/fhir/laboratory/StructureDefinition/Observation-resultslab-eu-lab"
          ]
        },
        "performer": [
          {
            "display": "The Central European Lab"
          }
        ],
        "category": [
          {
            "coding": [
              {
                "system": "http://terminology.hl7.org/CodeSystem/observation-category",
                "code": "laboratory"
              }
            ]
          }
        ],
        "code": {
          "coding": [
            {
              "code": "5794-3",
              "system": "http://loinc.org",
              "display": "Hemoglobin [Presence] in Urine by Test strip"
            }
          ],
          "text": "Hemoglobin [Presence] in Urine by Test strip"
        },
        "text": {
          "status": "generated",
          "div": "<div xmlns=\"http://www.w3.org/1999/xhtml\"><table class=\"hl7__eu__lab__report\"><tr><th>Test</th><th>30-Jan-2017</th><th>Reference&#xA0;Range</th><th>Unit</th></tr><tr><td>Hemoglobin [Presence] in Urine by Test strip</td></tr></table></div>"
        },
        "status": "final",
        "subject": {
          "reference": "urn:uuid:f30493ab-b917-4281-b906-bab69aa2b1ba",
          "display": "Meaghan Neary"
        },
        "effectiveDateTime": "2017-01-30T22:11:04Z",
        "specimen": {
          "reference": "urn:uuid:2b1df718-1e79-4f9c-a893-e60e8368fa15"
        }
      }
    },
    {
      "fullUrl": "urn:uuid:c66da259-10c3-4f46-b0da-a4416610e724",
      "resource": {
        "resourceType": "Observation",
        "id": "c66da259-10c3-4f46-b0da-a4416610e724",
        "meta": {
          "profile": [
            "http://hl7.eu/fhir/laboratory/StructureDefinition/Observation-resultslab-eu-lab"
          ]
        },
        "performer": [
          {
            "display": "The Central European Lab"
          }
        ],
        "category": [
          {
            "coding": [
              {
                "system": "http://terminology.hl7.org/CodeSystem/observation-category",
                "code": "laboratory"
              }
            ]
          }
        ],
        "code": {
          "coding": [
            {
              "code": "5799-2",
              "system": "http://loinc.org",
              "display": "Leukocyte esterase [Presence] in Urine by Test strip"
            }
          ],
          "text": "Leukocyte esterase [Presence] in Urine by Test strip"
        },
        "text": {
          "status": "generated",
          "div": "<div xmlns=\"http://www.w3.org/1999/xhtml\"><table class=\"hl7__eu__lab__report\"><tr><th>Test</th><th>30-Jan-2017</th><th>Reference&#xA0;Range</th><th>Unit</th></tr><tr><td>Leukocyte esterase [Presence] in Urine by Test strip</td></tr></table></div>"
        },
        "status": "final",
        "subject": {
          "reference": "urn:uuid:f30493ab-b917-4281-b906-bab69aa2b1ba",
          "display": "Meaghan Neary"
        },
        "effectiveDateTime": "2017-01-30T22:11:04Z",
        "specimen": {
          "reference": "urn:uuid:2b1df718-1e79-4f9c-a893-e60e8368fa15"
        }
      }
    },
    {
      "fullUrl": "urn:uuid:c3e774be-5662-4bf2-8ca8-352489753971",
      "resource": {
        "resourceType": "Observation",
        "id": "c3e774be-5662-4bf2-8ca8-352489753971",
        "meta": {
          "profile": [
            "http://hl7.eu/fhir/laboratory/StructureDefinition/Observation-resultslab-eu-lab"
          ]
        },
        "performer": [
          {
            "display": "The Central European Lab"
          }
        ],
        "category": [
          {
            "coding": [
              {
                "system": "http://terminology.hl7.org/CodeSystem/observation-category",
                "code": "laboratory"
              }
            ]
          }
        ],
        "code": {
          "coding": [
            {
              "code": "4548-4",
              "system": "http://loinc.org",
              "display": "Hemoglobin A1c/Hemoglobin.total in Blood"
            }
          ],
          "text": "Hemoglobin A1c/Hemoglobin.total in Blood"
        },
        "valueQuantity": {
          "system": "http://unitsofmeasure.org",
          "value": 3.3,
          "unit": "%",
          "code": "%"
        },
        "referenceRange": [
          {
            "low": {
              "value": 4,
              "code": "%",
              "system": "http://unitsofmeasure.org"
            }
          },
          {
            "high": {
              "value": 6.4,
              "code": "%",
              "system": "http://unitsofmeasure.org"
            }
          }
        ],
        "interpretation": [
          {
            "coding": [
              {
                "code": "L",
                "system": "http://terminology.hl7.org/CodeSystem/v3-ObservationInterpretation",
                "display": "Low"
              }
            ]
          }
        ],
        "text": {
          "status": "generated",
          "div": "<div xmlns=\"http://www.w3.org/1999/xhtml\"><table class=\"hl7__eu__lab__report\"><tr><th>Test</th><th>30-Jan-2017</th><th>Reference&#xA0;Range</th><th>Unit</th></tr><tr><td>Hemoglobin A1c/Hemoglobin.total in Blood</td><td>3.3</td><td>4 - 6.4</td><td>L</td><td>%</td></tr></table></div>"
        },
        "status": "final",
        "subject": {
          "reference": "urn:uuid:f30493ab-b917-4281-b906-bab69aa2b1ba",
          "display": "Meaghan Neary"
        },
        "effectiveDateTime": "2017-01-30T22:11:04Z",
        "specimen": {
          "reference": "urn:uuid:d3cada97-2880-419e-b71f-f86d5e1361ce"
        }
      }
    },
    {
      "fullUrl": "urn:uuid:64076080-e75a-4450-8d2e-45f77b916ca0",
      "resource": {
        "resourceType": "Observation",
        "id": "64076080-e75a-4450-8d2e-45f77b916ca0",
        "meta": {
          "profile": [
            "http://hl7.eu/fhir/laboratory/StructureDefinition/Observation-resultslab-eu-lab"
          ]
        },
        "performer": [
          {
            "display": "The Central European Lab"
          }
        ],
        "category": [
          {
            "coding": [
              {
                "system": "http://terminology.hl7.org/CodeSystem/observation-category",
                "code": "laboratory"
              }
            ]
          }
        ],
        "code": {
          "coding": [
            {
              "code": "2339-0",
              "system": "http://loinc.org",
              "display": "Glucose [Mass/volume] in Blood"
            }
          ],
          "text": "Glucose [Mass/volume] in Blood"
        },
        "valueQuantity": {
          "system": "http://unitsofmeasure.org",
          "value": 93.6,
          "unit": "mg/dL",
          "code": "mg/dL"
        },
        "referenceRange": [
          {
            "low": {
              "value": 70,
              "code": "mg/dL",
              "system": "http://unitsofmeasure.org"
            }
          },
          {
            "high": {
              "value": 100,
              "code": "mg/dL",
              "system": "http://unitsofmeasure.org"
            }
          }
        ],
        "text": {
          "status": "generated",
          "div": "<div xmlns=\"http://www.w3.org/1999/xhtml\"><table class=\"hl7__eu__lab__report\"><tr><th>Test</th><th>30-Jan-2017</th><th>Reference&#xA0;Range</th><th>Unit</th></tr><tr><td>Glucose [Mass/volume] in Blood</td><td>93.6</td><td>70 - 100</td><td></td><td>mg/dL</td></tr></table></div>"
        },
        "status": "final",
        "subject": {
          "reference": "urn:uuid:f30493ab-b917-4281-b906-bab69aa2b1ba",
          "display": "Meaghan Neary"
        },
        "effectiveDateTime": "2017-01-30T22:11:04Z",
        "specimen": {
          "reference": "urn:uuid:d3cada97-2880-419e-b71f-f86d5e1361ce"
        }
      }
    },
    {
      "fullUrl": "urn:uuid:cedcce4e-42d2-4c70-9893-29e7182b91e4",
      "resource": {
        "resourceType": "Observation",
        "id": "cedcce4e-42d2-4c70-9893-29e7182b91e4",
        "meta": {
          "profile": [
            "http://hl7.eu/fhir/laboratory/StructureDefinition/Observation-resultslab-eu-lab"
          ]
        },
        "performer": [
          {
            "display": "The Central European Lab"
          }
        ],
        "category": [
          {
            "coding": [
              {
                "system": "http://terminology.hl7.org/CodeSystem/observation-category",
                "code": "laboratory"
              }
            ]
          }
        ],
        "code": {
          "coding": [
            {
              "code": "6299-2",
              "system": "http://loinc.org",
              "display": "Urea nitrogen [Mass/volume] in Blood"
            }
          ],
          "text": "Urea nitrogen [Mass/volume] in Blood"
        },
        "valueQuantity": {
          "system": "http://unitsofmeasure.org",
          "value": 19.9,
          "unit": "mg/dL",
          "code": "mg/dL"
        },
        "referenceRange": [
          {
            "low": {
              "value": 7,
              "code": "mg/dL",
              "system": "http://unitsofmeasure.org"
            }
          },
          {
            "high": {
              "value": 43,
              "code": "mg/dL",
              "system": "http://unitsofmeasure.org"
            }
          }
        ],
        "text": {
          "status": "generated",
          "div": "<div xmlns=\"http://www.w3.org/1999/xhtml\"><table class=\"hl7__eu__lab__report\"><tr><th>Test</th><th>30-Jan-2017</th><th>Reference&#xA0;Range</th><th>Unit</th></tr><tr><td>Urea nitrogen [Mass/volume] in Blood</td><td>19.9</td><td>7 - 43</td><td></td><td>mg/dL</td></tr></table></div>"
        },
        "status": "final",
        "subject": {
          "reference": "urn:uuid:f30493ab-b917-4281-b906-bab69aa2b1ba",
          "display": "Meaghan Neary"
        },
        "effectiveDateTime": "2017-01-30T22:11:04Z",
        "specimen": {
          "reference": "urn:uuid:d3cada97-2880-419e-b71f-f86d5e1361ce"
        }
      }
    },
    {
      "fullUrl": "urn:uuid:21959251-ecbd-4426-a433-a1028359fa09",
      "resource": {
        "resourceType": "Observation",
        "id": "21959251-ecbd-4426-a433-a1028359fa09",
        "meta": {
          "profile": [
            "http://hl7.eu/fhir/laboratory/StructureDefinition/Observation-resultslab-eu-lab"
          ]
        },
        "performer": [
          {
            "display": "The Central European Lab"
          }
        ],
        "category": [
          {
            "coding": [
              {
                "system": "http://terminology.hl7.org/CodeSystem/observation-category",
                "code": "laboratory"
              }
            ]
          }
        ],
        "code": {
          "coding": [
            {
              "code": "38483-4",
              "system": "http://loinc.org",
              "display": "Creatinine [Mass/volume] in Blood"
            }
          ],
          "text": "Creatinine [Mass/volume] in Blood"
        },
        "valueQuantity": {
          "system": "http://unitsofmeasure.org",
          "value": 1.4,
          "unit": "mg/dL",
          "code": "mg/dL"
        },
        "referenceRange": [
          {
            "low": {
              "value": 0.6,
              "code": "mg/dL",
              "system": "http://unitsofmeasure.org"
            }
          },
          {
            "high": {
              "value": 1.1,
              "code": "mg/dL",
              "system": "http://unitsofmeasure.org"
            }
          }
        ],
        "interpretation": [
          {
            "coding": [
              {
                "code": "H",
                "system": "http://terminology.hl7.org/CodeSystem/v3-ObservationInterpretation",
                "display": "High"
              }
            ]
          }
        ],
        "text": {
          "status": "generated",
          "div": "<div xmlns=\"http://www.w3.org/1999/xhtml\"><table class=\"hl7__eu__lab__report\"><tr><th>Test</th><th>30-Jan-2017</th><th>Reference&#xA0;Range</th><th>Unit</th></tr><tr><td>Creatinine [Mass/volume] in Blood</td><td>1.4</td><td>0.6 - 1.1</td><td>H</td><td>mg/dL</td></tr></table></div>"
        },
        "status": "final",
        "subject": {
          "reference": "urn:uuid:f30493ab-b917-4281-b906-bab69aa2b1ba",
          "display": "Meaghan Neary"
        },
        "effectiveDateTime": "2017-01-30T22:11:04Z",
        "specimen": {
          "reference": "urn:uuid:d3cada97-2880-419e-b71f-f86d5e1361ce"
        }
      }
    },
    {
      "fullUrl": "urn:uuid:7ea78e33-ba2e-482f-9677-27a241baa0cd",
      "resource": {
        "resourceType": "Observation",
        "id": "7ea78e33-ba2e-482f-9677-27a241baa0cd",
        "meta": {
          "profile": [
            "http://hl7.eu/fhir/laboratory/StructureDefinition/Observation-resultslab-eu-lab"
          ]
        },
        "performer": [
          {
            "display": "The Central European Lab"
          }
        ],
        "category": [
          {
            "coding": [
              {
                "system": "http://terminology.hl7.org/CodeSystem/observation-category",
                "code": "laboratory"
              }
            ]
          }
        ],
        "code": {
          "coding": [
            {
              "code": "49765-1",
              "system": "http://loinc.org",
              "display": "Calcium [Mass/volume] in Blood"
            }
          ],
          "text": "Calcium [Mass/volume] in Blood"
        },
        "valueQuantity": {
          "system": "http://unitsofmeasure.org",
          "value": 9.7,
          "unit": "mg/dL",
          "code": "mg/dL"
        },
        "referenceRange": [
          {
            "low": {
              "value": 8.5,
              "code": "mg/dL",
              "system": "http://unitsofmeasure.org"
            }
          },
          {
            "high": {
              "value": 10.5,
              "code": "mg/dL",
              "system": "http://unitsofmeasure.org"
            }
          }
        ],
        "text": {
          "status": "generated",
          "div": "<div xmlns=\"http://www.w3.org/1999/xhtml\"><table class=\"hl7__eu__lab__report\"><tr><th>Test</th><th>30-Jan-2017</th><th>Reference&#xA0;Range</th><th>Unit</th></tr><tr><td>Calcium [Mass/volume] in Blood</td><td>9.7</td><td>8.5 - 10.5</td><td></td><td>mg/dL</td></tr></table></div>"
        },
        "status": "final",
        "subject": {
          "reference": "urn:uuid:f30493ab-b917-4281-b906-bab69aa2b1ba",
          "display": "Meaghan Neary"
        },
        "effectiveDateTime": "2017-01-30T22:11:04Z",
        "specimen": {
          "reference": "urn:uuid:d3cada97-2880-419e-b71f-f86d5e1361ce"
        }
      }
    },
    {
      "fullUrl": "urn:uuid:17e1d085-51ab-43d8-9fb4-aae21123cd0c",
      "resource": {
        "resourceType": "Observation",
        "id": "17e1d085-51ab-43d8-9fb4-aae21123cd0c",
        "meta": {
          "profile": [
            "http://hl7.eu/fhir/laboratory/StructureDefinition/Observation-resultslab-eu-lab"
          ]
        },
        "performer": [
          {
            "display": "The Central European Lab"
          }
        ],
        "category": [
          {
            "coding": [
              {
                "system": "http://terminology.hl7.org/CodeSystem/observation-category",
                "code": "laboratory"
              }
            ]
          }
        ],
        "code": {
          "coding": [
            {
              "code": "2947-0",
              "system": "http://loinc.org",
              "display": "Sodium [Moles/volume] in Blood"
            }
          ],
          "text": "Sodium [Moles/volume] in Blood"
        },
        "valueQuantity": {
          "system": "http://unitsofmeasure.org",
          "value": 141.2,
          "unit": "mmol/L",
          "code": "mmol/L"
        },
        "referenceRange": [
          {
            "low": {
              "value": 135,
              "code": "mmol/L",
              "system": "http://unitsofmeasure.org"
            }
          },
          {
            "high": {
              "value": 145,
              "code": "mmol/L",
              "system": "http://unitsofmeasure.org"
            }
          }
        ],
        "text": {
          "status": "generated",
          "div": "<div xmlns=\"http://www.w3.org/1999/xhtml\"><table class=\"hl7__eu__lab__report\"><tr><th>Test</th><th>30-Jan-2017</th><th>Reference&#xA0;Range</th><th>Unit</th></tr><tr><td>Sodium [Moles/volume] in Blood</td><td>141.2</td><td>135 - 145</td><td></td><td>mmol/L</td></tr></table></div>"
        },
        "status": "final",
        "subject": {
          "reference": "urn:uuid:f30493ab-b917-4281-b906-bab69aa2b1ba",
          "display": "Meaghan Neary"
        },
        "effectiveDateTime": "2017-01-30T22:11:04Z",
        "specimen": {
          "reference": "urn:uuid:d3cada97-2880-419e-b71f-f86d5e1361ce"
        }
      }
    },
    {
      "fullUrl": "urn:uuid:04d7c1d7-df69-40be-b5ed-998b77f93318",
      "resource": {
        "resourceType": "Observation",
        "id": "04d7c1d7-df69-40be-b5ed-998b77f93318",
        "meta": {
          "profile": [
            "http://hl7.eu/fhir/laboratory/StructureDefinition/Observation-resultslab-eu-lab"
          ]
        },
        "performer": [
          {
            "display": "The Central European Lab"
          }
        ],
        "category": [
          {
            "coding": [
              {
                "system": "http://terminology.hl7.org/CodeSystem/observation-category",
                "code": "laboratory"
              }
            ]
          }
        ],
        "code": {
          "coding": [
            {
              "code": "6298-4",
              "system": "http://loinc.org",
              "display": "Potassium [Moles/volume] in Blood"
            }
          ],
          "text": "Potassium [Moles/volume] in Blood"
        },
        "valueQuantity": {
          "system": "http://unitsofmeasure.org",
          "value": 4.9,
          "unit": "mmol/L",
          "code": "mmol/L"
        },
        "referenceRange": [
          {
            "low": {
              "value": 3.5,
              "code": "mmol/L",
              "system": "http://unitsofmeasure.org"
            }
          },
          {
            "high": {
              "value": 5.1,
              "code": "mmol/L",
              "system": "http://unitsofmeasure.org"
            }
          }
        ],
        "text": {
          "status": "generated",
          "div": "<div xmlns=\"http://www.w3.org/1999/xhtml\"><table class=\"hl7__eu__lab__report\"><tr><th>Test</th><th>30-Jan-2017</th><th>Reference&#xA0;Range</th><th>Unit</th></tr><tr><td>Potassium [Moles/volume] in Blood</td><td>4.9</td><td>3.5 - 5.1</td><td></td><td>mmol/L</td></tr></table></div>"
        },
        "status": "final",
        "subject": {
          "reference": "urn:uuid:f30493ab-b917-4281-b906-bab69aa2b1ba",
          "display": "Meaghan Neary"
        },
        "effectiveDateTime": "2017-01-30T22:11:04Z",
        "specimen": {
          "reference": "urn:uuid:d3cada97-2880-419e-b71f-f86d5e1361ce"
        }
      }
    },
    {
      "fullUrl": "urn:uuid:56d6ff78-2d47-475f-a978-4dbd60d19e8a",
      "resource": {
        "resourceType": "Observation",
        "id": "56d6ff78-2d47-475f-a978-4dbd60d19e8a",
        "meta": {
          "profile": [
            "http://hl7.eu/fhir/laboratory/StructureDefinition/Observation-resultslab-eu-lab"
          ]
        },
        "performer": [
          {
            "display": "The Central European Lab"
          }
        ],
        "category": [
          {
            "coding": [
              {
                "system": "http://terminology.hl7.org/CodeSystem/observation-category",
                "code": "laboratory"
              }
            ]
          }
        ],
        "code": {
          "coding": [
            {
              "code": "2069-3",
              "system": "http://loinc.org",
              "display": "Chloride [Moles/volume] in Blood"
            }
          ],
          "text": "Chloride [Moles/volume] in Blood"
        },
        "valueQuantity": {
          "system": "http://unitsofmeasure.org",
          "value": 106.5,
          "unit": "mmol/L",
          "code": "mmol/L"
        },
        "referenceRange": [
          {
            "low": {
              "value": 98,
              "code": "mmol/L",
              "system": "http://unitsofmeasure.org"
            }
          },
          {
            "high": {
              "value": 108,
              "code": "mmol/L",
              "system": "http://unitsofmeasure.org"
            }
          }
        ],
        "text": {
          "status": "generated",
          "div": "<div xmlns=\"http://www.w3.org/1999/xhtml\"><table class=\"hl7__eu__lab__report\"><tr><th>Test</th><th>30-Jan-2017</th><th>Reference&#xA0;Range</th><th>Unit</th></tr><tr><td>Chloride [Moles/volume] in Blood</td><td>106.5</td><td>98 - 108</td><td></td><td>mmol/L</td></tr></table></div>"
        },
        "status": "final",
        "subject": {
          "reference": "urn:uuid:f30493ab-b917-4281-b906-bab69aa2b1ba",
          "display": "Meaghan Neary"
        },
        "effectiveDateTime": "2017-01-30T22:11:04Z",
        "specimen": {
          "reference": "urn:uuid:d3cada97-2880-419e-b71f-f86d5e1361ce"
        }
      }
    },
    {
      "fullUrl": "urn:uuid:1070bc3b-bc0e-4220-8413-15d2c3647c6f",
      "resource": {
        "resourceType": "Observation",
        "id": "1070bc3b-bc0e-4220-8413-15d2c3647c6f",
        "meta": {
          "profile": [
            "http://hl7.eu/fhir/laboratory/StructureDefinition/Observation-resultslab-eu-lab"
          ]
        },
        "performer": [
          {
            "display": "The Central European Lab"
          }
        ],
        "category": [
          {
            "coding": [
              {
                "system": "http://terminology.hl7.org/CodeSystem/observation-category",
                "code": "laboratory"
              }
            ]
          }
        ],
        "code": {
          "coding": [
            {
              "code": "20565-8",
              "system": "http://loinc.org",
              "display": "Carbon dioxide, total [Moles/volume] in Blood"
            }
          ],
          "text": "Carbon dioxide, total [Moles/volume] in Blood"
        },
        "valueQuantity": {
          "system": "http://unitsofmeasure.org",
          "value": 26.9,
          "unit": "mmol/L",
          "code": "mmol/L"
        },
        "referenceRange": [
          {
            "low": {
              "value": 22,
              "code": "mmol/L",
              "system": "http://unitsofmeasure.org"
            }
          },
          {
            "high": {
              "value": 29,
              "code": "mmol/L",
              "system": "http://unitsofmeasure.org"
            }
          }
        ],
        "text": {
          "status": "generated",
          "div": "<div xmlns=\"http://www.w3.org/1999/xhtml\"><table class=\"hl7__eu__lab__report\"><tr><th>Test</th><th>30-Jan-2017</th><th>Reference&#xA0;Range</th><th>Unit</th></tr><tr><td>Carbon dioxide, total [Moles/volume] in Blood</td><td>26.9</td><td>22 - 29</td><td></td><td>mmol/L</td></tr></table></div>"
        },
        "status": "final",
        "subject": {
          "reference": "urn:uuid:f30493ab-b917-4281-b906-bab69aa2b1ba",
          "display": "Meaghan Neary"
        },
        "effectiveDateTime": "2017-01-30T22:11:04Z",
        "specimen": {
          "reference": "urn:uuid:d3cada97-2880-419e-b71f-f86d5e1361ce"
        }
      }
    },
    {
      "fullUrl": "urn:uuid:356ef6a3-fcc6-44f3-8b25-7d42ea3846de",
      "resource": {
        "resourceType": "Device",
        "id": "356ef6a3-fcc6-44f3-8b25-7d42ea3846de",
        "deviceName": [
          {
            "name": "SYNDERAI Synthetic Generator",
            "type": "manufacturer-name"
          }
        ],
        "version": [
          {
            "value": "5.0"
          }
        ],
        "text": {
          "status": "generated",
          "div": "<div xmlns=\"http://www.w3.org/1999/xhtml\">SYNDERAI Synthetic Generator v5.0</div>"
        },
        "status": "active\"",
        "distinctIdentifier": "synderai-generator-50",
        "manufacturer": "SYNDERAI Project"
      }
    },
    {
      "fullUrl": "urn:uuid:d99df0e2-8df5-4a56-be57-ca889dd04e6d",
      "resource": {
        "resourceType": "Provenance",
        "id": "d99df0e2-8df5-4a56-be57-ca889dd04e6d",
        "target": [
          {
            "reference": "Patient/f30493ab-b917-4281-b906-bab69aa2b1ba"
          },
          {
            "reference": "Bundle/45c5c9e9-7783-48a5-ba37-95bba49e0cf6"
          },
          {
            "reference": "Composition/18726fd0-ed9b-4342-b080-6952b48e3ff3"
          },
          {
            "reference": "PractitionerRole/5d347aaa-09c7-487c-9366-4e0ee29061d4"
          },
          {
            "reference": "Practitioner/7cd3d765-4fc9-4243-aa6f-2b605edb39f3"
          },
          {
            "reference": "PractitionerRole/40ca4945-e794-4ec8-a91d-479312dee32d"
          },
          {
            "reference": "Organization/f5362de9-b3b8-41f7-9b1c-fcd578ed4673"
          }
        ],
        "activity": {
          "text": "Synthetic Example Data Generation"
        },
        "policy": [
          "https://synderai.net/synderai-synthetic-data-policy"
        ],
        "agent": [
          {
            "type": {
              "text": "author"
            },
            "who": {
              "reference": "Device/356ef6a3-fcc6-44f3-8b25-7d42ea3846de"
            }
          }
        ],
        "reason": [
          {
            "text": "Interoperability Testing and Training (non-clinical use)"
          }
        ],
        "text": {
          "status": "generated",
          "div": "<div xmlns=\"http://www.w3.org/1999/xhtml\">Provenance for SYNDERAI Synthetic Example Data Resource</div>"
        },
        "recorded": "2017-01-30T23:11:04Z"
      }
    },
    {
      "fullUrl": "urn:uuid:5d347aaa-09c7-487c-9366-4e0ee29061d4",
      "resource": {
        "resourceType": "PractitionerRole",
        "id": "5d347aaa-09c7-487c-9366-4e0ee29061d4",
        "meta": {
          "profile": [
            "http://hl7.eu/fhir/base/StructureDefinition/practitionerRole-eu"
          ]
        },
        "text": {
          "status": "generated",
          "div": "<div xmlns=\"http://www.w3.org/1999/xhtml\">Laboratory Role Id: 5d347aaa-09c7-487c-9366-4e0ee29061d4</div>"
        },
        "practitioner": {
          "reference": "urn:uuid:7cd3d765-4fc9-4243-aa6f-2b605edb39f3"
        }
      }
    },
    {
      "fullUrl": "urn:uuid:7cd3d765-4fc9-4243-aa6f-2b605edb39f3",
      "resource": {
        "resourceType": "Practitioner",
        "id": "7cd3d765-4fc9-4243-aa6f-2b605edb39f3",
        "meta": {
          "profile": [
            "http://hl7.eu/fhir/base/StructureDefinition/practitioner-eu"
          ]
        },
        "identifier": [
          {
            "assigner": {
              "display": "HL7 Europe"
            },
            "system": "urn:oid:2.16.840.1.113883.2.51.999",
            "value": "4a615538-fe2a-46e0-9bf1-c51913d44aa4"
          }
        ],
        "name": [
          {
            "prefix": [
              "dr"
            ],
            "given": [
              "Ex"
            ],
            "family": "Ample"
          }
        ],
        "address": [
          {
            "line": [
              "Laboratoire Central Europenne",
              "Boulevard du Jardin Botanique 32"
            ],
            "postalCode": "1000",
            "city": "Brussels",
            "country": "Belgium"
          }
        ],
        "text": {
          "status": "generated",
          "div": "<div xmlns=\"http://www.w3.org/1999/xhtml\">Laboratory: Laboratoire Central Europenne, 1000 Brussels, Belgium</div>"
        }
      }
    }
  ],
  "type": "document",
  "timestamp": "2017-01-30T23:11:04Z"
}
