{
  "resourceType": "Bundle",
  "id": "ed55551a-c447-4df9-85d7-dd5647dd5cc1",
  "meta": {
    "profile": [
      "http://hl7.eu/fhir/laboratory/StructureDefinition/Bundle-eu-lab"
    ]
  },
  "identifier": {
    "assigner": {
      "display": "HL7 Europe"
    },
    "system": "urn:oid:2.16.840.1.113883.2.51.999",
    "value": "b81849d5-9609-4dd6-a0b2-5691d722c2a2"
  },
  "entry": [
    {
      "fullUrl": "urn:uuid:f2f25599-f8e4-49ec-8f80-feb667f95712",
      "resource": {
        "resourceType": "Composition",
        "id": "f2f25599-f8e4-49ec-8f80-feb667f95712",
        "meta": {
          "profile": [
            "http://hl7.eu/fhir/laboratory/StructureDefinition/Composition-eu-lab"
          ]
        },
        "identifier": {
          "assigner": {
            "display": "HL7 Europe"
          },
          "system": "urn:oid:2.16.840.1.113883.2.51.999",
          "value": "edd49993-7a98-429a-9849-0783eabb7161"
        },
        "author": [
          {
            "reference": "urn:uuid:9b4bdbfa-18f8-4390-8985-8ffa91f07505"
          }
        ],
        "category": [
          {
            "coding": [
              {
                "code": "26436-6",
                "system": "http://loinc.org",
                "display": "Laboratory studies (set)"
              }
            ]
          }
        ],
        "type": {
          "coding": [
            {
              "code": "11502-2",
              "system": "http://loinc.org",
              "display": "Laboratory report"
            }
          ],
          "text": "Laboratory Report"
        },
        "section": [
          {
            "code": {
              "coding": [
                {
                  "code": "26436-6",
                  "system": "http://loinc.org",
                  "display": "Laboratory studies (set)"
                }
              ],
              "text": "Laboratory studies"
            },
            "section": [
              {
                "code": {
                  "coding": [
                    {
                      "code": "$18719-5",
                      "system": "http://loinc.org",
                      "display": "Chemistry studies (set)"
                    }
                  ],
                  "text": "Chemistry"
                },
                "entry": [
                  {
                    "reference": "urn:uuid:246cce38-4143-44ad-b5fc-a937ad482323"
                  },
                  {
                    "reference": "urn:uuid:8f81c249-6788-447c-b250-5a768ca83692"
                  },
                  {
                    "reference": "urn:uuid:c2a55259-35a8-4371-8647-c31d75f70791"
                  },
                  {
                    "reference": "urn:uuid:dcfcde7e-b15b-4ccf-b3ba-3ff60cb27c01"
                  },
                  {
                    "reference": "urn:uuid:281dfcc8-918f-494d-b2f7-1912604297f9"
                  },
                  {
                    "reference": "urn:uuid:8c12874f-64dc-4d72-b2b6-50039791a17a"
                  },
                  {
                    "reference": "urn:uuid:56011128-549d-49b5-aed5-4877fe9a85d8"
                  },
                  {
                    "reference": "urn:uuid:eb1385bc-42cf-4b4b-b7be-370a21ca1678"
                  },
                  {
                    "reference": "urn:uuid:d5b81cc5-3130-4ac7-b574-5f61fb05b04e"
                  },
                  {
                    "reference": "urn:uuid:56d7766d-6714-412c-8275-096d9866dd31"
                  },
                  {
                    "reference": "urn:uuid:df7deb8d-0df0-4119-a2b6-81ecdce789a4"
                  },
                  {
                    "reference": "urn:uuid:d3584d75-e4c1-41ef-98ab-d553a71010d7"
                  },
                  {
                    "reference": "urn:uuid:7ccd1519-68bd-4f64-b079-a678f814e066"
                  },
                  {
                    "reference": "urn:uuid:558bdcd4-d5e1-4c4a-aaa1-10d602c52780"
                  },
                  {
                    "reference": "urn:uuid:79b6f7d9-205e-4dde-9bc6-207f7ab56553"
                  },
                  {
                    "reference": "urn:uuid:92961fc6-e3f3-4a7d-a4bc-ef2f593dc2c6"
                  },
                  {
                    "reference": "urn:uuid:ebd1e478-d9d2-4ce4-9d65-6ebcd2bcd2f4"
                  },
                  {
                    "reference": "urn:uuid:2439278c-bcbb-45b9-bca5-6ae0ed3397b6"
                  },
                  {
                    "reference": "urn:uuid:bdac3143-5ba7-4873-b7ee-ccad4f0ea73b"
                  }
                ],
                "text": {
                  "status": "generated",
                  "div": "<div xmlns=\"http://www.w3.org/1999/xhtml\"><h3>Chemistry</h3><table class=\"hl7__eu__lab__report\"><thead><tr><th>Test</th><th>16-JUN-2025</th><th>Reference&#xA0;Range</th><th>Unit</th></tr></thead><tbody><tr><td>Glucose [Mass/volume] in Blood</td><td><strong>65.9 L</strong></td><td>70 - 140</td><td>mg/dL</td></tr><tr><td>Urea nitrogen [Mass/volume] in Blood</td><td>13.5</td><td>7 - 20</td><td>mg/dL</td></tr><tr><td>Creatinine [Mass/volume] in Blood</td><td><strong>3.0 H</strong></td><td>0.6 - 1.3</td><td>mg/dL</td></tr><tr><td>Calcium [Mass/volume] in Blood</td><td>8.7</td><td>8.5 - 10.5</td><td>mg/dL</td></tr><tr><td>Sodium [Moles/volume] in Blood</td><td>139.7</td><td>135 - 145</td><td>mmol/L</td></tr><tr><td>Potassium [Moles/volume] in Blood</td><td>4.2</td><td>3.6 - 5.1</td><td>mmol/L</td></tr><tr><td>Chloride [Moles/volume] in Blood</td><td>102.9</td><td>98 - 107</td><td>mmol/L</td></tr><tr><td>Carbon dioxide, total [Moles/volume] in Blood</td><td><strong>20.4 L</strong></td><td>22 - 32</td><td>mmol/L</td></tr><tr><td>Protein [Mass/volume] in Serum or Plasma</td><td>6.5</td><td>6 - 8.3</td><td>g/dL</td></tr><tr><td>Albumin [Mass/volume] in Serum or Plasma</td><td>4.5</td><td>3.5 - 5</td><td>g/dL</td></tr><tr><td>Globulin [Mass/volume] in Serum by calculation</td><td>2.5</td><td>2 - 3.9</td><td>g/L</td></tr><tr><td>Bilirubin.total [Mass/volume] in Serum or Plasma</td><td>0.7</td><td>0.3 - 1.2</td><td>mg/dL</td></tr><tr><td>Alkaline phosphatase [Enzymatic activity/volume] in Serum or Plasma</td><td>40.1</td><td>32 - 150</td><td>U/L</td></tr><tr><td>Alanine aminotransferase [Enzymatic activity/volume] in Serum or Plasma</td><td><strong>43.2 H</strong></td><td>13 - 32</td><td>U/L</td></tr><tr><td>Aspartate aminotransferase [Enzymatic activity/volume] in Serum or Plasma</td><td>23.7</td><td>10 - 40</td><td>U/L</td></tr><tr><td>Cholesterol [Mass/volume] in Serum or Plasma</td><td>180.3</td><td>130 - 200</td><td>mg/dL</td></tr><tr><td>Triglyceride [Mass/volume] in Serum or Plasma</td><td>129.4</td><td>0 - 199</td><td>mg/dL</td></tr><tr><td>Cholesterol in LDL [Mass/volume] in Serum or Plasma by Direct assay</td><td>87.4</td><td>0 - 130</td><td>mg/dL</td></tr><tr><td>Cholesterol in HDL [Mass/volume] in Serum or Plasma</td><td>58.5</td><td>50 - 100</td><td>mg/dL</td></tr></tbody></table></div>"
                },
                "title": "Chemistry"
              }
            ],
            "title": "Laboratory Report"
          },
          {
            "text": {
              "status": "generated",
              "div": "<div xmlns=\"http://www.w3.org/1999/xhtml\"><h3>Annotation</h3><table class=\"hl7__eu__lab__report\"><tr><th>Conclusion and Recommendations based on this report and previous findings known to us</th></tr><tr><td>The patient shows mild hypoglycemia, significantly elevated creatinine suggesting impaired renal function, low total CO₂ indicating possible metabolic acidosis, and mildly elevated ALT, which may reflect mild liver involvement. Other parameters are within normal limits. Renal function and acid-base status require urgent clinical correlation and further evaluation.</td></tr></table></div>"
            },
            "code": {
              "coding": [
                {
                  "system": "http://loinc.org",
                  "code": "48767-8",
                  "display": "Annotation comment"
                }
              ]
            },
            "title": "Annotation comment"
          }
        ],
        "status": "final",
        "subject": {
          "reference": "urn:uuid:62712aa1-9d72-44ca-9f42-f64d8083f081",
          "display": "Aniela Prażmo"
        },
        "date": "2025-06-16T15:25:25Z",
        "title": "Laboratory Report",
        "confidentiality": "N"
      }
    },
    {
      "fullUrl": "urn:uuid:fe3736cd-c685-4e11-9c6a-728046624892",
      "resource": {
        "resourceType": "DiagnosticReport",
        "id": "fe3736cd-c685-4e11-9c6a-728046624892",
        "meta": {
          "profile": [
            "http://hl7.eu/fhir/laboratory/StructureDefinition/DiagnosticReport-eu-lab"
          ]
        },
        "identifier": [
          {
            "assigner": {
              "display": "HL7 Europe"
            },
            "system": "urn:oid:2.16.840.1.113883.2.51.999",
            "value": "8223dfcd-8896-41e7-b381-8b6c08cb7a77"
          }
        ],
        "extension": [
          {
            "url": "http://hl7.org/fhir/5.0/StructureDefinition/extension-DiagnosticReport.composition",
            "valueReference": {
              "reference": "urn:uuid:edd49993-7a98-429a-9849-0783eabb7161"
            }
          }
        ],
        "category": [
          {
            "coding": [
              {
                "code": "26436-6",
                "system": "http://loinc.org",
                "display": "Laboratory studies (set)"
              }
            ]
          }
        ],
        "specimen": [
          {
            "reference": "urn:uuid:a88a6369-dfc9-4b02-9b1b-865e2d8b23e5"
          },
          {
            "reference": "urn:uuid:02fe7688-7cfd-4225-8eeb-97b444620a3e"
          },
          {
            "reference": "urn:uuid:681eacad-3e88-470a-bda8-6f46b477fdbf"
          }
        ],
        "result": [
          {
            "reference": "urn:uuid:246cce38-4143-44ad-b5fc-a937ad482323"
          },
          {
            "reference": "urn:uuid:8f81c249-6788-447c-b250-5a768ca83692"
          },
          {
            "reference": "urn:uuid:c2a55259-35a8-4371-8647-c31d75f70791"
          },
          {
            "reference": "urn:uuid:dcfcde7e-b15b-4ccf-b3ba-3ff60cb27c01"
          },
          {
            "reference": "urn:uuid:281dfcc8-918f-494d-b2f7-1912604297f9"
          },
          {
            "reference": "urn:uuid:8c12874f-64dc-4d72-b2b6-50039791a17a"
          },
          {
            "reference": "urn:uuid:56011128-549d-49b5-aed5-4877fe9a85d8"
          },
          {
            "reference": "urn:uuid:eb1385bc-42cf-4b4b-b7be-370a21ca1678"
          },
          {
            "reference": "urn:uuid:d5b81cc5-3130-4ac7-b574-5f61fb05b04e"
          },
          {
            "reference": "urn:uuid:56d7766d-6714-412c-8275-096d9866dd31"
          },
          {
            "reference": "urn:uuid:df7deb8d-0df0-4119-a2b6-81ecdce789a4"
          },
          {
            "reference": "urn:uuid:d3584d75-e4c1-41ef-98ab-d553a71010d7"
          },
          {
            "reference": "urn:uuid:7ccd1519-68bd-4f64-b079-a678f814e066"
          },
          {
            "reference": "urn:uuid:558bdcd4-d5e1-4c4a-aaa1-10d602c52780"
          },
          {
            "reference": "urn:uuid:79b6f7d9-205e-4dde-9bc6-207f7ab56553"
          },
          {
            "reference": "urn:uuid:92961fc6-e3f3-4a7d-a4bc-ef2f593dc2c6"
          },
          {
            "reference": "urn:uuid:ebd1e478-d9d2-4ce4-9d65-6ebcd2bcd2f4"
          },
          {
            "reference": "urn:uuid:2439278c-bcbb-45b9-bca5-6ae0ed3397b6"
          },
          {
            "reference": "urn:uuid:bdac3143-5ba7-4873-b7ee-ccad4f0ea73b"
          }
        ],
        "status": "registered",
        "code": {
          "coding": [
            {
              "code": "11502-2",
              "system": "http://loinc.org",
              "display": "Laboratory report"
            }
          ]
        },
        "subject": {
          "reference": "urn:uuid:62712aa1-9d72-44ca-9f42-f64d8083f081",
          "display": "Aniela Prażmo"
        }
      }
    },
    {
      "fullUrl": "urn:uuid:62712aa1-9d72-44ca-9f42-f64d8083f081",
      "resource": {
        "resourceType": "Patient",
        "id": "62712aa1-9d72-44ca-9f42-f64d8083f081",
        "meta": {
          "security": [
            {
              "system": "http://terminology.hl7.org/CodeSystem/v3-ActReason",
              "code": "HTEST"
            },
            {
              "system": "http://terminology.hl7.org/CodeSystem/v3-ActReason",
              "code": "TRAIN"
            }
          ],
          "tag": [
            {
              "system": "https://synderai.net/fhir/CodeSystem/tags",
              "code": "synthetic",
              "display": "SYNDERAI Synthetic data"
            }
          ],
          "profile": [
            "http://hl7.eu/fhir/base/StructureDefinition/patient-eu-core"
          ]
        },
        "identifier": [
          {
            "type": {
              "coding": [
                {
                  "code": "PT",
                  "system": "http://terminology.hl7.org/CodeSystem/v2-0203"
                }
              ]
            },
            "system": "http://ec.europa.eu/identifier/eci",
            "value": "9657-869171-7"
          },
          {
            "type": {
              "coding": [
                {
                  "code": "MR",
                  "system": "http://terminology.hl7.org/CodeSystem/v2-0203"
                }
              ]
            },
            "system": "http://local.setting.eu/identifier",
            "value": "ab00158c-e2d0-01e4-6cf5-730949937551"
          }
        ],
        "name": [
          {
            "family": "Prażmo"
          },
          {
            "given": [
              "Aniela"
            ]
          },
          {
            "text": "Aniela Prażmo"
          }
        ],
        "address": [
          {
            "line": [
              "pl. Kołłątaja 62/43"
            ],
            "use": "home",
            "type": "physical",
            "postalCode": "97-200",
            "city": "Tomaszów Mazowiecki",
            "country": "Poland"
          }
        ],
        "telecom": [
          {
            "system": "phone",
            "value": "+48 782 809 233"
          }
        ],
        "extension": [
          {
            "url": "http://hl7.org/fhir/StructureDefinition/patient-nationality",
            "valueCodeableConcept": {
              "coding": [
                {
                  "code": "PL",
                  "system": "http://hl7.org/fhir/ValueSet/country"
                }
              ]
            }
          }
        ],
        "text": {
          "status": "generated",
          "div": "<div xmlns=\"http://www.w3.org/1999/xhtml\"><table class=\"hl7__ips\"><tr><td>Aniela Prażmo</td><td>female</td><td>08-Feb-1941</td></tr></table></div>"
        },
        "gender": "female",
        "birthDate": "1941-02-08"
      }
    },
    {
      "fullUrl": "urn:uuid:63896135-3d2e-488b-8f37-1a51b336e9a2",
      "resource": {
        "resourceType": "ServiceRequest",
        "id": "63896135-3d2e-488b-8f37-1a51b336e9a2",
        "meta": {
          "profile": [
            "http://hl7.eu/fhir/laboratory/StructureDefinition/ServiceRequest-eu-lab"
          ]
        },
        "identifier": [
          {
            "system": "http://example.org",
            "value": "147e0722-c4b5-451e-8259-0a51ac061008"
          }
        ],
        "specimen": [
          {
            "reference": "urn:uuid:a88a6369-dfc9-4b02-9b1b-865e2d8b23e5"
          },
          {
            "reference": "urn:uuid:02fe7688-7cfd-4225-8eeb-97b444620a3e"
          },
          {
            "reference": "urn:uuid:681eacad-3e88-470a-bda8-6f46b477fdbf"
          }
        ],
        "reasonCode": [
          {
            "coding": [
              {
                "code": "64859006",
                "system": "http://snomed.info/sct",
                "display": "Osteoporosis"
              }
            ]
          },
          {
            "coding": [
              {
                "code": "55822004",
                "system": "http://snomed.info/sct",
                "display": "Hyperlipidemia"
              }
            ]
          },
          {
            "coding": [
              {
                "code": "414545008",
                "system": "http://snomed.info/sct",
                "display": "Ischemic heart disease"
              }
            ]
          },
          {
            "coding": [
              {
                "code": "59621000",
                "system": "http://snomed.info/sct",
                "display": "Essential hypertension"
              }
            ]
          },
          {
            "coding": [
              {
                "code": "40055000",
                "system": "http://snomed.info/sct",
                "display": "Chronic sinusitis"
              }
            ]
          }
        ],
        "status": "active",
        "intent": "order",
        "code": {
          "coding": [
            {
              "code": "108252007",
              "system": "http://snomed.info/sct",
              "display": "Laboratory procedure"
            }
          ]
        },
        "subject": {
          "reference": "urn:uuid:62712aa1-9d72-44ca-9f42-f64d8083f081",
          "display": "Aniela Prażmo"
        },
        "requester": {
          "reference": "urn:uuid:95b930cc-4e0d-4bf6-9fce-1ba989a9cab0"
        }
      }
    },
    {
      "fullUrl": "urn:uuid:95b930cc-4e0d-4bf6-9fce-1ba989a9cab0",
      "resource": {
        "resourceType": "PractitionerRole",
        "id": "95b930cc-4e0d-4bf6-9fce-1ba989a9cab0",
        "meta": {
          "profile": [
            "http://hl7.eu/fhir/base/StructureDefinition/practitionerRole-eu"
          ]
        },
        "text": {
          "status": "generated",
          "div": "<div xmlns=\"http://www.w3.org/1999/xhtml\">Provider Role Id: 95b930cc-4e0d-4bf6-9fce-1ba989a9cab0</div>"
        },
        "organization": {
          "reference": "urn:uuid:8b6d3441-d30e-42f1-a93f-f649942e437d"
        }
      }
    },
    {
      "fullUrl": "urn:uuid:8b6d3441-d30e-42f1-a93f-f649942e437d",
      "resource": {
        "resourceType": "Organization",
        "id": "8b6d3441-d30e-42f1-a93f-f649942e437d",
        "meta": {
          "profile": [
            "http://hl7.eu/fhir/base/StructureDefinition/organization-eu"
          ]
        },
        "identifier": [
          {
            "assigner": {
              "display": "HL7 Europe"
            },
            "system": "urn:oid:2.16.840.1.113883.2.51.999",
            "value": "823b6e30-c86c-4c34-b11a-1da6b9039e1b"
          }
        ],
        "address": [
          {
            "city": "Tomaszów Mazowiecki",
            "postalCode": "97-200",
            "country": "Poland"
          }
        ],
        "text": {
          "status": "generated",
          "div": "<div xmlns=\"http://www.w3.org/1999/xhtml\">Provider Organization: Poradnia rehabilitacyjna</div>"
        },
        "name": "Poradnia rehabilitacyjna"
      }
    },
    {
      "fullUrl": "urn:uuid:a88a6369-dfc9-4b02-9b1b-865e2d8b23e5",
      "resource": {
        "resourceType": "Specimen",
        "id": "a88a6369-dfc9-4b02-9b1b-865e2d8b23e5",
        "meta": {
          "profile": [
            "http://hl7.eu/fhir/laboratory/StructureDefinition/Specimen-eu-lab"
          ]
        },
        "collection": {
          "collectedDateTime": "2025-06-16"
        },
        "text": {
          "status": "generated",
          "div": "<div xmlns=\"http://www.w3.org/1999/xhtml\"><table class=\"hl7__eu__lab__report\"><tr><th>Specimen</th><th>Collection Date</th></tr><tr><td>Whole blood specimen (specimen)</td><td><span class=\"nb\">16-Jun-2025</span></td></tr></table></div>"
        },
        "type": {
          "coding": [
            {
              "code": "258580003",
              "system": "http://snomed.info/sct",
              "display": "Whole blood specimen (specimen)"
            }
          ]
        }
      }
    },
    {
      "fullUrl": "urn:uuid:02fe7688-7cfd-4225-8eeb-97b444620a3e",
      "resource": {
        "resourceType": "Specimen",
        "id": "02fe7688-7cfd-4225-8eeb-97b444620a3e",
        "meta": {
          "profile": [
            "http://hl7.eu/fhir/laboratory/StructureDefinition/Specimen-eu-lab"
          ]
        },
        "collection": {
          "collectedDateTime": "2025-06-16"
        },
        "text": {
          "status": "generated",
          "div": "<div xmlns=\"http://www.w3.org/1999/xhtml\"><table class=\"hl7__eu__lab__report\"><tr><th>Specimen</th><th>Collection Date</th></tr><tr><td>Acellular blood (serum or plasma) specimen</td><td><span class=\"nb\">16-Jun-2025</span></td></tr></table></div>"
        },
        "type": {
          "coding": [
            {
              "code": "122592007",
              "system": "http://snomed.info/sct",
              "display": "Acellular blood (serum or plasma) specimen"
            }
          ]
        }
      }
    },
    {
      "fullUrl": "urn:uuid:681eacad-3e88-470a-bda8-6f46b477fdbf",
      "resource": {
        "resourceType": "Specimen",
        "id": "681eacad-3e88-470a-bda8-6f46b477fdbf",
        "meta": {
          "profile": [
            "http://hl7.eu/fhir/laboratory/StructureDefinition/Specimen-eu-lab"
          ]
        },
        "collection": {
          "collectedDateTime": "2025-06-16"
        },
        "text": {
          "status": "generated",
          "div": "<div xmlns=\"http://www.w3.org/1999/xhtml\"><table class=\"hl7__eu__lab__report\"><tr><th>Specimen</th><th>Collection Date</th></tr><tr><td>Serum specimen</td><td><span class=\"nb\">16-Jun-2025</span></td></tr></table></div>"
        },
        "type": {
          "coding": [
            {
              "code": "119364003",
              "system": "http://snomed.info/sct",
              "display": "Serum specimen"
            }
          ]
        }
      }
    },
    {
      "fullUrl": "urn:uuid:246cce38-4143-44ad-b5fc-a937ad482323",
      "resource": {
        "resourceType": "Observation",
        "id": "246cce38-4143-44ad-b5fc-a937ad482323",
        "meta": {
          "profile": [
            "http://hl7.eu/fhir/laboratory/StructureDefinition/Observation-resultslab-eu-lab"
          ]
        },
        "performer": [
          {
            "display": "The Central European Lab"
          }
        ],
        "category": [
          {
            "coding": [
              {
                "system": "http://terminology.hl7.org/CodeSystem/observation-category",
                "code": "laboratory"
              }
            ]
          }
        ],
        "code": {
          "coding": [
            {
              "code": "2339-0",
              "system": "http://loinc.org",
              "display": "Glucose [Mass/volume] in Blood"
            }
          ],
          "text": "Glucose [Mass/volume] in Blood"
        },
        "valueQuantity": {
          "system": "http://unitsofmeasure.org",
          "value": 65.9,
          "unit": "mg/dL",
          "code": "mg/dL"
        },
        "referenceRange": [
          {
            "low": {
              "value": 70,
              "code": "mg/dL",
              "system": "http://unitsofmeasure.org"
            }
          },
          {
            "high": {
              "value": 140,
              "code": "mg/dL",
              "system": "http://unitsofmeasure.org"
            }
          }
        ],
        "interpretation": [
          {
            "coding": [
              {
                "code": "L",
                "system": "http://terminology.hl7.org/CodeSystem/v3-ObservationInterpretation",
                "display": "Low"
              }
            ]
          }
        ],
        "text": {
          "status": "generated",
          "div": "<div xmlns=\"http://www.w3.org/1999/xhtml\"><table class=\"hl7__eu__lab__report\"><tr><th>Test</th><th>16-Jun-2025</th><th>Reference&#xA0;Range</th><th>Unit</th></tr><tr><td>Glucose [Mass/volume] in Blood</td><td>65.9</td><td>70 - 140</td><td>L</td><td>mg/dL</td></tr></table></div>"
        },
        "status": "final",
        "subject": {
          "reference": "urn:uuid:62712aa1-9d72-44ca-9f42-f64d8083f081",
          "display": "Aniela Prażmo"
        },
        "effectiveDateTime": "2025-06-16T13:25:25Z",
        "specimen": {
          "reference": "urn:uuid:a88a6369-dfc9-4b02-9b1b-865e2d8b23e5"
        }
      }
    },
    {
      "fullUrl": "urn:uuid:8f81c249-6788-447c-b250-5a768ca83692",
      "resource": {
        "resourceType": "Observation",
        "id": "8f81c249-6788-447c-b250-5a768ca83692",
        "meta": {
          "profile": [
            "http://hl7.eu/fhir/laboratory/StructureDefinition/Observation-resultslab-eu-lab"
          ]
        },
        "performer": [
          {
            "display": "The Central European Lab"
          }
        ],
        "category": [
          {
            "coding": [
              {
                "system": "http://terminology.hl7.org/CodeSystem/observation-category",
                "code": "laboratory"
              }
            ]
          }
        ],
        "code": {
          "coding": [
            {
              "code": "6299-2",
              "system": "http://loinc.org",
              "display": "Urea nitrogen [Mass/volume] in Blood"
            }
          ],
          "text": "Urea nitrogen [Mass/volume] in Blood"
        },
        "valueQuantity": {
          "system": "http://unitsofmeasure.org",
          "value": 13.5,
          "unit": "mg/dL",
          "code": "mg/dL"
        },
        "referenceRange": [
          {
            "low": {
              "value": 7,
              "code": "mg/dL",
              "system": "http://unitsofmeasure.org"
            }
          },
          {
            "high": {
              "value": 20,
              "code": "mg/dL",
              "system": "http://unitsofmeasure.org"
            }
          }
        ],
        "text": {
          "status": "generated",
          "div": "<div xmlns=\"http://www.w3.org/1999/xhtml\"><table class=\"hl7__eu__lab__report\"><tr><th>Test</th><th>16-Jun-2025</th><th>Reference&#xA0;Range</th><th>Unit</th></tr><tr><td>Urea nitrogen [Mass/volume] in Blood</td><td>13.5</td><td>7 - 20</td><td></td><td>mg/dL</td></tr></table></div>"
        },
        "status": "final",
        "subject": {
          "reference": "urn:uuid:62712aa1-9d72-44ca-9f42-f64d8083f081",
          "display": "Aniela Prażmo"
        },
        "effectiveDateTime": "2025-06-16T13:25:25Z",
        "specimen": {
          "reference": "urn:uuid:a88a6369-dfc9-4b02-9b1b-865e2d8b23e5"
        }
      }
    },
    {
      "fullUrl": "urn:uuid:c2a55259-35a8-4371-8647-c31d75f70791",
      "resource": {
        "resourceType": "Observation",
        "id": "c2a55259-35a8-4371-8647-c31d75f70791",
        "meta": {
          "profile": [
            "http://hl7.eu/fhir/laboratory/StructureDefinition/Observation-resultslab-eu-lab"
          ]
        },
        "performer": [
          {
            "display": "The Central European Lab"
          }
        ],
        "category": [
          {
            "coding": [
              {
                "system": "http://terminology.hl7.org/CodeSystem/observation-category",
                "code": "laboratory"
              }
            ]
          }
        ],
        "code": {
          "coding": [
            {
              "code": "38483-4",
              "system": "http://loinc.org",
              "display": "Creatinine [Mass/volume] in Blood"
            }
          ],
          "text": "Creatinine [Mass/volume] in Blood"
        },
        "valueQuantity": {
          "system": "http://unitsofmeasure.org",
          "value": 3,
          "unit": "mg/dL",
          "code": "mg/dL"
        },
        "referenceRange": [
          {
            "low": {
              "value": 0.6,
              "code": "mg/dL",
              "system": "http://unitsofmeasure.org"
            }
          },
          {
            "high": {
              "value": 1.3,
              "code": "mg/dL",
              "system": "http://unitsofmeasure.org"
            }
          }
        ],
        "interpretation": [
          {
            "coding": [
              {
                "code": "H",
                "system": "http://terminology.hl7.org/CodeSystem/v3-ObservationInterpretation",
                "display": "High"
              }
            ]
          }
        ],
        "text": {
          "status": "generated",
          "div": "<div xmlns=\"http://www.w3.org/1999/xhtml\"><table class=\"hl7__eu__lab__report\"><tr><th>Test</th><th>16-Jun-2025</th><th>Reference&#xA0;Range</th><th>Unit</th></tr><tr><td>Creatinine [Mass/volume] in Blood</td><td>3.0</td><td>0.6 - 1.3</td><td>H</td><td>mg/dL</td></tr></table></div>"
        },
        "status": "final",
        "subject": {
          "reference": "urn:uuid:62712aa1-9d72-44ca-9f42-f64d8083f081",
          "display": "Aniela Prażmo"
        },
        "effectiveDateTime": "2025-06-16T13:25:25Z",
        "specimen": {
          "reference": "urn:uuid:a88a6369-dfc9-4b02-9b1b-865e2d8b23e5"
        }
      }
    },
    {
      "fullUrl": "urn:uuid:dcfcde7e-b15b-4ccf-b3ba-3ff60cb27c01",
      "resource": {
        "resourceType": "Observation",
        "id": "dcfcde7e-b15b-4ccf-b3ba-3ff60cb27c01",
        "meta": {
          "profile": [
            "http://hl7.eu/fhir/laboratory/StructureDefinition/Observation-resultslab-eu-lab"
          ]
        },
        "performer": [
          {
            "display": "The Central European Lab"
          }
        ],
        "category": [
          {
            "coding": [
              {
                "system": "http://terminology.hl7.org/CodeSystem/observation-category",
                "code": "laboratory"
              }
            ]
          }
        ],
        "code": {
          "coding": [
            {
              "code": "49765-1",
              "system": "http://loinc.org",
              "display": "Calcium [Mass/volume] in Blood"
            }
          ],
          "text": "Calcium [Mass/volume] in Blood"
        },
        "valueQuantity": {
          "system": "http://unitsofmeasure.org",
          "value": 8.7,
          "unit": "mg/dL",
          "code": "mg/dL"
        },
        "referenceRange": [
          {
            "low": {
              "value": 8.5,
              "code": "mg/dL",
              "system": "http://unitsofmeasure.org"
            }
          },
          {
            "high": {
              "value": 10.5,
              "code": "mg/dL",
              "system": "http://unitsofmeasure.org"
            }
          }
        ],
        "text": {
          "status": "generated",
          "div": "<div xmlns=\"http://www.w3.org/1999/xhtml\"><table class=\"hl7__eu__lab__report\"><tr><th>Test</th><th>16-Jun-2025</th><th>Reference&#xA0;Range</th><th>Unit</th></tr><tr><td>Calcium [Mass/volume] in Blood</td><td>8.7</td><td>8.5 - 10.5</td><td></td><td>mg/dL</td></tr></table></div>"
        },
        "status": "final",
        "subject": {
          "reference": "urn:uuid:62712aa1-9d72-44ca-9f42-f64d8083f081",
          "display": "Aniela Prażmo"
        },
        "effectiveDateTime": "2025-06-16T13:25:25Z",
        "specimen": {
          "reference": "urn:uuid:a88a6369-dfc9-4b02-9b1b-865e2d8b23e5"
        }
      }
    },
    {
      "fullUrl": "urn:uuid:281dfcc8-918f-494d-b2f7-1912604297f9",
      "resource": {
        "resourceType": "Observation",
        "id": "281dfcc8-918f-494d-b2f7-1912604297f9",
        "meta": {
          "profile": [
            "http://hl7.eu/fhir/laboratory/StructureDefinition/Observation-resultslab-eu-lab"
          ]
        },
        "performer": [
          {
            "display": "The Central European Lab"
          }
        ],
        "category": [
          {
            "coding": [
              {
                "system": "http://terminology.hl7.org/CodeSystem/observation-category",
                "code": "laboratory"
              }
            ]
          }
        ],
        "code": {
          "coding": [
            {
              "code": "2947-0",
              "system": "http://loinc.org",
              "display": "Sodium [Moles/volume] in Blood"
            }
          ],
          "text": "Sodium [Moles/volume] in Blood"
        },
        "valueQuantity": {
          "system": "http://unitsofmeasure.org",
          "value": 139.7,
          "unit": "mmol/L",
          "code": "mmol/L"
        },
        "referenceRange": [
          {
            "low": {
              "value": 135,
              "code": "mmol/L",
              "system": "http://unitsofmeasure.org"
            }
          },
          {
            "high": {
              "value": 145,
              "code": "mmol/L",
              "system": "http://unitsofmeasure.org"
            }
          }
        ],
        "text": {
          "status": "generated",
          "div": "<div xmlns=\"http://www.w3.org/1999/xhtml\"><table class=\"hl7__eu__lab__report\"><tr><th>Test</th><th>16-Jun-2025</th><th>Reference&#xA0;Range</th><th>Unit</th></tr><tr><td>Sodium [Moles/volume] in Blood</td><td>139.7</td><td>135 - 145</td><td></td><td>mmol/L</td></tr></table></div>"
        },
        "status": "final",
        "subject": {
          "reference": "urn:uuid:62712aa1-9d72-44ca-9f42-f64d8083f081",
          "display": "Aniela Prażmo"
        },
        "effectiveDateTime": "2025-06-16T13:25:25Z",
        "specimen": {
          "reference": "urn:uuid:a88a6369-dfc9-4b02-9b1b-865e2d8b23e5"
        }
      }
    },
    {
      "fullUrl": "urn:uuid:8c12874f-64dc-4d72-b2b6-50039791a17a",
      "resource": {
        "resourceType": "Observation",
        "id": "8c12874f-64dc-4d72-b2b6-50039791a17a",
        "meta": {
          "profile": [
            "http://hl7.eu/fhir/laboratory/StructureDefinition/Observation-resultslab-eu-lab"
          ]
        },
        "performer": [
          {
            "display": "The Central European Lab"
          }
        ],
        "category": [
          {
            "coding": [
              {
                "system": "http://terminology.hl7.org/CodeSystem/observation-category",
                "code": "laboratory"
              }
            ]
          }
        ],
        "code": {
          "coding": [
            {
              "code": "6298-4",
              "system": "http://loinc.org",
              "display": "Potassium [Moles/volume] in Blood"
            }
          ],
          "text": "Potassium [Moles/volume] in Blood"
        },
        "valueQuantity": {
          "system": "http://unitsofmeasure.org",
          "value": 4.2,
          "unit": "mmol/L",
          "code": "mmol/L"
        },
        "referenceRange": [
          {
            "low": {
              "value": 3.6,
              "code": "mmol/L",
              "system": "http://unitsofmeasure.org"
            }
          },
          {
            "high": {
              "value": 5.1,
              "code": "mmol/L",
              "system": "http://unitsofmeasure.org"
            }
          }
        ],
        "text": {
          "status": "generated",
          "div": "<div xmlns=\"http://www.w3.org/1999/xhtml\"><table class=\"hl7__eu__lab__report\"><tr><th>Test</th><th>16-Jun-2025</th><th>Reference&#xA0;Range</th><th>Unit</th></tr><tr><td>Potassium [Moles/volume] in Blood</td><td>4.2</td><td>3.6 - 5.1</td><td></td><td>mmol/L</td></tr></table></div>"
        },
        "status": "final",
        "subject": {
          "reference": "urn:uuid:62712aa1-9d72-44ca-9f42-f64d8083f081",
          "display": "Aniela Prażmo"
        },
        "effectiveDateTime": "2025-06-16T13:25:25Z",
        "specimen": {
          "reference": "urn:uuid:a88a6369-dfc9-4b02-9b1b-865e2d8b23e5"
        }
      }
    },
    {
      "fullUrl": "urn:uuid:56011128-549d-49b5-aed5-4877fe9a85d8",
      "resource": {
        "resourceType": "Observation",
        "id": "56011128-549d-49b5-aed5-4877fe9a85d8",
        "meta": {
          "profile": [
            "http://hl7.eu/fhir/laboratory/StructureDefinition/Observation-resultslab-eu-lab"
          ]
        },
        "performer": [
          {
            "display": "The Central European Lab"
          }
        ],
        "category": [
          {
            "coding": [
              {
                "system": "http://terminology.hl7.org/CodeSystem/observation-category",
                "code": "laboratory"
              }
            ]
          }
        ],
        "code": {
          "coding": [
            {
              "code": "2069-3",
              "system": "http://loinc.org",
              "display": "Chloride [Moles/volume] in Blood"
            }
          ],
          "text": "Chloride [Moles/volume] in Blood"
        },
        "valueQuantity": {
          "system": "http://unitsofmeasure.org",
          "value": 102.9,
          "unit": "mmol/L",
          "code": "mmol/L"
        },
        "referenceRange": [
          {
            "low": {
              "value": 98,
              "code": "mmol/L",
              "system": "http://unitsofmeasure.org"
            }
          },
          {
            "high": {
              "value": 107,
              "code": "mmol/L",
              "system": "http://unitsofmeasure.org"
            }
          }
        ],
        "text": {
          "status": "generated",
          "div": "<div xmlns=\"http://www.w3.org/1999/xhtml\"><table class=\"hl7__eu__lab__report\"><tr><th>Test</th><th>16-Jun-2025</th><th>Reference&#xA0;Range</th><th>Unit</th></tr><tr><td>Chloride [Moles/volume] in Blood</td><td>102.9</td><td>98 - 107</td><td></td><td>mmol/L</td></tr></table></div>"
        },
        "status": "final",
        "subject": {
          "reference": "urn:uuid:62712aa1-9d72-44ca-9f42-f64d8083f081",
          "display": "Aniela Prażmo"
        },
        "effectiveDateTime": "2025-06-16T13:25:25Z",
        "specimen": {
          "reference": "urn:uuid:a88a6369-dfc9-4b02-9b1b-865e2d8b23e5"
        }
      }
    },
    {
      "fullUrl": "urn:uuid:eb1385bc-42cf-4b4b-b7be-370a21ca1678",
      "resource": {
        "resourceType": "Observation",
        "id": "eb1385bc-42cf-4b4b-b7be-370a21ca1678",
        "meta": {
          "profile": [
            "http://hl7.eu/fhir/laboratory/StructureDefinition/Observation-resultslab-eu-lab"
          ]
        },
        "performer": [
          {
            "display": "The Central European Lab"
          }
        ],
        "category": [
          {
            "coding": [
              {
                "system": "http://terminology.hl7.org/CodeSystem/observation-category",
                "code": "laboratory"
              }
            ]
          }
        ],
        "code": {
          "coding": [
            {
              "code": "20565-8",
              "system": "http://loinc.org",
              "display": "Carbon dioxide, total [Moles/volume] in Blood"
            }
          ],
          "text": "Carbon dioxide, total [Moles/volume] in Blood"
        },
        "valueQuantity": {
          "system": "http://unitsofmeasure.org",
          "value": 20.4,
          "unit": "mmol/L",
          "code": "mmol/L"
        },
        "referenceRange": [
          {
            "low": {
              "value": 22,
              "code": "mmol/L",
              "system": "http://unitsofmeasure.org"
            }
          },
          {
            "high": {
              "value": 32,
              "code": "mmol/L",
              "system": "http://unitsofmeasure.org"
            }
          }
        ],
        "interpretation": [
          {
            "coding": [
              {
                "code": "L",
                "system": "http://terminology.hl7.org/CodeSystem/v3-ObservationInterpretation",
                "display": "Low"
              }
            ]
          }
        ],
        "text": {
          "status": "generated",
          "div": "<div xmlns=\"http://www.w3.org/1999/xhtml\"><table class=\"hl7__eu__lab__report\"><tr><th>Test</th><th>16-Jun-2025</th><th>Reference&#xA0;Range</th><th>Unit</th></tr><tr><td>Carbon dioxide, total [Moles/volume] in Blood</td><td>20.4</td><td>22 - 32</td><td>L</td><td>mmol/L</td></tr></table></div>"
        },
        "status": "final",
        "subject": {
          "reference": "urn:uuid:62712aa1-9d72-44ca-9f42-f64d8083f081",
          "display": "Aniela Prażmo"
        },
        "effectiveDateTime": "2025-06-16T13:25:25Z",
        "specimen": {
          "reference": "urn:uuid:a88a6369-dfc9-4b02-9b1b-865e2d8b23e5"
        }
      }
    },
    {
      "fullUrl": "urn:uuid:d5b81cc5-3130-4ac7-b574-5f61fb05b04e",
      "resource": {
        "resourceType": "Observation",
        "id": "d5b81cc5-3130-4ac7-b574-5f61fb05b04e",
        "meta": {
          "profile": [
            "http://hl7.eu/fhir/laboratory/StructureDefinition/Observation-resultslab-eu-lab"
          ]
        },
        "performer": [
          {
            "display": "The Central European Lab"
          }
        ],
        "category": [
          {
            "coding": [
              {
                "system": "http://terminology.hl7.org/CodeSystem/observation-category",
                "code": "laboratory"
              }
            ]
          }
        ],
        "code": {
          "coding": [
            {
              "code": "2885-2",
              "system": "http://loinc.org",
              "display": "Protein [Mass/volume] in Serum or Plasma"
            }
          ],
          "text": "Protein [Mass/volume] in Serum or Plasma"
        },
        "valueQuantity": {
          "system": "http://unitsofmeasure.org",
          "value": 6.5,
          "unit": "g/dL",
          "code": "g/dL"
        },
        "referenceRange": [
          {
            "low": {
              "value": 6,
              "code": "g/dL",
              "system": "http://unitsofmeasure.org"
            }
          },
          {
            "high": {
              "value": 8.3,
              "code": "g/dL",
              "system": "http://unitsofmeasure.org"
            }
          }
        ],
        "text": {
          "status": "generated",
          "div": "<div xmlns=\"http://www.w3.org/1999/xhtml\"><table class=\"hl7__eu__lab__report\"><tr><th>Test</th><th>16-Jun-2025</th><th>Reference&#xA0;Range</th><th>Unit</th></tr><tr><td>Protein [Mass/volume] in Serum or Plasma</td><td>6.5</td><td>6 - 8.3</td><td></td><td>g/dL</td></tr></table></div>"
        },
        "status": "final",
        "subject": {
          "reference": "urn:uuid:62712aa1-9d72-44ca-9f42-f64d8083f081",
          "display": "Aniela Prażmo"
        },
        "effectiveDateTime": "2025-06-16T13:25:25Z",
        "specimen": {
          "reference": "urn:uuid:02fe7688-7cfd-4225-8eeb-97b444620a3e"
        }
      }
    },
    {
      "fullUrl": "urn:uuid:56d7766d-6714-412c-8275-096d9866dd31",
      "resource": {
        "resourceType": "Observation",
        "id": "56d7766d-6714-412c-8275-096d9866dd31",
        "meta": {
          "profile": [
            "http://hl7.eu/fhir/laboratory/StructureDefinition/Observation-resultslab-eu-lab"
          ]
        },
        "performer": [
          {
            "display": "The Central European Lab"
          }
        ],
        "category": [
          {
            "coding": [
              {
                "system": "http://terminology.hl7.org/CodeSystem/observation-category",
                "code": "laboratory"
              }
            ]
          }
        ],
        "code": {
          "coding": [
            {
              "code": "1751-7",
              "system": "http://loinc.org",
              "display": "Albumin [Mass/volume] in Serum or Plasma"
            }
          ],
          "text": "Albumin [Mass/volume] in Serum or Plasma"
        },
        "valueQuantity": {
          "system": "http://unitsofmeasure.org",
          "value": 4.5,
          "unit": "g/dL",
          "code": "g/dL"
        },
        "referenceRange": [
          {
            "low": {
              "value": 3.5,
              "code": "g/dL",
              "system": "http://unitsofmeasure.org"
            }
          },
          {
            "high": {
              "value": 5,
              "code": "g/dL",
              "system": "http://unitsofmeasure.org"
            }
          }
        ],
        "text": {
          "status": "generated",
          "div": "<div xmlns=\"http://www.w3.org/1999/xhtml\"><table class=\"hl7__eu__lab__report\"><tr><th>Test</th><th>16-Jun-2025</th><th>Reference&#xA0;Range</th><th>Unit</th></tr><tr><td>Albumin [Mass/volume] in Serum or Plasma</td><td>4.5</td><td>3.5 - 5</td><td></td><td>g/dL</td></tr></table></div>"
        },
        "status": "final",
        "subject": {
          "reference": "urn:uuid:62712aa1-9d72-44ca-9f42-f64d8083f081",
          "display": "Aniela Prażmo"
        },
        "effectiveDateTime": "2025-06-16T13:25:25Z",
        "specimen": {
          "reference": "urn:uuid:02fe7688-7cfd-4225-8eeb-97b444620a3e"
        }
      }
    },
    {
      "fullUrl": "urn:uuid:df7deb8d-0df0-4119-a2b6-81ecdce789a4",
      "resource": {
        "resourceType": "Observation",
        "id": "df7deb8d-0df0-4119-a2b6-81ecdce789a4",
        "meta": {
          "profile": [
            "http://hl7.eu/fhir/laboratory/StructureDefinition/Observation-resultslab-eu-lab"
          ]
        },
        "performer": [
          {
            "display": "The Central European Lab"
          }
        ],
        "category": [
          {
            "coding": [
              {
                "system": "http://terminology.hl7.org/CodeSystem/observation-category",
                "code": "laboratory"
              }
            ]
          }
        ],
        "code": {
          "coding": [
            {
              "code": "10834-0",
              "system": "http://loinc.org",
              "display": "Globulin [Mass/volume] in Serum by calculation"
            }
          ],
          "text": "Globulin [Mass/volume] in Serum by calculation"
        },
        "valueQuantity": {
          "system": "http://unitsofmeasure.org",
          "value": 2.5,
          "unit": "g/L",
          "code": "g/L"
        },
        "referenceRange": [
          {
            "low": {
              "value": 2,
              "code": "g/L",
              "system": "http://unitsofmeasure.org"
            }
          },
          {
            "high": {
              "value": 3.9,
              "code": "g/L",
              "system": "http://unitsofmeasure.org"
            }
          }
        ],
        "text": {
          "status": "generated",
          "div": "<div xmlns=\"http://www.w3.org/1999/xhtml\"><table class=\"hl7__eu__lab__report\"><tr><th>Test</th><th>16-Jun-2025</th><th>Reference&#xA0;Range</th><th>Unit</th></tr><tr><td>Globulin [Mass/volume] in Serum by calculation</td><td>2.5</td><td>2 - 3.9</td><td></td><td>g/L</td></tr></table></div>"
        },
        "status": "final",
        "subject": {
          "reference": "urn:uuid:62712aa1-9d72-44ca-9f42-f64d8083f081",
          "display": "Aniela Prażmo"
        },
        "effectiveDateTime": "2025-06-16T13:25:25Z",
        "specimen": {
          "reference": "urn:uuid:681eacad-3e88-470a-bda8-6f46b477fdbf"
        }
      }
    },
    {
      "fullUrl": "urn:uuid:d3584d75-e4c1-41ef-98ab-d553a71010d7",
      "resource": {
        "resourceType": "Observation",
        "id": "d3584d75-e4c1-41ef-98ab-d553a71010d7",
        "meta": {
          "profile": [
            "http://hl7.eu/fhir/laboratory/StructureDefinition/Observation-resultslab-eu-lab"
          ]
        },
        "performer": [
          {
            "display": "The Central European Lab"
          }
        ],
        "category": [
          {
            "coding": [
              {
                "system": "http://terminology.hl7.org/CodeSystem/observation-category",
                "code": "laboratory"
              }
            ]
          }
        ],
        "code": {
          "coding": [
            {
              "code": "1975-2",
              "system": "http://loinc.org",
              "display": "Bilirubin.total [Mass/volume] in Serum or Plasma"
            }
          ],
          "text": "Bilirubin.total [Mass/volume] in Serum or Plasma"
        },
        "valueQuantity": {
          "system": "http://unitsofmeasure.org",
          "value": 0.7,
          "unit": "mg/dL",
          "code": "mg/dL"
        },
        "referenceRange": [
          {
            "low": {
              "value": 0.3,
              "code": "mg/dL",
              "system": "http://unitsofmeasure.org"
            }
          },
          {
            "high": {
              "value": 1.2,
              "code": "mg/dL",
              "system": "http://unitsofmeasure.org"
            }
          }
        ],
        "text": {
          "status": "generated",
          "div": "<div xmlns=\"http://www.w3.org/1999/xhtml\"><table class=\"hl7__eu__lab__report\"><tr><th>Test</th><th>16-Jun-2025</th><th>Reference&#xA0;Range</th><th>Unit</th></tr><tr><td>Bilirubin.total [Mass/volume] in Serum or Plasma</td><td>0.7</td><td>0.3 - 1.2</td><td></td><td>mg/dL</td></tr></table></div>"
        },
        "status": "final",
        "subject": {
          "reference": "urn:uuid:62712aa1-9d72-44ca-9f42-f64d8083f081",
          "display": "Aniela Prażmo"
        },
        "effectiveDateTime": "2025-06-16T13:25:25Z",
        "specimen": {
          "reference": "urn:uuid:02fe7688-7cfd-4225-8eeb-97b444620a3e"
        }
      }
    },
    {
      "fullUrl": "urn:uuid:7ccd1519-68bd-4f64-b079-a678f814e066",
      "resource": {
        "resourceType": "Observation",
        "id": "7ccd1519-68bd-4f64-b079-a678f814e066",
        "meta": {
          "profile": [
            "http://hl7.eu/fhir/laboratory/StructureDefinition/Observation-resultslab-eu-lab"
          ]
        },
        "performer": [
          {
            "display": "The Central European Lab"
          }
        ],
        "category": [
          {
            "coding": [
              {
                "system": "http://terminology.hl7.org/CodeSystem/observation-category",
                "code": "laboratory"
              }
            ]
          }
        ],
        "code": {
          "coding": [
            {
              "code": "6768-6",
              "system": "http://loinc.org",
              "display": "Alkaline phosphatase [Enzymatic activity/volume] in Serum or Plasma"
            }
          ],
          "text": "Alkaline phosphatase [Enzymatic activity/volume] in Serum or Plasma"
        },
        "valueQuantity": {
          "system": "http://unitsofmeasure.org",
          "value": 40.1,
          "unit": "U/L",
          "code": "U/L"
        },
        "referenceRange": [
          {
            "low": {
              "value": 32,
              "code": "U/L",
              "system": "http://unitsofmeasure.org"
            }
          },
          {
            "high": {
              "value": 150,
              "code": "U/L",
              "system": "http://unitsofmeasure.org"
            }
          }
        ],
        "text": {
          "status": "generated",
          "div": "<div xmlns=\"http://www.w3.org/1999/xhtml\"><table class=\"hl7__eu__lab__report\"><tr><th>Test</th><th>16-Jun-2025</th><th>Reference&#xA0;Range</th><th>Unit</th></tr><tr><td>Alkaline phosphatase [Enzymatic activity/volume] in Serum or Plasma</td><td>40.1</td><td>32 - 150</td><td></td><td>U/L</td></tr></table></div>"
        },
        "status": "final",
        "subject": {
          "reference": "urn:uuid:62712aa1-9d72-44ca-9f42-f64d8083f081",
          "display": "Aniela Prażmo"
        },
        "effectiveDateTime": "2025-06-16T13:25:25Z",
        "specimen": {
          "reference": "urn:uuid:02fe7688-7cfd-4225-8eeb-97b444620a3e"
        }
      }
    },
    {
      "fullUrl": "urn:uuid:558bdcd4-d5e1-4c4a-aaa1-10d602c52780",
      "resource": {
        "resourceType": "Observation",
        "id": "558bdcd4-d5e1-4c4a-aaa1-10d602c52780",
        "meta": {
          "profile": [
            "http://hl7.eu/fhir/laboratory/StructureDefinition/Observation-resultslab-eu-lab"
          ]
        },
        "performer": [
          {
            "display": "The Central European Lab"
          }
        ],
        "category": [
          {
            "coding": [
              {
                "system": "http://terminology.hl7.org/CodeSystem/observation-category",
                "code": "laboratory"
              }
            ]
          }
        ],
        "code": {
          "coding": [
            {
              "code": "1742-6",
              "system": "http://loinc.org",
              "display": "Alanine aminotransferase [Enzymatic activity/volume] in Serum or Plasma"
            }
          ],
          "text": "Alanine aminotransferase [Enzymatic activity/volume] in Serum or Plasma"
        },
        "valueQuantity": {
          "system": "http://unitsofmeasure.org",
          "value": 43.2,
          "unit": "U/L",
          "code": "U/L"
        },
        "referenceRange": [
          {
            "low": {
              "value": 13,
              "code": "U/L",
              "system": "http://unitsofmeasure.org"
            }
          },
          {
            "high": {
              "value": 32,
              "code": "U/L",
              "system": "http://unitsofmeasure.org"
            }
          }
        ],
        "interpretation": [
          {
            "coding": [
              {
                "code": "H",
                "system": "http://terminology.hl7.org/CodeSystem/v3-ObservationInterpretation",
                "display": "High"
              }
            ]
          }
        ],
        "text": {
          "status": "generated",
          "div": "<div xmlns=\"http://www.w3.org/1999/xhtml\"><table class=\"hl7__eu__lab__report\"><tr><th>Test</th><th>16-Jun-2025</th><th>Reference&#xA0;Range</th><th>Unit</th></tr><tr><td>Alanine aminotransferase [Enzymatic activity/volume] in Serum or Plasma</td><td>43.2</td><td>13 - 32</td><td>H</td><td>U/L</td></tr></table></div>"
        },
        "status": "final",
        "subject": {
          "reference": "urn:uuid:62712aa1-9d72-44ca-9f42-f64d8083f081",
          "display": "Aniela Prażmo"
        },
        "effectiveDateTime": "2025-06-16T13:25:25Z",
        "specimen": {
          "reference": "urn:uuid:02fe7688-7cfd-4225-8eeb-97b444620a3e"
        }
      }
    },
    {
      "fullUrl": "urn:uuid:79b6f7d9-205e-4dde-9bc6-207f7ab56553",
      "resource": {
        "resourceType": "Observation",
        "id": "79b6f7d9-205e-4dde-9bc6-207f7ab56553",
        "meta": {
          "profile": [
            "http://hl7.eu/fhir/laboratory/StructureDefinition/Observation-resultslab-eu-lab"
          ]
        },
        "performer": [
          {
            "display": "The Central European Lab"
          }
        ],
        "category": [
          {
            "coding": [
              {
                "system": "http://terminology.hl7.org/CodeSystem/observation-category",
                "code": "laboratory"
              }
            ]
          }
        ],
        "code": {
          "coding": [
            {
              "code": "1920-8",
              "system": "http://loinc.org",
              "display": "Aspartate aminotransferase [Enzymatic activity/volume] in Serum or Plasma"
            }
          ],
          "text": "Aspartate aminotransferase [Enzymatic activity/volume] in Serum or Plasma"
        },
        "valueQuantity": {
          "system": "http://unitsofmeasure.org",
          "value": 23.7,
          "unit": "U/L",
          "code": "U/L"
        },
        "referenceRange": [
          {
            "low": {
              "value": 10,
              "code": "U/L",
              "system": "http://unitsofmeasure.org"
            }
          },
          {
            "high": {
              "value": 40,
              "code": "U/L",
              "system": "http://unitsofmeasure.org"
            }
          }
        ],
        "text": {
          "status": "generated",
          "div": "<div xmlns=\"http://www.w3.org/1999/xhtml\"><table class=\"hl7__eu__lab__report\"><tr><th>Test</th><th>16-Jun-2025</th><th>Reference&#xA0;Range</th><th>Unit</th></tr><tr><td>Aspartate aminotransferase [Enzymatic activity/volume] in Serum or Plasma</td><td>23.7</td><td>10 - 40</td><td></td><td>U/L</td></tr></table></div>"
        },
        "status": "final",
        "subject": {
          "reference": "urn:uuid:62712aa1-9d72-44ca-9f42-f64d8083f081",
          "display": "Aniela Prażmo"
        },
        "effectiveDateTime": "2025-06-16T13:25:25Z",
        "specimen": {
          "reference": "urn:uuid:02fe7688-7cfd-4225-8eeb-97b444620a3e"
        }
      }
    },
    {
      "fullUrl": "urn:uuid:92961fc6-e3f3-4a7d-a4bc-ef2f593dc2c6",
      "resource": {
        "resourceType": "Observation",
        "id": "92961fc6-e3f3-4a7d-a4bc-ef2f593dc2c6",
        "meta": {
          "profile": [
            "http://hl7.eu/fhir/laboratory/StructureDefinition/Observation-resultslab-eu-lab"
          ]
        },
        "performer": [
          {
            "display": "The Central European Lab"
          }
        ],
        "category": [
          {
            "coding": [
              {
                "system": "http://terminology.hl7.org/CodeSystem/observation-category",
                "code": "laboratory"
              }
            ]
          }
        ],
        "code": {
          "coding": [
            {
              "code": "2093-3",
              "system": "http://loinc.org",
              "display": "Cholesterol [Mass/volume] in Serum or Plasma"
            }
          ],
          "text": "Cholesterol [Mass/volume] in Serum or Plasma"
        },
        "valueQuantity": {
          "system": "http://unitsofmeasure.org",
          "value": 180.3,
          "unit": "mg/dL",
          "code": "mg/dL"
        },
        "referenceRange": [
          {
            "low": {
              "value": 130,
              "code": "mg/dL",
              "system": "http://unitsofmeasure.org"
            }
          },
          {
            "high": {
              "value": 200,
              "code": "mg/dL",
              "system": "http://unitsofmeasure.org"
            }
          }
        ],
        "text": {
          "status": "generated",
          "div": "<div xmlns=\"http://www.w3.org/1999/xhtml\"><table class=\"hl7__eu__lab__report\"><tr><th>Test</th><th>16-Jun-2025</th><th>Reference&#xA0;Range</th><th>Unit</th></tr><tr><td>Cholesterol [Mass/volume] in Serum or Plasma</td><td>180.3</td><td>130 - 200</td><td></td><td>mg/dL</td></tr></table></div>"
        },
        "status": "final",
        "subject": {
          "reference": "urn:uuid:62712aa1-9d72-44ca-9f42-f64d8083f081",
          "display": "Aniela Prażmo"
        },
        "effectiveDateTime": "2025-06-16T13:25:25Z",
        "specimen": {
          "reference": "urn:uuid:02fe7688-7cfd-4225-8eeb-97b444620a3e"
        }
      }
    },
    {
      "fullUrl": "urn:uuid:ebd1e478-d9d2-4ce4-9d65-6ebcd2bcd2f4",
      "resource": {
        "resourceType": "Observation",
        "id": "ebd1e478-d9d2-4ce4-9d65-6ebcd2bcd2f4",
        "meta": {
          "profile": [
            "http://hl7.eu/fhir/laboratory/StructureDefinition/Observation-resultslab-eu-lab"
          ]
        },
        "performer": [
          {
            "display": "The Central European Lab"
          }
        ],
        "category": [
          {
            "coding": [
              {
                "system": "http://terminology.hl7.org/CodeSystem/observation-category",
                "code": "laboratory"
              }
            ]
          }
        ],
        "code": {
          "coding": [
            {
              "code": "2571-8",
              "system": "http://loinc.org",
              "display": "Triglyceride [Mass/volume] in Serum or Plasma"
            }
          ],
          "text": "Triglyceride [Mass/volume] in Serum or Plasma"
        },
        "valueQuantity": {
          "system": "http://unitsofmeasure.org",
          "value": 129.4,
          "unit": "mg/dL",
          "code": "mg/dL"
        },
        "referenceRange": [
          {
            "low": {
              "value": 0,
              "code": "mg/dL",
              "system": "http://unitsofmeasure.org"
            }
          },
          {
            "high": {
              "value": 199,
              "code": "mg/dL",
              "system": "http://unitsofmeasure.org"
            }
          }
        ],
        "text": {
          "status": "generated",
          "div": "<div xmlns=\"http://www.w3.org/1999/xhtml\"><table class=\"hl7__eu__lab__report\"><tr><th>Test</th><th>16-Jun-2025</th><th>Reference&#xA0;Range</th><th>Unit</th></tr><tr><td>Triglyceride [Mass/volume] in Serum or Plasma</td><td>129.4</td><td>0 - 199</td><td></td><td>mg/dL</td></tr></table></div>"
        },
        "status": "final",
        "subject": {
          "reference": "urn:uuid:62712aa1-9d72-44ca-9f42-f64d8083f081",
          "display": "Aniela Prażmo"
        },
        "effectiveDateTime": "2025-06-16T13:25:25Z",
        "specimen": {
          "reference": "urn:uuid:02fe7688-7cfd-4225-8eeb-97b444620a3e"
        }
      }
    },
    {
      "fullUrl": "urn:uuid:2439278c-bcbb-45b9-bca5-6ae0ed3397b6",
      "resource": {
        "resourceType": "Observation",
        "id": "2439278c-bcbb-45b9-bca5-6ae0ed3397b6",
        "meta": {
          "profile": [
            "http://hl7.eu/fhir/laboratory/StructureDefinition/Observation-resultslab-eu-lab"
          ]
        },
        "performer": [
          {
            "display": "The Central European Lab"
          }
        ],
        "category": [
          {
            "coding": [
              {
                "system": "http://terminology.hl7.org/CodeSystem/observation-category",
                "code": "laboratory"
              }
            ]
          }
        ],
        "code": {
          "coding": [
            {
              "code": "18262-6",
              "system": "http://loinc.org",
              "display": "Cholesterol in LDL [Mass/volume] in Serum or Plasma by Direct assay"
            }
          ],
          "text": "Cholesterol in LDL [Mass/volume] in Serum or Plasma by Direct assay"
        },
        "valueQuantity": {
          "system": "http://unitsofmeasure.org",
          "value": 87.4,
          "unit": "mg/dL",
          "code": "mg/dL"
        },
        "referenceRange": [
          {
            "low": {
              "value": 0,
              "code": "mg/dL",
              "system": "http://unitsofmeasure.org"
            }
          },
          {
            "high": {
              "value": 130,
              "code": "mg/dL",
              "system": "http://unitsofmeasure.org"
            }
          }
        ],
        "text": {
          "status": "generated",
          "div": "<div xmlns=\"http://www.w3.org/1999/xhtml\"><table class=\"hl7__eu__lab__report\"><tr><th>Test</th><th>16-Jun-2025</th><th>Reference&#xA0;Range</th><th>Unit</th></tr><tr><td>Cholesterol in LDL [Mass/volume] in Serum or Plasma by Direct assay</td><td>87.4</td><td>0 - 130</td><td></td><td>mg/dL</td></tr></table></div>"
        },
        "status": "final",
        "subject": {
          "reference": "urn:uuid:62712aa1-9d72-44ca-9f42-f64d8083f081",
          "display": "Aniela Prażmo"
        },
        "effectiveDateTime": "2025-06-16T13:25:25Z",
        "specimen": {
          "reference": "urn:uuid:02fe7688-7cfd-4225-8eeb-97b444620a3e"
        }
      }
    },
    {
      "fullUrl": "urn:uuid:bdac3143-5ba7-4873-b7ee-ccad4f0ea73b",
      "resource": {
        "resourceType": "Observation",
        "id": "bdac3143-5ba7-4873-b7ee-ccad4f0ea73b",
        "meta": {
          "profile": [
            "http://hl7.eu/fhir/laboratory/StructureDefinition/Observation-resultslab-eu-lab"
          ]
        },
        "performer": [
          {
            "display": "The Central European Lab"
          }
        ],
        "category": [
          {
            "coding": [
              {
                "system": "http://terminology.hl7.org/CodeSystem/observation-category",
                "code": "laboratory"
              }
            ]
          }
        ],
        "code": {
          "coding": [
            {
              "code": "2085-9",
              "system": "http://loinc.org",
              "display": "Cholesterol in HDL [Mass/volume] in Serum or Plasma"
            }
          ],
          "text": "Cholesterol in HDL [Mass/volume] in Serum or Plasma"
        },
        "valueQuantity": {
          "system": "http://unitsofmeasure.org",
          "value": 58.5,
          "unit": "mg/dL",
          "code": "mg/dL"
        },
        "referenceRange": [
          {
            "low": {
              "value": 50,
              "code": "mg/dL",
              "system": "http://unitsofmeasure.org"
            }
          },
          {
            "high": {
              "value": 100,
              "code": "mg/dL",
              "system": "http://unitsofmeasure.org"
            }
          }
        ],
        "text": {
          "status": "generated",
          "div": "<div xmlns=\"http://www.w3.org/1999/xhtml\"><table class=\"hl7__eu__lab__report\"><tr><th>Test</th><th>16-Jun-2025</th><th>Reference&#xA0;Range</th><th>Unit</th></tr><tr><td>Cholesterol in HDL [Mass/volume] in Serum or Plasma</td><td>58.5</td><td>50 - 100</td><td></td><td>mg/dL</td></tr></table></div>"
        },
        "status": "final",
        "subject": {
          "reference": "urn:uuid:62712aa1-9d72-44ca-9f42-f64d8083f081",
          "display": "Aniela Prażmo"
        },
        "effectiveDateTime": "2025-06-16T13:25:25Z",
        "specimen": {
          "reference": "urn:uuid:02fe7688-7cfd-4225-8eeb-97b444620a3e"
        }
      }
    },
    {
      "fullUrl": "urn:uuid:4bb611c5-2835-44c8-ab95-23c94a87f680",
      "resource": {
        "resourceType": "Device",
        "id": "4bb611c5-2835-44c8-ab95-23c94a87f680",
        "deviceName": [
          {
            "name": "SYNDERAI Synthetic Generator",
            "type": "manufacturer-name"
          }
        ],
        "version": [
          {
            "value": "5.0"
          }
        ],
        "text": {
          "status": "generated",
          "div": "<div xmlns=\"http://www.w3.org/1999/xhtml\">SYNDERAI Synthetic Generator v5.0</div>"
        },
        "status": "active\"",
        "distinctIdentifier": "synderai-generator-50",
        "manufacturer": "SYNDERAI Project"
      }
    },
    {
      "fullUrl": "urn:uuid:2426a95d-6d8c-4a39-b998-9106f656d094",
      "resource": {
        "resourceType": "Provenance",
        "id": "2426a95d-6d8c-4a39-b998-9106f656d094",
        "target": [
          {
            "reference": "Patient/62712aa1-9d72-44ca-9f42-f64d8083f081"
          },
          {
            "reference": "Bundle/ed55551a-c447-4df9-85d7-dd5647dd5cc1"
          },
          {
            "reference": "Composition/f2f25599-f8e4-49ec-8f80-feb667f95712"
          },
          {
            "reference": "PractitionerRole/9b4bdbfa-18f8-4390-8985-8ffa91f07505"
          },
          {
            "reference": "Practitioner/4c018316-1442-4f24-992a-8b7fd004e4b7"
          },
          {
            "reference": "PractitionerRole/95b930cc-4e0d-4bf6-9fce-1ba989a9cab0"
          },
          {
            "reference": "Organization/8b6d3441-d30e-42f1-a93f-f649942e437d"
          }
        ],
        "activity": {
          "text": "Synthetic Example Data Generation"
        },
        "policy": [
          "https://synderai.net/synderai-synthetic-data-policy"
        ],
        "agent": [
          {
            "type": {
              "text": "author"
            },
            "who": {
              "reference": "Device/4bb611c5-2835-44c8-ab95-23c94a87f680"
            }
          }
        ],
        "reason": [
          {
            "text": "Interoperability Testing and Training (non-clinical use)"
          }
        ],
        "text": {
          "status": "generated",
          "div": "<div xmlns=\"http://www.w3.org/1999/xhtml\">Provenance for SYNDERAI Synthetic Example Data Resource</div>"
        },
        "recorded": "2025-06-16T15:25:25Z"
      }
    },
    {
      "fullUrl": "urn:uuid:9b4bdbfa-18f8-4390-8985-8ffa91f07505",
      "resource": {
        "resourceType": "PractitionerRole",
        "id": "9b4bdbfa-18f8-4390-8985-8ffa91f07505",
        "meta": {
          "profile": [
            "http://hl7.eu/fhir/base/StructureDefinition/practitionerRole-eu"
          ]
        },
        "text": {
          "status": "generated",
          "div": "<div xmlns=\"http://www.w3.org/1999/xhtml\">Laboratory Role Id: 9b4bdbfa-18f8-4390-8985-8ffa91f07505</div>"
        },
        "practitioner": {
          "reference": "urn:uuid:4c018316-1442-4f24-992a-8b7fd004e4b7"
        }
      }
    },
    {
      "fullUrl": "urn:uuid:4c018316-1442-4f24-992a-8b7fd004e4b7",
      "resource": {
        "resourceType": "Practitioner",
        "id": "4c018316-1442-4f24-992a-8b7fd004e4b7",
        "meta": {
          "profile": [
            "http://hl7.eu/fhir/base/StructureDefinition/practitioner-eu"
          ]
        },
        "identifier": [
          {
            "assigner": {
              "display": "HL7 Europe"
            },
            "system": "urn:oid:2.16.840.1.113883.2.51.999",
            "value": "74feaf54-85fb-41f6-ae33-9b0bd6c5a7c5"
          }
        ],
        "name": [
          {
            "prefix": [
              "dr"
            ],
            "given": [
              "Ex"
            ],
            "family": "Ample"
          }
        ],
        "address": [
          {
            "line": [
              "Laboratoire Central Européenne",
              "Boulevard du Jardin Botanique 32"
            ],
            "postalCode": "1000",
            "city": "Brussels",
            "country": "Belgium"
          }
        ],
        "text": {
          "status": "generated",
          "div": "<div xmlns=\"http://www.w3.org/1999/xhtml\">Laboratory: Laboratoire Central Européenne, 1000 Brussels, Belgium</div>"
        }
      }
    }
  ],
  "type": "document",
  "timestamp": "2025-06-16T15:25:25Z"
}
