{
  "resourceType": "Bundle",
  "id": "a7da2ec7-814d-4d05-a990-82965b9c610e",
  "meta": {
    "profile": [
      "http://hl7.eu/fhir/laboratory/StructureDefinition/Bundle-eu-lab"
    ]
  },
  "identifier": {
    "assigner": {
      "display": "HL7 Europe"
    },
    "system": "urn:oid:2.16.840.1.113883.2.51.999",
    "value": "d94d52dd-6fc8-421f-a28c-368a1a73d0c6"
  },
  "entry": [
    {
      "fullUrl": "urn:uuid:7f19fe6b-5993-423e-a823-98b624bf346c",
      "resource": {
        "resourceType": "Composition",
        "id": "7f19fe6b-5993-423e-a823-98b624bf346c",
        "meta": {
          "profile": [
            "http://hl7.eu/fhir/laboratory/StructureDefinition/Composition-eu-lab"
          ]
        },
        "identifier": {
          "assigner": {
            "display": "HL7 Europe"
          },
          "system": "urn:oid:2.16.840.1.113883.2.51.999",
          "value": "32adf682-096d-4309-816f-4d4ceb851e04"
        },
        "author": [
          {
            "reference": "urn:uuid:78bcdab3-2a5b-4021-a9b1-8a069c9f59c0"
          }
        ],
        "category": [
          {
            "coding": [
              {
                "code": "26436-6",
                "system": "http://loinc.org",
                "display": "Laboratory studies (set)"
              }
            ]
          }
        ],
        "type": {
          "coding": [
            {
              "code": "11502-2",
              "system": "http://loinc.org",
              "display": "Laboratory report"
            }
          ],
          "text": "Laboratory Report"
        },
        "section": [
          {
            "code": {
              "coding": [
                {
                  "code": "26436-6",
                  "system": "http://loinc.org",
                  "display": "Laboratory studies (set)"
                }
              ],
              "text": "Laboratory studies"
            },
            "section": [
              {
                "code": {
                  "coding": [
                    {
                      "code": "$18719-5",
                      "system": "http://loinc.org",
                      "display": "Chemistry studies (set)"
                    }
                  ],
                  "text": "Chemistry"
                },
                "entry": [
                  {
                    "reference": "urn:uuid:a698be5f-822a-4a4a-bbad-abe315518218"
                  },
                  {
                    "reference": "urn:uuid:8c8c200e-7312-4bdf-9d4e-38381c200fef"
                  },
                  {
                    "reference": "urn:uuid:25092727-362a-497f-a0cb-b797ee51958d"
                  },
                  {
                    "reference": "urn:uuid:71010ff6-507f-4846-9597-0f8393de8ca6"
                  },
                  {
                    "reference": "urn:uuid:d0f8e684-59a8-47c7-b1cd-2911ff19daec"
                  },
                  {
                    "reference": "urn:uuid:e0bb0ff5-7865-44fe-8b60-1e8781cb1526"
                  },
                  {
                    "reference": "urn:uuid:40683a9d-fa36-48d1-ab55-e0d1c0a76f4a"
                  },
                  {
                    "reference": "urn:uuid:a9615568-378e-499c-bcab-eb5dae4cdcd4"
                  },
                  {
                    "reference": "urn:uuid:5c902857-4e81-43a9-bb89-fb1c9cd198a8"
                  },
                  {
                    "reference": "urn:uuid:73084069-def4-40e0-a9b0-496a35ce871b"
                  }
                ],
                "text": {
                  "status": "generated",
                  "div": "<div xmlns=\"http://www.w3.org/1999/xhtml\"><h3>Chemistry</h3><table class=\"hl7__eu__lab__report\"><thead><tr><th>Test</th><th>07-NOV-2016</th><th>Reference&#xA0;Range</th><th>Unit</th></tr></thead><tbody><tr><td>Glucose [Mass/volume] in Serum or Plasma</td><td>81.6</td><td>70 - 99</td><td>mg/dL</td></tr><tr><td>Urea nitrogen [Mass/volume] in Serum or Plasma</td><td>15.2</td><td>7 - 50</td><td>mg/dL</td></tr><tr><td>Creatinine [Mass/volume] in Serum or Plasma</td><td><strong>1.9 H</strong></td><td>0.6 - 1.1</td><td>mg/dL</td></tr><tr><td>Calcium [Mass/volume] in Serum or Plasma</td><td>10.0</td><td>8.6 - 10.4</td><td>mg/dL</td></tr><tr><td>Sodium [Moles/volume] in Serum or Plasma</td><td>139.9</td><td>135 - 145</td><td>mmol/L</td></tr><tr><td>Potassium [Moles/volume] in Serum or Plasma</td><td>5.1</td><td>3.5 - 5.1</td><td>mmol/L</td></tr><tr><td>Chloride [Moles/volume] in Serum or Plasma</td><td>102.8</td><td>98 - 108</td><td>mmol/L</td></tr><tr><td>Carbon dioxide, total [Moles/volume] in Serum or Plasma</td><td>24.7</td><td>22 - 32</td><td>mmol/L</td></tr><tr><td>Ketones [Presence] in Urine by Test strip</td><td>Urine ketone test = +</td><td></td><td></td></tr><tr><td>Hemoglobin A1c/Hemoglobin.total in Blood</td><td><strong>3.3 L</strong></td><td>4 - 6.4</td><td>%</td></tr></tbody></table></div>"
                },
                "title": "Chemistry"
              },
              {
                "code": {
                  "coding": [
                    {
                      "code": "$18729-4",
                      "system": "http://loinc.org",
                      "display": "Urinalysis studies (set)"
                    }
                  ],
                  "text": "Urinalysis"
                },
                "entry": [
                  {
                    "reference": "urn:uuid:62969353-49f0-4ab0-b398-14f71896bd83"
                  },
                  {
                    "reference": "urn:uuid:123dfab7-f7e0-44b3-9f89-57a84bb2c2e7"
                  },
                  {
                    "reference": "urn:uuid:056abc9b-74c6-4f43-94cc-dc1366ce0ff8"
                  },
                  {
                    "reference": "urn:uuid:724b7d75-bf71-4fe0-94bd-6e9b544d195c"
                  },
                  {
                    "reference": "urn:uuid:d5d7c00b-712c-40db-96c6-2e11b02a7925"
                  },
                  {
                    "reference": "urn:uuid:d570d03b-1be8-4caf-af6c-888bec4743ec"
                  },
                  {
                    "reference": "urn:uuid:e597fc47-7a26-4915-9cde-9c59941dd1b4"
                  },
                  {
                    "reference": "urn:uuid:39d04fa0-ddb8-4f6b-af3f-87ee5353c2d5"
                  },
                  {
                    "reference": "urn:uuid:05df5d7d-4033-4f73-b66e-7c0787616d84"
                  },
                  {
                    "reference": "urn:uuid:27429433-2903-4c06-a30a-7258bb9caa12"
                  },
                  {
                    "reference": "urn:uuid:8fb9403c-c01a-44e5-883a-50f75c1d4dd3"
                  },
                  {
                    "reference": "urn:uuid:a0b0fe55-c7f6-4950-9dbe-7ee7f571f1c5"
                  }
                ],
                "text": {
                  "status": "generated",
                  "div": "<div xmlns=\"http://www.w3.org/1999/xhtml\"><h3>Urinalysis</h3><table class=\"hl7__eu__lab__report\"><thead><tr><th>Test</th><th>07-NOV-2016</th><th>Reference&#xA0;Range</th><th>Unit</th></tr></thead><tbody><tr><td>Glucose [Mass/volume] in Urine by Test strip</td><td><strong>2.2 H</strong></td><td>0.8 - 0</td><td>mg/dL</td></tr><tr><td>Glucose [Presence] in Urine by Test strip</td><td>++</td><td></td><td></td></tr><tr><td>Bilirubin.total [Mass/volume] in Urine by Test strip</td><td>0.8</td><td>0 - 1</td><td>mg/dL</td></tr><tr><td>Bilirubin.total [Presence] in Urine by Test strip</td><td>Finding of bilirubin in urine</td><td></td><td></td></tr><tr><td>Ketones [Mass/volume] in Urine by Test strip</td><td><strong>9.3 H</strong></td><td>0 - 4</td><td>mg/dL</td></tr><tr><td>Specific gravity of Urine by Test strip</td><td><strong>1.0 L</strong></td><td>1.005 - 1.03</td><td>{nominal}</td></tr><tr><td>pH of Urine by Test strip</td><td>5.4</td><td>4.6 - 7</td><td>pH</td></tr><tr><td>Protein [Mass/volume] in Urine by Test strip</td><td><strong>225.5 H</strong></td><td>0 - 14</td><td>mg/dL</td></tr><tr><td>Protein [Presence] in Urine by Test strip</td><td>Urine protein test = ++</td><td></td><td></td></tr><tr><td>Nitrite [Presence] in Urine by Test strip</td><td>Urine nitrite negative</td><td></td><td></td></tr><tr><td>Hemoglobin [Presence] in Urine by Test strip</td><td>Urine blood test = negative</td><td></td><td></td></tr><tr><td>Leukocyte esterase [Presence] in Urine by Test strip</td><td>Urine leukocyte test negative</td><td></td><td></td></tr></tbody></table></div>"
                },
                "title": "Urinalysis"
              },
              {
                "code": {
                  "coding": [
                    {
                      "code": "$LP7846-1",
                      "system": "http://loinc.org",
                      "display": "Specimen information"
                    }
                  ],
                  "text": "Specimen information"
                },
                "entry": [
                  {
                    "reference": "urn:uuid:0aff6aba-63c4-44ab-891b-bb41cef64e5c"
                  },
                  {
                    "reference": "urn:uuid:28d4d0ae-f374-41be-9ca8-751e78f45f67"
                  },
                  {
                    "reference": "urn:uuid:02c7e61a-2270-46bb-ab12-20e8076991d5"
                  },
                  {
                    "reference": "urn:uuid:8555ab0f-8672-499a-8663-8b4d93602fd2"
                  }
                ],
                "text": {
                  "status": "generated",
                  "div": "<div xmlns=\"http://www.w3.org/1999/xhtml\"><h3>Specimen information</h3><table class=\"hl7__eu__lab__report\"><thead><tr><th>Test</th><th>07-NOV-2016</th><th>Specimen</th><th></th></tr></thead><tbody><tr><td>Appearance of Urine</td><td>Cloudy urine</td><td>Urine</td><td></td></tr><tr><td>Odor of Urine</td><td>Urine smell ammoniacal</td><td>Urine</td><td></td></tr><tr><td>Clarity of Urine</td><td>Translucent</td><td>Urine</td><td></td></tr><tr><td>Color of Urine</td><td>Brown color</td><td>Urine</td><td></td></tr></tbody></table></div>"
                },
                "title": "Specimen information"
              }
            ],
            "title": "Laboratory Report"
          },
          {
            "text": {
              "status": "generated",
              "div": "<div xmlns=\"http://www.w3.org/1999/xhtml\"><h3>Annotation</h3><table class=\"hl7__eu__lab__report\"><tr><th>Conclusion and Recommendations based on this report and previous findings known to us</th></tr><tr><td>The patient shows elevated serum creatinine, suggesting impaired renal function. Urinalysis reveals significant proteinuria, glucosuria, ketonuria, low specific gravity, and abnormal urine appearance (cloudy, brown, ammoniacal), all indicating possible renal pathology (e.g., diabetic nephropathy or acute kidney injury). However, HbA1c is low, arguing against chronic hyperglycemia. No evidence of urinary tract infection. Recommend further nephrological evaluation and assessment for possible acute or chronic kidney disease.</td></tr></table></div>"
            },
            "code": {
              "coding": [
                {
                  "system": "http://loinc.org",
                  "code": "48767-8",
                  "display": "Annotation comment"
                }
              ]
            },
            "title": "Annotation comment"
          }
        ],
        "status": "final",
        "subject": {
          "reference": "urn:uuid:1ccc2927-1bea-433a-9119-ad03e5106e4f",
          "display": "Meaghan Neary"
        },
        "date": "2016-11-07T23:11:04Z",
        "title": "Laboratory Report",
        "confidentiality": "N"
      }
    },
    {
      "fullUrl": "urn:uuid:114bd2ea-9e88-4c87-8964-717944159310",
      "resource": {
        "resourceType": "DiagnosticReport",
        "id": "114bd2ea-9e88-4c87-8964-717944159310",
        "meta": {
          "profile": [
            "http://hl7.eu/fhir/laboratory/StructureDefinition/DiagnosticReport-eu-lab"
          ]
        },
        "identifier": [
          {
            "assigner": {
              "display": "HL7 Europe"
            },
            "system": "urn:oid:2.16.840.1.113883.2.51.999",
            "value": "9c94b23e-1fa6-4691-8e09-d24d4a1da939"
          }
        ],
        "extension": [
          {
            "url": "http://hl7.org/fhir/5.0/StructureDefinition/extension-DiagnosticReport.composition",
            "valueReference": {
              "reference": "urn:uuid:32adf682-096d-4309-816f-4d4ceb851e04"
            }
          }
        ],
        "category": [
          {
            "coding": [
              {
                "code": "26436-6",
                "system": "http://loinc.org",
                "display": "Laboratory studies (set)"
              }
            ]
          }
        ],
        "specimen": [
          {
            "reference": "urn:uuid:da331bfa-8af1-4031-bf92-bd7f6c00cc1c"
          },
          {
            "reference": "urn:uuid:a322564f-36dd-4e34-a76c-854d0b3afa19"
          },
          {
            "reference": "urn:uuid:2ec711f4-d751-4d7b-9604-6a77b70ea710"
          }
        ],
        "result": [
          {
            "reference": "urn:uuid:a698be5f-822a-4a4a-bbad-abe315518218"
          },
          {
            "reference": "urn:uuid:8c8c200e-7312-4bdf-9d4e-38381c200fef"
          },
          {
            "reference": "urn:uuid:25092727-362a-497f-a0cb-b797ee51958d"
          },
          {
            "reference": "urn:uuid:71010ff6-507f-4846-9597-0f8393de8ca6"
          },
          {
            "reference": "urn:uuid:d0f8e684-59a8-47c7-b1cd-2911ff19daec"
          },
          {
            "reference": "urn:uuid:e0bb0ff5-7865-44fe-8b60-1e8781cb1526"
          },
          {
            "reference": "urn:uuid:40683a9d-fa36-48d1-ab55-e0d1c0a76f4a"
          },
          {
            "reference": "urn:uuid:a9615568-378e-499c-bcab-eb5dae4cdcd4"
          },
          {
            "reference": "urn:uuid:0aff6aba-63c4-44ab-891b-bb41cef64e5c"
          },
          {
            "reference": "urn:uuid:28d4d0ae-f374-41be-9ca8-751e78f45f67"
          },
          {
            "reference": "urn:uuid:02c7e61a-2270-46bb-ab12-20e8076991d5"
          },
          {
            "reference": "urn:uuid:8555ab0f-8672-499a-8663-8b4d93602fd2"
          },
          {
            "reference": "urn:uuid:62969353-49f0-4ab0-b398-14f71896bd83"
          },
          {
            "reference": "urn:uuid:123dfab7-f7e0-44b3-9f89-57a84bb2c2e7"
          },
          {
            "reference": "urn:uuid:056abc9b-74c6-4f43-94cc-dc1366ce0ff8"
          },
          {
            "reference": "urn:uuid:724b7d75-bf71-4fe0-94bd-6e9b544d195c"
          },
          {
            "reference": "urn:uuid:d5d7c00b-712c-40db-96c6-2e11b02a7925"
          },
          {
            "reference": "urn:uuid:5c902857-4e81-43a9-bb89-fb1c9cd198a8"
          },
          {
            "reference": "urn:uuid:d570d03b-1be8-4caf-af6c-888bec4743ec"
          },
          {
            "reference": "urn:uuid:e597fc47-7a26-4915-9cde-9c59941dd1b4"
          },
          {
            "reference": "urn:uuid:39d04fa0-ddb8-4f6b-af3f-87ee5353c2d5"
          },
          {
            "reference": "urn:uuid:05df5d7d-4033-4f73-b66e-7c0787616d84"
          },
          {
            "reference": "urn:uuid:27429433-2903-4c06-a30a-7258bb9caa12"
          },
          {
            "reference": "urn:uuid:8fb9403c-c01a-44e5-883a-50f75c1d4dd3"
          },
          {
            "reference": "urn:uuid:a0b0fe55-c7f6-4950-9dbe-7ee7f571f1c5"
          },
          {
            "reference": "urn:uuid:73084069-def4-40e0-a9b0-496a35ce871b"
          }
        ],
        "status": "registered",
        "code": {
          "coding": [
            {
              "code": "11502-2",
              "system": "http://loinc.org",
              "display": "Laboratory report"
            }
          ]
        },
        "subject": {
          "reference": "urn:uuid:1ccc2927-1bea-433a-9119-ad03e5106e4f",
          "display": "Meaghan Neary"
        }
      }
    },
    {
      "fullUrl": "urn:uuid:1ccc2927-1bea-433a-9119-ad03e5106e4f",
      "resource": {
        "resourceType": "Patient",
        "id": "1ccc2927-1bea-433a-9119-ad03e5106e4f",
        "meta": {
          "security": [
            {
              "system": "http://terminology.hl7.org/CodeSystem/v3-ActReason",
              "code": "HTEST"
            },
            {
              "system": "http://terminology.hl7.org/CodeSystem/v3-ActReason",
              "code": "TRAIN"
            }
          ],
          "tag": [
            {
              "system": "https://synderai.net/fhir/CodeSystem/tags",
              "code": "synthetic",
              "display": "SYNDERAI Synthetic data"
            }
          ],
          "profile": [
            "http://hl7.eu/fhir/base/StructureDefinition/patient-eu-core"
          ]
        },
        "identifier": [
          {
            "type": {
              "coding": [
                {
                  "code": "PT",
                  "system": "http://terminology.hl7.org/CodeSystem/v2-0203"
                }
              ]
            },
            "system": "http://ec.europa.eu/identifier/eci",
            "value": "1586-567257-8"
          },
          {
            "type": {
              "coding": [
                {
                  "code": "MR",
                  "system": "http://terminology.hl7.org/CodeSystem/v2-0203"
                }
              ]
            },
            "system": "http://local.setting.eu/identifier",
            "value": "443e6379-f231-b364-3ccb-644740a1aa2a"
          }
        ],
        "name": [
          {
            "family": "Neary"
          },
          {
            "given": [
              "Meaghan"
            ]
          },
          {
            "text": "Meaghan Neary"
          }
        ],
        "address": [
          {
            "line": [
              "64 Linskey Street"
            ],
            "use": "home",
            "type": "physical",
            "postalCode": "D02",
            "city": "Dublin",
            "country": "Ireland"
          }
        ],
        "telecom": [
          {
            "system": "phone",
            "value": "001-967-573-0911x465"
          }
        ],
        "extension": [
          {
            "url": "http://hl7.org/fhir/StructureDefinition/patient-nationality",
            "valueCodeableConcept": {
              "coding": [
                {
                  "code": "IE",
                  "system": "http://hl7.org/fhir/ValueSet/country"
                }
              ]
            }
          }
        ],
        "text": {
          "status": "generated",
          "div": "<div xmlns=\"http://www.w3.org/1999/xhtml\"><table class=\"hl7__ips\"><tr><td>Meaghan Neary</td><td>female</td><td>19-Dec-1960</td></tr></table></div>"
        },
        "gender": "female",
        "birthDate": "1960-12-19"
      }
    },
    {
      "fullUrl": "urn:uuid:d380ba82-52f2-4945-8198-b41340553f38",
      "resource": {
        "resourceType": "ServiceRequest",
        "id": "d380ba82-52f2-4945-8198-b41340553f38",
        "meta": {
          "profile": [
            "http://hl7.eu/fhir/laboratory/StructureDefinition/ServiceRequest-eu-lab"
          ]
        },
        "identifier": [
          {
            "system": "http://example.org",
            "value": "8080740d-146c-4bc4-ae84-0aa45d63b730"
          }
        ],
        "specimen": [
          {
            "reference": "urn:uuid:da331bfa-8af1-4031-bf92-bd7f6c00cc1c"
          },
          {
            "reference": "urn:uuid:a322564f-36dd-4e34-a76c-854d0b3afa19"
          },
          {
            "reference": "urn:uuid:2ec711f4-d751-4d7b-9604-6a77b70ea710"
          }
        ],
        "reasonCode": [
          {
            "coding": [
              {
                "code": "55822004",
                "system": "http://snomed.info/sct",
                "display": "Hyperlipidemia"
              }
            ]
          },
          {
            "coding": [
              {
                "code": "433144002",
                "system": "http://snomed.info/sct",
                "display": "Chronic kidney disease stage 3"
              }
            ]
          },
          {
            "coding": [
              {
                "code": "157141000119108",
                "system": "http://snomed.info/sct",
                "display": "Proteinuria due to type 2 diabetes mellitus"
              }
            ]
          },
          {
            "coding": [
              {
                "code": "431856006",
                "system": "http://snomed.info/sct",
                "display": "Chronic kidney disease stage 2"
              }
            ]
          },
          {
            "coding": [
              {
                "code": "90781000119102",
                "system": "http://snomed.info/sct",
                "display": "Microalbuminuria due to type 2 diabetes mellitus"
              }
            ]
          },
          {
            "coding": [
              {
                "code": "127013003",
                "system": "http://snomed.info/sct",
                "display": "Disorder of kidney due to diabetes mellitus"
              }
            ]
          },
          {
            "coding": [
              {
                "code": "431855005",
                "system": "http://snomed.info/sct",
                "display": "Chronic kidney disease stage 1"
              }
            ]
          },
          {
            "coding": [
              {
                "code": "237602007",
                "system": "http://snomed.info/sct",
                "display": "Metabolic syndrome X"
              }
            ]
          },
          {
            "coding": [
              {
                "code": "271737000",
                "system": "http://snomed.info/sct",
                "display": "Anemia"
              }
            ]
          },
          {
            "coding": [
              {
                "code": "15777000",
                "system": "http://snomed.info/sct",
                "display": "Prediabetes"
              }
            ]
          },
          {
            "coding": [
              {
                "code": "59621000",
                "system": "http://snomed.info/sct",
                "display": "Essential hypertension"
              }
            ]
          }
        ],
        "status": "active",
        "intent": "order",
        "code": {
          "coding": [
            {
              "code": "108252007",
              "system": "http://snomed.info/sct",
              "display": "Laboratory procedure"
            }
          ]
        },
        "subject": {
          "reference": "urn:uuid:1ccc2927-1bea-433a-9119-ad03e5106e4f",
          "display": "Meaghan Neary"
        },
        "requester": {
          "reference": "urn:uuid:429d2d9a-a1dc-41a6-b441-67b5591c9bf6"
        }
      }
    },
    {
      "fullUrl": "urn:uuid:429d2d9a-a1dc-41a6-b441-67b5591c9bf6",
      "resource": {
        "resourceType": "PractitionerRole",
        "id": "429d2d9a-a1dc-41a6-b441-67b5591c9bf6",
        "meta": {
          "profile": [
            "http://hl7.eu/fhir/base/StructureDefinition/practitionerRole-eu"
          ]
        },
        "text": {
          "status": "generated",
          "div": "<div xmlns=\"http://www.w3.org/1999/xhtml\">Provider Role Id: 429d2d9a-a1dc-41a6-b441-67b5591c9bf6</div>"
        },
        "organization": {
          "reference": "urn:uuid:b6117823-7bf8-428b-b7bd-f90381d268c2"
        }
      }
    },
    {
      "fullUrl": "urn:uuid:b6117823-7bf8-428b-b7bd-f90381d268c2",
      "resource": {
        "resourceType": "Organization",
        "id": "b6117823-7bf8-428b-b7bd-f90381d268c2",
        "meta": {
          "profile": [
            "http://hl7.eu/fhir/base/StructureDefinition/organization-eu"
          ]
        },
        "identifier": [
          {
            "assigner": {
              "display": "HL7 Europe"
            },
            "system": "urn:oid:2.16.840.1.113883.2.51.999",
            "value": "f50d2a2a-1d60-4ec7-a432-e6158cb3bb62"
          }
        ],
        "address": [
          {
            "line": [
              "Parnell Square West nan"
            ],
            "city": "Dublin",
            "postalCode": "D01",
            "country": "Ireland"
          }
        ],
        "text": {
          "status": "generated",
          "div": "<div xmlns=\"http://www.w3.org/1999/xhtml\">Provider Organization: Rotunda Hospital</div>"
        },
        "name": "Rotunda Hospital"
      }
    },
    {
      "fullUrl": "urn:uuid:da331bfa-8af1-4031-bf92-bd7f6c00cc1c",
      "resource": {
        "resourceType": "Specimen",
        "id": "da331bfa-8af1-4031-bf92-bd7f6c00cc1c",
        "meta": {
          "profile": [
            "http://hl7.eu/fhir/laboratory/StructureDefinition/Specimen-eu-lab"
          ]
        },
        "collection": {
          "collectedDateTime": "2016-11-07"
        },
        "text": {
          "status": "generated",
          "div": "<div xmlns=\"http://www.w3.org/1999/xhtml\"><table class=\"hl7__eu__lab__report\"><tr><th>Specimen</th><th>Collection Date</th></tr><tr><td>Acellular blood (serum or plasma) specimen</td><td><span class=\"nb\">07-Nov-2016</span></td></tr></table></div>"
        },
        "type": {
          "coding": [
            {
              "code": "122592007",
              "system": "http://snomed.info/sct",
              "display": "Acellular blood (serum or plasma) specimen"
            }
          ]
        }
      }
    },
    {
      "fullUrl": "urn:uuid:a322564f-36dd-4e34-a76c-854d0b3afa19",
      "resource": {
        "resourceType": "Specimen",
        "id": "a322564f-36dd-4e34-a76c-854d0b3afa19",
        "meta": {
          "profile": [
            "http://hl7.eu/fhir/laboratory/StructureDefinition/Specimen-eu-lab"
          ]
        },
        "collection": {
          "collectedDateTime": "2016-11-07"
        },
        "text": {
          "status": "generated",
          "div": "<div xmlns=\"http://www.w3.org/1999/xhtml\"><table class=\"hl7__eu__lab__report\"><tr><th>Specimen</th><th>Collection Date</th></tr><tr><td>Urine specimen</td><td><span class=\"nb\">07-Nov-2016</span></td></tr></table></div>"
        },
        "type": {
          "coding": [
            {
              "code": "122575003",
              "system": "http://snomed.info/sct",
              "display": "Urine specimen"
            }
          ]
        }
      }
    },
    {
      "fullUrl": "urn:uuid:2ec711f4-d751-4d7b-9604-6a77b70ea710",
      "resource": {
        "resourceType": "Specimen",
        "id": "2ec711f4-d751-4d7b-9604-6a77b70ea710",
        "meta": {
          "profile": [
            "http://hl7.eu/fhir/laboratory/StructureDefinition/Specimen-eu-lab"
          ]
        },
        "collection": {
          "collectedDateTime": "2016-11-07"
        },
        "text": {
          "status": "generated",
          "div": "<div xmlns=\"http://www.w3.org/1999/xhtml\"><table class=\"hl7__eu__lab__report\"><tr><th>Specimen</th><th>Collection Date</th></tr><tr><td>Whole blood specimen (specimen)</td><td><span class=\"nb\">07-Nov-2016</span></td></tr></table></div>"
        },
        "type": {
          "coding": [
            {
              "code": "258580003",
              "system": "http://snomed.info/sct",
              "display": "Whole blood specimen (specimen)"
            }
          ]
        }
      }
    },
    {
      "fullUrl": "urn:uuid:a698be5f-822a-4a4a-bbad-abe315518218",
      "resource": {
        "resourceType": "Observation",
        "id": "a698be5f-822a-4a4a-bbad-abe315518218",
        "meta": {
          "profile": [
            "http://hl7.eu/fhir/laboratory/StructureDefinition/Observation-resultslab-eu-lab"
          ]
        },
        "performer": [
          {
            "display": "The Central European Lab"
          }
        ],
        "category": [
          {
            "coding": [
              {
                "system": "http://terminology.hl7.org/CodeSystem/observation-category",
                "code": "laboratory"
              }
            ]
          }
        ],
        "code": {
          "coding": [
            {
              "code": "2345-7",
              "system": "http://loinc.org",
              "display": "Glucose [Mass/volume] in Serum or Plasma"
            }
          ],
          "text": "Glucose [Mass/volume] in Serum or Plasma"
        },
        "valueQuantity": {
          "system": "http://unitsofmeasure.org",
          "value": 81.6,
          "unit": "mg/dL",
          "code": "mg/dL"
        },
        "referenceRange": [
          {
            "low": {
              "value": 70,
              "code": "mg/dL",
              "system": "http://unitsofmeasure.org"
            }
          },
          {
            "high": {
              "value": 99,
              "code": "mg/dL",
              "system": "http://unitsofmeasure.org"
            }
          }
        ],
        "text": {
          "status": "generated",
          "div": "<div xmlns=\"http://www.w3.org/1999/xhtml\"><table class=\"hl7__eu__lab__report\"><tr><th>Test</th><th>07-Nov-2016</th><th>Reference&#xA0;Range</th><th>Unit</th></tr><tr><td>Glucose [Mass/volume] in Serum or Plasma</td><td>81.6</td><td>70 - 99</td><td></td><td>mg/dL</td></tr></table></div>"
        },
        "status": "final",
        "subject": {
          "reference": "urn:uuid:1ccc2927-1bea-433a-9119-ad03e5106e4f",
          "display": "Meaghan Neary"
        },
        "effectiveDateTime": "2016-11-07T22:11:04Z",
        "specimen": {
          "reference": "urn:uuid:da331bfa-8af1-4031-bf92-bd7f6c00cc1c"
        }
      }
    },
    {
      "fullUrl": "urn:uuid:8c8c200e-7312-4bdf-9d4e-38381c200fef",
      "resource": {
        "resourceType": "Observation",
        "id": "8c8c200e-7312-4bdf-9d4e-38381c200fef",
        "meta": {
          "profile": [
            "http://hl7.eu/fhir/laboratory/StructureDefinition/Observation-resultslab-eu-lab"
          ]
        },
        "performer": [
          {
            "display": "The Central European Lab"
          }
        ],
        "category": [
          {
            "coding": [
              {
                "system": "http://terminology.hl7.org/CodeSystem/observation-category",
                "code": "laboratory"
              }
            ]
          }
        ],
        "code": {
          "coding": [
            {
              "code": "3094-0",
              "system": "http://loinc.org",
              "display": "Urea nitrogen [Mass/volume] in Serum or Plasma"
            }
          ],
          "text": "Urea nitrogen [Mass/volume] in Serum or Plasma"
        },
        "valueQuantity": {
          "system": "http://unitsofmeasure.org",
          "value": 15.2,
          "unit": "mg/dL",
          "code": "mg/dL"
        },
        "referenceRange": [
          {
            "low": {
              "value": 7,
              "code": "mg/dL",
              "system": "http://unitsofmeasure.org"
            }
          },
          {
            "high": {
              "value": 50,
              "code": "mg/dL",
              "system": "http://unitsofmeasure.org"
            }
          }
        ],
        "text": {
          "status": "generated",
          "div": "<div xmlns=\"http://www.w3.org/1999/xhtml\"><table class=\"hl7__eu__lab__report\"><tr><th>Test</th><th>07-Nov-2016</th><th>Reference&#xA0;Range</th><th>Unit</th></tr><tr><td>Urea nitrogen [Mass/volume] in Serum or Plasma</td><td>15.2</td><td>7 - 50</td><td></td><td>mg/dL</td></tr></table></div>"
        },
        "status": "final",
        "subject": {
          "reference": "urn:uuid:1ccc2927-1bea-433a-9119-ad03e5106e4f",
          "display": "Meaghan Neary"
        },
        "effectiveDateTime": "2016-11-07T22:11:04Z",
        "specimen": {
          "reference": "urn:uuid:da331bfa-8af1-4031-bf92-bd7f6c00cc1c"
        }
      }
    },
    {
      "fullUrl": "urn:uuid:25092727-362a-497f-a0cb-b797ee51958d",
      "resource": {
        "resourceType": "Observation",
        "id": "25092727-362a-497f-a0cb-b797ee51958d",
        "meta": {
          "profile": [
            "http://hl7.eu/fhir/laboratory/StructureDefinition/Observation-resultslab-eu-lab"
          ]
        },
        "performer": [
          {
            "display": "The Central European Lab"
          }
        ],
        "category": [
          {
            "coding": [
              {
                "system": "http://terminology.hl7.org/CodeSystem/observation-category",
                "code": "laboratory"
              }
            ]
          }
        ],
        "code": {
          "coding": [
            {
              "code": "2160-0",
              "system": "http://loinc.org",
              "display": "Creatinine [Mass/volume] in Serum or Plasma"
            }
          ],
          "text": "Creatinine [Mass/volume] in Serum or Plasma"
        },
        "valueQuantity": {
          "system": "http://unitsofmeasure.org",
          "value": 1.9,
          "unit": "mg/dL",
          "code": "mg/dL"
        },
        "referenceRange": [
          {
            "low": {
              "value": 0.6,
              "code": "mg/dL",
              "system": "http://unitsofmeasure.org"
            }
          },
          {
            "high": {
              "value": 1.1,
              "code": "mg/dL",
              "system": "http://unitsofmeasure.org"
            }
          }
        ],
        "interpretation": [
          {
            "coding": [
              {
                "code": "H",
                "system": "http://terminology.hl7.org/CodeSystem/v3-ObservationInterpretation",
                "display": "High"
              }
            ]
          }
        ],
        "text": {
          "status": "generated",
          "div": "<div xmlns=\"http://www.w3.org/1999/xhtml\"><table class=\"hl7__eu__lab__report\"><tr><th>Test</th><th>07-Nov-2016</th><th>Reference&#xA0;Range</th><th>Unit</th></tr><tr><td>Creatinine [Mass/volume] in Serum or Plasma</td><td>1.9</td><td>0.6 - 1.1</td><td>H</td><td>mg/dL</td></tr></table></div>"
        },
        "status": "final",
        "subject": {
          "reference": "urn:uuid:1ccc2927-1bea-433a-9119-ad03e5106e4f",
          "display": "Meaghan Neary"
        },
        "effectiveDateTime": "2016-11-07T22:11:04Z",
        "specimen": {
          "reference": "urn:uuid:da331bfa-8af1-4031-bf92-bd7f6c00cc1c"
        }
      }
    },
    {
      "fullUrl": "urn:uuid:71010ff6-507f-4846-9597-0f8393de8ca6",
      "resource": {
        "resourceType": "Observation",
        "id": "71010ff6-507f-4846-9597-0f8393de8ca6",
        "meta": {
          "profile": [
            "http://hl7.eu/fhir/laboratory/StructureDefinition/Observation-resultslab-eu-lab"
          ]
        },
        "performer": [
          {
            "display": "The Central European Lab"
          }
        ],
        "category": [
          {
            "coding": [
              {
                "system": "http://terminology.hl7.org/CodeSystem/observation-category",
                "code": "laboratory"
              }
            ]
          }
        ],
        "code": {
          "coding": [
            {
              "code": "17861-6",
              "system": "http://loinc.org",
              "display": "Calcium [Mass/volume] in Serum or Plasma"
            }
          ],
          "text": "Calcium [Mass/volume] in Serum or Plasma"
        },
        "valueQuantity": {
          "system": "http://unitsofmeasure.org",
          "value": 10,
          "unit": "mg/dL",
          "code": "mg/dL"
        },
        "referenceRange": [
          {
            "low": {
              "value": 8.6,
              "code": "mg/dL",
              "system": "http://unitsofmeasure.org"
            }
          },
          {
            "high": {
              "value": 10.4,
              "code": "mg/dL",
              "system": "http://unitsofmeasure.org"
            }
          }
        ],
        "text": {
          "status": "generated",
          "div": "<div xmlns=\"http://www.w3.org/1999/xhtml\"><table class=\"hl7__eu__lab__report\"><tr><th>Test</th><th>07-Nov-2016</th><th>Reference&#xA0;Range</th><th>Unit</th></tr><tr><td>Calcium [Mass/volume] in Serum or Plasma</td><td>10.0</td><td>8.6 - 10.4</td><td></td><td>mg/dL</td></tr></table></div>"
        },
        "status": "final",
        "subject": {
          "reference": "urn:uuid:1ccc2927-1bea-433a-9119-ad03e5106e4f",
          "display": "Meaghan Neary"
        },
        "effectiveDateTime": "2016-11-07T22:11:04Z",
        "specimen": {
          "reference": "urn:uuid:da331bfa-8af1-4031-bf92-bd7f6c00cc1c"
        }
      }
    },
    {
      "fullUrl": "urn:uuid:d0f8e684-59a8-47c7-b1cd-2911ff19daec",
      "resource": {
        "resourceType": "Observation",
        "id": "d0f8e684-59a8-47c7-b1cd-2911ff19daec",
        "meta": {
          "profile": [
            "http://hl7.eu/fhir/laboratory/StructureDefinition/Observation-resultslab-eu-lab"
          ]
        },
        "performer": [
          {
            "display": "The Central European Lab"
          }
        ],
        "category": [
          {
            "coding": [
              {
                "system": "http://terminology.hl7.org/CodeSystem/observation-category",
                "code": "laboratory"
              }
            ]
          }
        ],
        "code": {
          "coding": [
            {
              "code": "2951-2",
              "system": "http://loinc.org",
              "display": "Sodium [Moles/volume] in Serum or Plasma"
            }
          ],
          "text": "Sodium [Moles/volume] in Serum or Plasma"
        },
        "valueQuantity": {
          "system": "http://unitsofmeasure.org",
          "value": 139.9,
          "unit": "mmol/L",
          "code": "mmol/L"
        },
        "referenceRange": [
          {
            "low": {
              "value": 135,
              "code": "mmol/L",
              "system": "http://unitsofmeasure.org"
            }
          },
          {
            "high": {
              "value": 145,
              "code": "mmol/L",
              "system": "http://unitsofmeasure.org"
            }
          }
        ],
        "text": {
          "status": "generated",
          "div": "<div xmlns=\"http://www.w3.org/1999/xhtml\"><table class=\"hl7__eu__lab__report\"><tr><th>Test</th><th>07-Nov-2016</th><th>Reference&#xA0;Range</th><th>Unit</th></tr><tr><td>Sodium [Moles/volume] in Serum or Plasma</td><td>139.9</td><td>135 - 145</td><td></td><td>mmol/L</td></tr></table></div>"
        },
        "status": "final",
        "subject": {
          "reference": "urn:uuid:1ccc2927-1bea-433a-9119-ad03e5106e4f",
          "display": "Meaghan Neary"
        },
        "effectiveDateTime": "2016-11-07T22:11:04Z",
        "specimen": {
          "reference": "urn:uuid:da331bfa-8af1-4031-bf92-bd7f6c00cc1c"
        }
      }
    },
    {
      "fullUrl": "urn:uuid:e0bb0ff5-7865-44fe-8b60-1e8781cb1526",
      "resource": {
        "resourceType": "Observation",
        "id": "e0bb0ff5-7865-44fe-8b60-1e8781cb1526",
        "meta": {
          "profile": [
            "http://hl7.eu/fhir/laboratory/StructureDefinition/Observation-resultslab-eu-lab"
          ]
        },
        "performer": [
          {
            "display": "The Central European Lab"
          }
        ],
        "category": [
          {
            "coding": [
              {
                "system": "http://terminology.hl7.org/CodeSystem/observation-category",
                "code": "laboratory"
              }
            ]
          }
        ],
        "code": {
          "coding": [
            {
              "code": "2823-3",
              "system": "http://loinc.org",
              "display": "Potassium [Moles/volume] in Serum or Plasma"
            }
          ],
          "text": "Potassium [Moles/volume] in Serum or Plasma"
        },
        "valueQuantity": {
          "system": "http://unitsofmeasure.org",
          "value": 5.1,
          "unit": "mmol/L",
          "code": "mmol/L"
        },
        "referenceRange": [
          {
            "low": {
              "value": 3.5,
              "code": "mmol/L",
              "system": "http://unitsofmeasure.org"
            }
          },
          {
            "high": {
              "value": 5.1,
              "code": "mmol/L",
              "system": "http://unitsofmeasure.org"
            }
          }
        ],
        "text": {
          "status": "generated",
          "div": "<div xmlns=\"http://www.w3.org/1999/xhtml\"><table class=\"hl7__eu__lab__report\"><tr><th>Test</th><th>07-Nov-2016</th><th>Reference&#xA0;Range</th><th>Unit</th></tr><tr><td>Potassium [Moles/volume] in Serum or Plasma</td><td>5.1</td><td>3.5 - 5.1</td><td></td><td>mmol/L</td></tr></table></div>"
        },
        "status": "final",
        "subject": {
          "reference": "urn:uuid:1ccc2927-1bea-433a-9119-ad03e5106e4f",
          "display": "Meaghan Neary"
        },
        "effectiveDateTime": "2016-11-07T22:11:04Z",
        "specimen": {
          "reference": "urn:uuid:da331bfa-8af1-4031-bf92-bd7f6c00cc1c"
        }
      }
    },
    {
      "fullUrl": "urn:uuid:40683a9d-fa36-48d1-ab55-e0d1c0a76f4a",
      "resource": {
        "resourceType": "Observation",
        "id": "40683a9d-fa36-48d1-ab55-e0d1c0a76f4a",
        "meta": {
          "profile": [
            "http://hl7.eu/fhir/laboratory/StructureDefinition/Observation-resultslab-eu-lab"
          ]
        },
        "performer": [
          {
            "display": "The Central European Lab"
          }
        ],
        "category": [
          {
            "coding": [
              {
                "system": "http://terminology.hl7.org/CodeSystem/observation-category",
                "code": "laboratory"
              }
            ]
          }
        ],
        "code": {
          "coding": [
            {
              "code": "2075-0",
              "system": "http://loinc.org",
              "display": "Chloride [Moles/volume] in Serum or Plasma"
            }
          ],
          "text": "Chloride [Moles/volume] in Serum or Plasma"
        },
        "valueQuantity": {
          "system": "http://unitsofmeasure.org",
          "value": 102.8,
          "unit": "mmol/L",
          "code": "mmol/L"
        },
        "referenceRange": [
          {
            "low": {
              "value": 98,
              "code": "mmol/L",
              "system": "http://unitsofmeasure.org"
            }
          },
          {
            "high": {
              "value": 108,
              "code": "mmol/L",
              "system": "http://unitsofmeasure.org"
            }
          }
        ],
        "text": {
          "status": "generated",
          "div": "<div xmlns=\"http://www.w3.org/1999/xhtml\"><table class=\"hl7__eu__lab__report\"><tr><th>Test</th><th>07-Nov-2016</th><th>Reference&#xA0;Range</th><th>Unit</th></tr><tr><td>Chloride [Moles/volume] in Serum or Plasma</td><td>102.8</td><td>98 - 108</td><td></td><td>mmol/L</td></tr></table></div>"
        },
        "status": "final",
        "subject": {
          "reference": "urn:uuid:1ccc2927-1bea-433a-9119-ad03e5106e4f",
          "display": "Meaghan Neary"
        },
        "effectiveDateTime": "2016-11-07T22:11:04Z",
        "specimen": {
          "reference": "urn:uuid:da331bfa-8af1-4031-bf92-bd7f6c00cc1c"
        }
      }
    },
    {
      "fullUrl": "urn:uuid:a9615568-378e-499c-bcab-eb5dae4cdcd4",
      "resource": {
        "resourceType": "Observation",
        "id": "a9615568-378e-499c-bcab-eb5dae4cdcd4",
        "meta": {
          "profile": [
            "http://hl7.eu/fhir/laboratory/StructureDefinition/Observation-resultslab-eu-lab"
          ]
        },
        "performer": [
          {
            "display": "The Central European Lab"
          }
        ],
        "category": [
          {
            "coding": [
              {
                "system": "http://terminology.hl7.org/CodeSystem/observation-category",
                "code": "laboratory"
              }
            ]
          }
        ],
        "code": {
          "coding": [
            {
              "code": "2028-9",
              "system": "http://loinc.org",
              "display": "Carbon dioxide, total [Moles/volume] in Serum or Plasma"
            }
          ],
          "text": "Carbon dioxide, total [Moles/volume] in Serum or Plasma"
        },
        "valueQuantity": {
          "system": "http://unitsofmeasure.org",
          "value": 24.7,
          "unit": "mmol/L",
          "code": "mmol/L"
        },
        "referenceRange": [
          {
            "low": {
              "value": 22,
              "code": "mmol/L",
              "system": "http://unitsofmeasure.org"
            }
          },
          {
            "high": {
              "value": 32,
              "code": "mmol/L",
              "system": "http://unitsofmeasure.org"
            }
          }
        ],
        "text": {
          "status": "generated",
          "div": "<div xmlns=\"http://www.w3.org/1999/xhtml\"><table class=\"hl7__eu__lab__report\"><tr><th>Test</th><th>07-Nov-2016</th><th>Reference&#xA0;Range</th><th>Unit</th></tr><tr><td>Carbon dioxide, total [Moles/volume] in Serum or Plasma</td><td>24.7</td><td>22 - 32</td><td></td><td>mmol/L</td></tr></table></div>"
        },
        "status": "final",
        "subject": {
          "reference": "urn:uuid:1ccc2927-1bea-433a-9119-ad03e5106e4f",
          "display": "Meaghan Neary"
        },
        "effectiveDateTime": "2016-11-07T22:11:04Z",
        "specimen": {
          "reference": "urn:uuid:da331bfa-8af1-4031-bf92-bd7f6c00cc1c"
        }
      }
    },
    {
      "fullUrl": "urn:uuid:0aff6aba-63c4-44ab-891b-bb41cef64e5c",
      "resource": {
        "resourceType": "Observation",
        "id": "0aff6aba-63c4-44ab-891b-bb41cef64e5c",
        "meta": {
          "profile": [
            "http://hl7.eu/fhir/laboratory/StructureDefinition/Observation-resultslab-eu-lab"
          ]
        },
        "performer": [
          {
            "display": "The Central European Lab"
          }
        ],
        "category": [
          {
            "coding": [
              {
                "system": "http://terminology.hl7.org/CodeSystem/observation-category",
                "code": "laboratory"
              }
            ]
          }
        ],
        "code": {
          "coding": [
            {
              "code": "5767-9",
              "system": "http://loinc.org",
              "display": "Appearance of Urine"
            }
          ],
          "text": "Appearance of Urine"
        },
        "text": {
          "status": "generated",
          "div": "<div xmlns=\"http://www.w3.org/1999/xhtml\"><table class=\"hl7__eu__lab__report\"><tr><th>Test</th><th>07-Nov-2016</th><th>Reference&#xA0;Range</th><th>Unit</th></tr><tr><td>Appearance of Urine</td></tr></table></div>"
        },
        "status": "final",
        "subject": {
          "reference": "urn:uuid:1ccc2927-1bea-433a-9119-ad03e5106e4f",
          "display": "Meaghan Neary"
        },
        "effectiveDateTime": "2016-11-07T22:11:04Z",
        "specimen": {
          "reference": "urn:uuid:a322564f-36dd-4e34-a76c-854d0b3afa19"
        }
      }
    },
    {
      "fullUrl": "urn:uuid:28d4d0ae-f374-41be-9ca8-751e78f45f67",
      "resource": {
        "resourceType": "Observation",
        "id": "28d4d0ae-f374-41be-9ca8-751e78f45f67",
        "meta": {
          "profile": [
            "http://hl7.eu/fhir/laboratory/StructureDefinition/Observation-resultslab-eu-lab"
          ]
        },
        "performer": [
          {
            "display": "The Central European Lab"
          }
        ],
        "category": [
          {
            "coding": [
              {
                "system": "http://terminology.hl7.org/CodeSystem/observation-category",
                "code": "laboratory"
              }
            ]
          }
        ],
        "code": {
          "coding": [
            {
              "code": "34533-0",
              "system": "http://loinc.org",
              "display": "Odor of Urine"
            }
          ],
          "text": "Odor of Urine"
        },
        "text": {
          "status": "generated",
          "div": "<div xmlns=\"http://www.w3.org/1999/xhtml\"><table class=\"hl7__eu__lab__report\"><tr><th>Test</th><th>07-Nov-2016</th><th>Reference&#xA0;Range</th><th>Unit</th></tr><tr><td>Odor of Urine</td></tr></table></div>"
        },
        "status": "final",
        "subject": {
          "reference": "urn:uuid:1ccc2927-1bea-433a-9119-ad03e5106e4f",
          "display": "Meaghan Neary"
        },
        "effectiveDateTime": "2016-11-07T22:11:04Z",
        "specimen": {
          "reference": "urn:uuid:a322564f-36dd-4e34-a76c-854d0b3afa19"
        }
      }
    },
    {
      "fullUrl": "urn:uuid:02c7e61a-2270-46bb-ab12-20e8076991d5",
      "resource": {
        "resourceType": "Observation",
        "id": "02c7e61a-2270-46bb-ab12-20e8076991d5",
        "meta": {
          "profile": [
            "http://hl7.eu/fhir/laboratory/StructureDefinition/Observation-resultslab-eu-lab"
          ]
        },
        "performer": [
          {
            "display": "The Central European Lab"
          }
        ],
        "category": [
          {
            "coding": [
              {
                "system": "http://terminology.hl7.org/CodeSystem/observation-category",
                "code": "laboratory"
              }
            ]
          }
        ],
        "code": {
          "coding": [
            {
              "code": "32167-9",
              "system": "http://loinc.org",
              "display": "Clarity of Urine"
            }
          ],
          "text": "Clarity of Urine"
        },
        "text": {
          "status": "generated",
          "div": "<div xmlns=\"http://www.w3.org/1999/xhtml\"><table class=\"hl7__eu__lab__report\"><tr><th>Test</th><th>07-Nov-2016</th><th>Reference&#xA0;Range</th><th>Unit</th></tr><tr><td>Clarity of Urine</td></tr></table></div>"
        },
        "status": "final",
        "subject": {
          "reference": "urn:uuid:1ccc2927-1bea-433a-9119-ad03e5106e4f",
          "display": "Meaghan Neary"
        },
        "effectiveDateTime": "2016-11-07T22:11:04Z",
        "specimen": {
          "reference": "urn:uuid:a322564f-36dd-4e34-a76c-854d0b3afa19"
        }
      }
    },
    {
      "fullUrl": "urn:uuid:8555ab0f-8672-499a-8663-8b4d93602fd2",
      "resource": {
        "resourceType": "Observation",
        "id": "8555ab0f-8672-499a-8663-8b4d93602fd2",
        "meta": {
          "profile": [
            "http://hl7.eu/fhir/laboratory/StructureDefinition/Observation-resultslab-eu-lab"
          ]
        },
        "performer": [
          {
            "display": "The Central European Lab"
          }
        ],
        "category": [
          {
            "coding": [
              {
                "system": "http://terminology.hl7.org/CodeSystem/observation-category",
                "code": "laboratory"
              }
            ]
          }
        ],
        "code": {
          "coding": [
            {
              "code": "5778-6",
              "system": "http://loinc.org",
              "display": "Color of Urine"
            }
          ],
          "text": "Color of Urine"
        },
        "text": {
          "status": "generated",
          "div": "<div xmlns=\"http://www.w3.org/1999/xhtml\"><table class=\"hl7__eu__lab__report\"><tr><th>Test</th><th>07-Nov-2016</th><th>Reference&#xA0;Range</th><th>Unit</th></tr><tr><td>Color of Urine</td></tr></table></div>"
        },
        "status": "final",
        "subject": {
          "reference": "urn:uuid:1ccc2927-1bea-433a-9119-ad03e5106e4f",
          "display": "Meaghan Neary"
        },
        "effectiveDateTime": "2016-11-07T22:11:04Z",
        "specimen": {
          "reference": "urn:uuid:a322564f-36dd-4e34-a76c-854d0b3afa19"
        }
      }
    },
    {
      "fullUrl": "urn:uuid:62969353-49f0-4ab0-b398-14f71896bd83",
      "resource": {
        "resourceType": "Observation",
        "id": "62969353-49f0-4ab0-b398-14f71896bd83",
        "meta": {
          "profile": [
            "http://hl7.eu/fhir/laboratory/StructureDefinition/Observation-resultslab-eu-lab"
          ]
        },
        "performer": [
          {
            "display": "The Central European Lab"
          }
        ],
        "category": [
          {
            "coding": [
              {
                "system": "http://terminology.hl7.org/CodeSystem/observation-category",
                "code": "laboratory"
              }
            ]
          }
        ],
        "code": {
          "coding": [
            {
              "code": "5792-7",
              "system": "http://loinc.org",
              "display": "Glucose [Mass/volume] in Urine by Test strip"
            }
          ],
          "text": "Glucose [Mass/volume] in Urine by Test strip"
        },
        "valueQuantity": {
          "system": "http://unitsofmeasure.org",
          "value": 2.2,
          "unit": "mg/dL",
          "code": "mg/dL"
        },
        "referenceRange": [
          {
            "low": {
              "value": 0.8,
              "code": "mg/dL",
              "system": "http://unitsofmeasure.org"
            }
          },
          {
            "high": {
              "value": 0,
              "code": "mg/dL",
              "system": "http://unitsofmeasure.org"
            }
          }
        ],
        "interpretation": [
          {
            "coding": [
              {
                "code": "H",
                "system": "http://terminology.hl7.org/CodeSystem/v3-ObservationInterpretation",
                "display": "High"
              }
            ]
          }
        ],
        "text": {
          "status": "generated",
          "div": "<div xmlns=\"http://www.w3.org/1999/xhtml\"><table class=\"hl7__eu__lab__report\"><tr><th>Test</th><th>07-Nov-2016</th><th>Reference&#xA0;Range</th><th>Unit</th></tr><tr><td>Glucose [Mass/volume] in Urine by Test strip</td><td>2.2</td><td>0.8 - 0</td><td>H</td><td>mg/dL</td></tr></table></div>"
        },
        "status": "final",
        "subject": {
          "reference": "urn:uuid:1ccc2927-1bea-433a-9119-ad03e5106e4f",
          "display": "Meaghan Neary"
        },
        "effectiveDateTime": "2016-11-07T22:11:04Z",
        "specimen": {
          "reference": "urn:uuid:a322564f-36dd-4e34-a76c-854d0b3afa19"
        }
      }
    },
    {
      "fullUrl": "urn:uuid:123dfab7-f7e0-44b3-9f89-57a84bb2c2e7",
      "resource": {
        "resourceType": "Observation",
        "id": "123dfab7-f7e0-44b3-9f89-57a84bb2c2e7",
        "meta": {
          "profile": [
            "http://hl7.eu/fhir/laboratory/StructureDefinition/Observation-resultslab-eu-lab"
          ]
        },
        "performer": [
          {
            "display": "The Central European Lab"
          }
        ],
        "category": [
          {
            "coding": [
              {
                "system": "http://terminology.hl7.org/CodeSystem/observation-category",
                "code": "laboratory"
              }
            ]
          }
        ],
        "code": {
          "coding": [
            {
              "code": "25428-4",
              "system": "http://loinc.org",
              "display": "Glucose [Presence] in Urine by Test strip"
            }
          ],
          "text": "Glucose [Presence] in Urine by Test strip"
        },
        "text": {
          "status": "generated",
          "div": "<div xmlns=\"http://www.w3.org/1999/xhtml\"><table class=\"hl7__eu__lab__report\"><tr><th>Test</th><th>07-Nov-2016</th><th>Reference&#xA0;Range</th><th>Unit</th></tr><tr><td>Glucose [Presence] in Urine by Test strip</td></tr></table></div>"
        },
        "status": "final",
        "subject": {
          "reference": "urn:uuid:1ccc2927-1bea-433a-9119-ad03e5106e4f",
          "display": "Meaghan Neary"
        },
        "effectiveDateTime": "2016-11-07T22:11:04Z",
        "specimen": {
          "reference": "urn:uuid:a322564f-36dd-4e34-a76c-854d0b3afa19"
        }
      }
    },
    {
      "fullUrl": "urn:uuid:056abc9b-74c6-4f43-94cc-dc1366ce0ff8",
      "resource": {
        "resourceType": "Observation",
        "id": "056abc9b-74c6-4f43-94cc-dc1366ce0ff8",
        "meta": {
          "profile": [
            "http://hl7.eu/fhir/laboratory/StructureDefinition/Observation-resultslab-eu-lab"
          ]
        },
        "performer": [
          {
            "display": "The Central European Lab"
          }
        ],
        "category": [
          {
            "coding": [
              {
                "system": "http://terminology.hl7.org/CodeSystem/observation-category",
                "code": "laboratory"
              }
            ]
          }
        ],
        "code": {
          "coding": [
            {
              "code": "20505-4",
              "system": "http://loinc.org",
              "display": "Bilirubin.total [Mass/volume] in Urine by Test strip"
            }
          ],
          "text": "Bilirubin.total [Mass/volume] in Urine by Test strip"
        },
        "valueQuantity": {
          "system": "http://unitsofmeasure.org",
          "value": 0.8,
          "unit": "mg/dL",
          "code": "mg/dL"
        },
        "referenceRange": [
          {
            "low": {
              "value": 0,
              "code": "mg/dL",
              "system": "http://unitsofmeasure.org"
            }
          },
          {
            "high": {
              "value": 1,
              "code": "mg/dL",
              "system": "http://unitsofmeasure.org"
            }
          }
        ],
        "text": {
          "status": "generated",
          "div": "<div xmlns=\"http://www.w3.org/1999/xhtml\"><table class=\"hl7__eu__lab__report\"><tr><th>Test</th><th>07-Nov-2016</th><th>Reference&#xA0;Range</th><th>Unit</th></tr><tr><td>Bilirubin.total [Mass/volume] in Urine by Test strip</td><td>0.8</td><td>0 - 1</td><td></td><td>mg/dL</td></tr></table></div>"
        },
        "status": "final",
        "subject": {
          "reference": "urn:uuid:1ccc2927-1bea-433a-9119-ad03e5106e4f",
          "display": "Meaghan Neary"
        },
        "effectiveDateTime": "2016-11-07T22:11:04Z",
        "specimen": {
          "reference": "urn:uuid:a322564f-36dd-4e34-a76c-854d0b3afa19"
        }
      }
    },
    {
      "fullUrl": "urn:uuid:724b7d75-bf71-4fe0-94bd-6e9b544d195c",
      "resource": {
        "resourceType": "Observation",
        "id": "724b7d75-bf71-4fe0-94bd-6e9b544d195c",
        "meta": {
          "profile": [
            "http://hl7.eu/fhir/laboratory/StructureDefinition/Observation-resultslab-eu-lab"
          ]
        },
        "performer": [
          {
            "display": "The Central European Lab"
          }
        ],
        "category": [
          {
            "coding": [
              {
                "system": "http://terminology.hl7.org/CodeSystem/observation-category",
                "code": "laboratory"
              }
            ]
          }
        ],
        "code": {
          "coding": [
            {
              "code": "5770-3",
              "system": "http://loinc.org",
              "display": "Bilirubin.total [Presence] in Urine by Test strip"
            }
          ],
          "text": "Bilirubin.total [Presence] in Urine by Test strip"
        },
        "text": {
          "status": "generated",
          "div": "<div xmlns=\"http://www.w3.org/1999/xhtml\"><table class=\"hl7__eu__lab__report\"><tr><th>Test</th><th>07-Nov-2016</th><th>Reference&#xA0;Range</th><th>Unit</th></tr><tr><td>Bilirubin.total [Presence] in Urine by Test strip</td></tr></table></div>"
        },
        "status": "final",
        "subject": {
          "reference": "urn:uuid:1ccc2927-1bea-433a-9119-ad03e5106e4f",
          "display": "Meaghan Neary"
        },
        "effectiveDateTime": "2016-11-07T22:11:04Z",
        "specimen": {
          "reference": "urn:uuid:a322564f-36dd-4e34-a76c-854d0b3afa19"
        }
      }
    },
    {
      "fullUrl": "urn:uuid:d5d7c00b-712c-40db-96c6-2e11b02a7925",
      "resource": {
        "resourceType": "Observation",
        "id": "d5d7c00b-712c-40db-96c6-2e11b02a7925",
        "meta": {
          "profile": [
            "http://hl7.eu/fhir/laboratory/StructureDefinition/Observation-resultslab-eu-lab"
          ]
        },
        "performer": [
          {
            "display": "The Central European Lab"
          }
        ],
        "category": [
          {
            "coding": [
              {
                "system": "http://terminology.hl7.org/CodeSystem/observation-category",
                "code": "laboratory"
              }
            ]
          }
        ],
        "code": {
          "coding": [
            {
              "code": "5797-6",
              "system": "http://loinc.org",
              "display": "Ketones [Mass/volume] in Urine by Test strip"
            }
          ],
          "text": "Ketones [Mass/volume] in Urine by Test strip"
        },
        "valueQuantity": {
          "system": "http://unitsofmeasure.org",
          "value": 9.3,
          "unit": "mg/dL",
          "code": "mg/dL"
        },
        "referenceRange": [
          {
            "low": {
              "value": 0,
              "code": "mg/dL",
              "system": "http://unitsofmeasure.org"
            }
          },
          {
            "high": {
              "value": 4,
              "code": "mg/dL",
              "system": "http://unitsofmeasure.org"
            }
          }
        ],
        "interpretation": [
          {
            "coding": [
              {
                "code": "H",
                "system": "http://terminology.hl7.org/CodeSystem/v3-ObservationInterpretation",
                "display": "High"
              }
            ]
          }
        ],
        "text": {
          "status": "generated",
          "div": "<div xmlns=\"http://www.w3.org/1999/xhtml\"><table class=\"hl7__eu__lab__report\"><tr><th>Test</th><th>07-Nov-2016</th><th>Reference&#xA0;Range</th><th>Unit</th></tr><tr><td>Ketones [Mass/volume] in Urine by Test strip</td><td>9.3</td><td>0 - 4</td><td>H</td><td>mg/dL</td></tr></table></div>"
        },
        "status": "final",
        "subject": {
          "reference": "urn:uuid:1ccc2927-1bea-433a-9119-ad03e5106e4f",
          "display": "Meaghan Neary"
        },
        "effectiveDateTime": "2016-11-07T22:11:04Z",
        "specimen": {
          "reference": "urn:uuid:a322564f-36dd-4e34-a76c-854d0b3afa19"
        }
      }
    },
    {
      "fullUrl": "urn:uuid:5c902857-4e81-43a9-bb89-fb1c9cd198a8",
      "resource": {
        "resourceType": "Observation",
        "id": "5c902857-4e81-43a9-bb89-fb1c9cd198a8",
        "meta": {
          "profile": [
            "http://hl7.eu/fhir/laboratory/StructureDefinition/Observation-resultslab-eu-lab"
          ]
        },
        "performer": [
          {
            "display": "The Central European Lab"
          }
        ],
        "category": [
          {
            "coding": [
              {
                "system": "http://terminology.hl7.org/CodeSystem/observation-category",
                "code": "laboratory"
              }
            ]
          }
        ],
        "code": {
          "coding": [
            {
              "code": "2514-8",
              "system": "http://loinc.org",
              "display": "Ketones [Presence] in Urine by Test strip"
            }
          ],
          "text": "Ketones [Presence] in Urine by Test strip"
        },
        "text": {
          "status": "generated",
          "div": "<div xmlns=\"http://www.w3.org/1999/xhtml\"><table class=\"hl7__eu__lab__report\"><tr><th>Test</th><th>07-Nov-2016</th><th>Reference&#xA0;Range</th><th>Unit</th></tr><tr><td>Ketones [Presence] in Urine by Test strip</td></tr></table></div>"
        },
        "status": "final",
        "subject": {
          "reference": "urn:uuid:1ccc2927-1bea-433a-9119-ad03e5106e4f",
          "display": "Meaghan Neary"
        },
        "effectiveDateTime": "2016-11-07T22:11:04Z",
        "specimen": {
          "reference": "urn:uuid:a322564f-36dd-4e34-a76c-854d0b3afa19"
        }
      }
    },
    {
      "fullUrl": "urn:uuid:d570d03b-1be8-4caf-af6c-888bec4743ec",
      "resource": {
        "resourceType": "Observation",
        "id": "d570d03b-1be8-4caf-af6c-888bec4743ec",
        "meta": {
          "profile": [
            "http://hl7.eu/fhir/laboratory/StructureDefinition/Observation-resultslab-eu-lab"
          ]
        },
        "performer": [
          {
            "display": "The Central European Lab"
          }
        ],
        "category": [
          {
            "coding": [
              {
                "system": "http://terminology.hl7.org/CodeSystem/observation-category",
                "code": "laboratory"
              }
            ]
          }
        ],
        "code": {
          "coding": [
            {
              "code": "5811-5",
              "system": "http://loinc.org",
              "display": "Specific gravity of Urine by Test strip"
            }
          ],
          "text": "Specific gravity of Urine by Test strip"
        },
        "valueQuantity": {
          "system": "http://unitsofmeasure.org",
          "value": 1,
          "unit": "{nominal}",
          "code": "{nominal}"
        },
        "referenceRange": [
          {
            "low": {
              "value": 1.005,
              "code": "g/mL",
              "system": "http://unitsofmeasure.org"
            }
          },
          {
            "high": {
              "value": 1.03,
              "code": "g/mL",
              "system": "http://unitsofmeasure.org"
            }
          }
        ],
        "interpretation": [
          {
            "coding": [
              {
                "code": "L",
                "system": "http://terminology.hl7.org/CodeSystem/v3-ObservationInterpretation",
                "display": "Low"
              }
            ]
          }
        ],
        "text": {
          "status": "generated",
          "div": "<div xmlns=\"http://www.w3.org/1999/xhtml\"><table class=\"hl7__eu__lab__report\"><tr><th>Test</th><th>07-Nov-2016</th><th>Reference&#xA0;Range</th><th>Unit</th></tr><tr><td>Specific gravity of Urine by Test strip</td><td>1.0</td><td>1.005 - 1.03</td><td>L</td><td>{nominal}</td></tr></table></div>"
        },
        "status": "final",
        "subject": {
          "reference": "urn:uuid:1ccc2927-1bea-433a-9119-ad03e5106e4f",
          "display": "Meaghan Neary"
        },
        "effectiveDateTime": "2016-11-07T22:11:04Z",
        "specimen": {
          "reference": "urn:uuid:a322564f-36dd-4e34-a76c-854d0b3afa19"
        }
      }
    },
    {
      "fullUrl": "urn:uuid:e597fc47-7a26-4915-9cde-9c59941dd1b4",
      "resource": {
        "resourceType": "Observation",
        "id": "e597fc47-7a26-4915-9cde-9c59941dd1b4",
        "meta": {
          "profile": [
            "http://hl7.eu/fhir/laboratory/StructureDefinition/Observation-resultslab-eu-lab"
          ]
        },
        "performer": [
          {
            "display": "The Central European Lab"
          }
        ],
        "category": [
          {
            "coding": [
              {
                "system": "http://terminology.hl7.org/CodeSystem/observation-category",
                "code": "laboratory"
              }
            ]
          }
        ],
        "code": {
          "coding": [
            {
              "code": "5803-2",
              "system": "http://loinc.org",
              "display": "pH of Urine by Test strip"
            }
          ],
          "text": "pH of Urine by Test strip"
        },
        "valueQuantity": {
          "system": "http://unitsofmeasure.org",
          "value": 5.4,
          "unit": "pH",
          "code": "pH"
        },
        "referenceRange": [
          {
            "low": {
              "value": 4.6,
              "code": "pH",
              "system": "http://unitsofmeasure.org"
            }
          },
          {
            "high": {
              "value": 7,
              "code": "pH",
              "system": "http://unitsofmeasure.org"
            }
          }
        ],
        "text": {
          "status": "generated",
          "div": "<div xmlns=\"http://www.w3.org/1999/xhtml\"><table class=\"hl7__eu__lab__report\"><tr><th>Test</th><th>07-Nov-2016</th><th>Reference&#xA0;Range</th><th>Unit</th></tr><tr><td>pH of Urine by Test strip</td><td>5.4</td><td>4.6 - 7</td><td></td><td>pH</td></tr></table></div>"
        },
        "status": "final",
        "subject": {
          "reference": "urn:uuid:1ccc2927-1bea-433a-9119-ad03e5106e4f",
          "display": "Meaghan Neary"
        },
        "effectiveDateTime": "2016-11-07T22:11:04Z",
        "specimen": {
          "reference": "urn:uuid:a322564f-36dd-4e34-a76c-854d0b3afa19"
        }
      }
    },
    {
      "fullUrl": "urn:uuid:39d04fa0-ddb8-4f6b-af3f-87ee5353c2d5",
      "resource": {
        "resourceType": "Observation",
        "id": "39d04fa0-ddb8-4f6b-af3f-87ee5353c2d5",
        "meta": {
          "profile": [
            "http://hl7.eu/fhir/laboratory/StructureDefinition/Observation-resultslab-eu-lab"
          ]
        },
        "performer": [
          {
            "display": "The Central European Lab"
          }
        ],
        "category": [
          {
            "coding": [
              {
                "system": "http://terminology.hl7.org/CodeSystem/observation-category",
                "code": "laboratory"
              }
            ]
          }
        ],
        "code": {
          "coding": [
            {
              "code": "5804-0",
              "system": "http://loinc.org",
              "display": "Protein [Mass/volume] in Urine by Test strip"
            }
          ],
          "text": "Protein [Mass/volume] in Urine by Test strip"
        },
        "valueQuantity": {
          "system": "http://unitsofmeasure.org",
          "value": 225.5,
          "unit": "mg/dL",
          "code": "mg/dL"
        },
        "referenceRange": [
          {
            "low": {
              "value": 0,
              "code": "mg/dL",
              "system": "http://unitsofmeasure.org"
            }
          },
          {
            "high": {
              "value": 14,
              "code": "mg/dL",
              "system": "http://unitsofmeasure.org"
            }
          }
        ],
        "interpretation": [
          {
            "coding": [
              {
                "code": "H",
                "system": "http://terminology.hl7.org/CodeSystem/v3-ObservationInterpretation",
                "display": "High"
              }
            ]
          }
        ],
        "text": {
          "status": "generated",
          "div": "<div xmlns=\"http://www.w3.org/1999/xhtml\"><table class=\"hl7__eu__lab__report\"><tr><th>Test</th><th>07-Nov-2016</th><th>Reference&#xA0;Range</th><th>Unit</th></tr><tr><td>Protein [Mass/volume] in Urine by Test strip</td><td>225.5</td><td>0 - 14</td><td>H</td><td>mg/dL</td></tr></table></div>"
        },
        "status": "final",
        "subject": {
          "reference": "urn:uuid:1ccc2927-1bea-433a-9119-ad03e5106e4f",
          "display": "Meaghan Neary"
        },
        "effectiveDateTime": "2016-11-07T22:11:04Z",
        "specimen": {
          "reference": "urn:uuid:a322564f-36dd-4e34-a76c-854d0b3afa19"
        }
      }
    },
    {
      "fullUrl": "urn:uuid:05df5d7d-4033-4f73-b66e-7c0787616d84",
      "resource": {
        "resourceType": "Observation",
        "id": "05df5d7d-4033-4f73-b66e-7c0787616d84",
        "meta": {
          "profile": [
            "http://hl7.eu/fhir/laboratory/StructureDefinition/Observation-resultslab-eu-lab"
          ]
        },
        "performer": [
          {
            "display": "The Central European Lab"
          }
        ],
        "category": [
          {
            "coding": [
              {
                "system": "http://terminology.hl7.org/CodeSystem/observation-category",
                "code": "laboratory"
              }
            ]
          }
        ],
        "code": {
          "coding": [
            {
              "code": "20454-5",
              "system": "http://loinc.org",
              "display": "Protein [Presence] in Urine by Test strip"
            }
          ],
          "text": "Protein [Presence] in Urine by Test strip"
        },
        "text": {
          "status": "generated",
          "div": "<div xmlns=\"http://www.w3.org/1999/xhtml\"><table class=\"hl7__eu__lab__report\"><tr><th>Test</th><th>07-Nov-2016</th><th>Reference&#xA0;Range</th><th>Unit</th></tr><tr><td>Protein [Presence] in Urine by Test strip</td></tr></table></div>"
        },
        "status": "final",
        "subject": {
          "reference": "urn:uuid:1ccc2927-1bea-433a-9119-ad03e5106e4f",
          "display": "Meaghan Neary"
        },
        "effectiveDateTime": "2016-11-07T22:11:04Z",
        "specimen": {
          "reference": "urn:uuid:a322564f-36dd-4e34-a76c-854d0b3afa19"
        }
      }
    },
    {
      "fullUrl": "urn:uuid:27429433-2903-4c06-a30a-7258bb9caa12",
      "resource": {
        "resourceType": "Observation",
        "id": "27429433-2903-4c06-a30a-7258bb9caa12",
        "meta": {
          "profile": [
            "http://hl7.eu/fhir/laboratory/StructureDefinition/Observation-resultslab-eu-lab"
          ]
        },
        "performer": [
          {
            "display": "The Central European Lab"
          }
        ],
        "category": [
          {
            "coding": [
              {
                "system": "http://terminology.hl7.org/CodeSystem/observation-category",
                "code": "laboratory"
              }
            ]
          }
        ],
        "code": {
          "coding": [
            {
              "code": "5802-4",
              "system": "http://loinc.org",
              "display": "Nitrite [Presence] in Urine by Test strip"
            }
          ],
          "text": "Nitrite [Presence] in Urine by Test strip"
        },
        "text": {
          "status": "generated",
          "div": "<div xmlns=\"http://www.w3.org/1999/xhtml\"><table class=\"hl7__eu__lab__report\"><tr><th>Test</th><th>07-Nov-2016</th><th>Reference&#xA0;Range</th><th>Unit</th></tr><tr><td>Nitrite [Presence] in Urine by Test strip</td></tr></table></div>"
        },
        "status": "final",
        "subject": {
          "reference": "urn:uuid:1ccc2927-1bea-433a-9119-ad03e5106e4f",
          "display": "Meaghan Neary"
        },
        "effectiveDateTime": "2016-11-07T22:11:04Z",
        "specimen": {
          "reference": "urn:uuid:a322564f-36dd-4e34-a76c-854d0b3afa19"
        }
      }
    },
    {
      "fullUrl": "urn:uuid:8fb9403c-c01a-44e5-883a-50f75c1d4dd3",
      "resource": {
        "resourceType": "Observation",
        "id": "8fb9403c-c01a-44e5-883a-50f75c1d4dd3",
        "meta": {
          "profile": [
            "http://hl7.eu/fhir/laboratory/StructureDefinition/Observation-resultslab-eu-lab"
          ]
        },
        "performer": [
          {
            "display": "The Central European Lab"
          }
        ],
        "category": [
          {
            "coding": [
              {
                "system": "http://terminology.hl7.org/CodeSystem/observation-category",
                "code": "laboratory"
              }
            ]
          }
        ],
        "code": {
          "coding": [
            {
              "code": "5794-3",
              "system": "http://loinc.org",
              "display": "Hemoglobin [Presence] in Urine by Test strip"
            }
          ],
          "text": "Hemoglobin [Presence] in Urine by Test strip"
        },
        "text": {
          "status": "generated",
          "div": "<div xmlns=\"http://www.w3.org/1999/xhtml\"><table class=\"hl7__eu__lab__report\"><tr><th>Test</th><th>07-Nov-2016</th><th>Reference&#xA0;Range</th><th>Unit</th></tr><tr><td>Hemoglobin [Presence] in Urine by Test strip</td></tr></table></div>"
        },
        "status": "final",
        "subject": {
          "reference": "urn:uuid:1ccc2927-1bea-433a-9119-ad03e5106e4f",
          "display": "Meaghan Neary"
        },
        "effectiveDateTime": "2016-11-07T22:11:04Z",
        "specimen": {
          "reference": "urn:uuid:a322564f-36dd-4e34-a76c-854d0b3afa19"
        }
      }
    },
    {
      "fullUrl": "urn:uuid:a0b0fe55-c7f6-4950-9dbe-7ee7f571f1c5",
      "resource": {
        "resourceType": "Observation",
        "id": "a0b0fe55-c7f6-4950-9dbe-7ee7f571f1c5",
        "meta": {
          "profile": [
            "http://hl7.eu/fhir/laboratory/StructureDefinition/Observation-resultslab-eu-lab"
          ]
        },
        "performer": [
          {
            "display": "The Central European Lab"
          }
        ],
        "category": [
          {
            "coding": [
              {
                "system": "http://terminology.hl7.org/CodeSystem/observation-category",
                "code": "laboratory"
              }
            ]
          }
        ],
        "code": {
          "coding": [
            {
              "code": "5799-2",
              "system": "http://loinc.org",
              "display": "Leukocyte esterase [Presence] in Urine by Test strip"
            }
          ],
          "text": "Leukocyte esterase [Presence] in Urine by Test strip"
        },
        "text": {
          "status": "generated",
          "div": "<div xmlns=\"http://www.w3.org/1999/xhtml\"><table class=\"hl7__eu__lab__report\"><tr><th>Test</th><th>07-Nov-2016</th><th>Reference&#xA0;Range</th><th>Unit</th></tr><tr><td>Leukocyte esterase [Presence] in Urine by Test strip</td></tr></table></div>"
        },
        "status": "final",
        "subject": {
          "reference": "urn:uuid:1ccc2927-1bea-433a-9119-ad03e5106e4f",
          "display": "Meaghan Neary"
        },
        "effectiveDateTime": "2016-11-07T22:11:04Z",
        "specimen": {
          "reference": "urn:uuid:a322564f-36dd-4e34-a76c-854d0b3afa19"
        }
      }
    },
    {
      "fullUrl": "urn:uuid:73084069-def4-40e0-a9b0-496a35ce871b",
      "resource": {
        "resourceType": "Observation",
        "id": "73084069-def4-40e0-a9b0-496a35ce871b",
        "meta": {
          "profile": [
            "http://hl7.eu/fhir/laboratory/StructureDefinition/Observation-resultslab-eu-lab"
          ]
        },
        "performer": [
          {
            "display": "The Central European Lab"
          }
        ],
        "category": [
          {
            "coding": [
              {
                "system": "http://terminology.hl7.org/CodeSystem/observation-category",
                "code": "laboratory"
              }
            ]
          }
        ],
        "code": {
          "coding": [
            {
              "code": "4548-4",
              "system": "http://loinc.org",
              "display": "Hemoglobin A1c/Hemoglobin.total in Blood"
            }
          ],
          "text": "Hemoglobin A1c/Hemoglobin.total in Blood"
        },
        "valueQuantity": {
          "system": "http://unitsofmeasure.org",
          "value": 3.3,
          "unit": "%",
          "code": "%"
        },
        "referenceRange": [
          {
            "low": {
              "value": 4,
              "code": "%",
              "system": "http://unitsofmeasure.org"
            }
          },
          {
            "high": {
              "value": 6.4,
              "code": "%",
              "system": "http://unitsofmeasure.org"
            }
          }
        ],
        "interpretation": [
          {
            "coding": [
              {
                "code": "L",
                "system": "http://terminology.hl7.org/CodeSystem/v3-ObservationInterpretation",
                "display": "Low"
              }
            ]
          }
        ],
        "text": {
          "status": "generated",
          "div": "<div xmlns=\"http://www.w3.org/1999/xhtml\"><table class=\"hl7__eu__lab__report\"><tr><th>Test</th><th>07-Nov-2016</th><th>Reference&#xA0;Range</th><th>Unit</th></tr><tr><td>Hemoglobin A1c/Hemoglobin.total in Blood</td><td>3.3</td><td>4 - 6.4</td><td>L</td><td>%</td></tr></table></div>"
        },
        "status": "final",
        "subject": {
          "reference": "urn:uuid:1ccc2927-1bea-433a-9119-ad03e5106e4f",
          "display": "Meaghan Neary"
        },
        "effectiveDateTime": "2016-11-07T22:11:04Z",
        "specimen": {
          "reference": "urn:uuid:2ec711f4-d751-4d7b-9604-6a77b70ea710"
        }
      }
    },
    {
      "fullUrl": "urn:uuid:a50ae49c-4d17-48a4-a024-41ed6a591ca6",
      "resource": {
        "resourceType": "Device",
        "id": "a50ae49c-4d17-48a4-a024-41ed6a591ca6",
        "deviceName": [
          {
            "name": "SYNDERAI Synthetic Generator",
            "type": "manufacturer-name"
          }
        ],
        "version": [
          {
            "value": "5.0"
          }
        ],
        "text": {
          "status": "generated",
          "div": "<div xmlns=\"http://www.w3.org/1999/xhtml\">SYNDERAI Synthetic Generator v5.0</div>"
        },
        "status": "active\"",
        "distinctIdentifier": "synderai-generator-50",
        "manufacturer": "SYNDERAI Project"
      }
    },
    {
      "fullUrl": "urn:uuid:d4c11b65-7d1f-47d9-aed8-638991e7c44d",
      "resource": {
        "resourceType": "Provenance",
        "id": "d4c11b65-7d1f-47d9-aed8-638991e7c44d",
        "target": [
          {
            "reference": "Patient/1ccc2927-1bea-433a-9119-ad03e5106e4f"
          },
          {
            "reference": "Bundle/a7da2ec7-814d-4d05-a990-82965b9c610e"
          },
          {
            "reference": "Composition/7f19fe6b-5993-423e-a823-98b624bf346c"
          },
          {
            "reference": "PractitionerRole/78bcdab3-2a5b-4021-a9b1-8a069c9f59c0"
          },
          {
            "reference": "Practitioner/88184d2d-6b47-4e28-9e14-895fd0be0747"
          },
          {
            "reference": "PractitionerRole/429d2d9a-a1dc-41a6-b441-67b5591c9bf6"
          },
          {
            "reference": "Organization/b6117823-7bf8-428b-b7bd-f90381d268c2"
          }
        ],
        "activity": {
          "text": "Synthetic Example Data Generation"
        },
        "policy": [
          "https://synderai.net/synderai-synthetic-data-policy"
        ],
        "agent": [
          {
            "type": {
              "text": "author"
            },
            "who": {
              "reference": "Device/a50ae49c-4d17-48a4-a024-41ed6a591ca6"
            }
          }
        ],
        "reason": [
          {
            "text": "Interoperability Testing and Training (non-clinical use)"
          }
        ],
        "text": {
          "status": "generated",
          "div": "<div xmlns=\"http://www.w3.org/1999/xhtml\">Provenance for SYNDERAI Synthetic Example Data Resource</div>"
        },
        "recorded": "2016-11-07T23:11:04Z"
      }
    },
    {
      "fullUrl": "urn:uuid:78bcdab3-2a5b-4021-a9b1-8a069c9f59c0",
      "resource": {
        "resourceType": "PractitionerRole",
        "id": "78bcdab3-2a5b-4021-a9b1-8a069c9f59c0",
        "meta": {
          "profile": [
            "http://hl7.eu/fhir/base/StructureDefinition/practitionerRole-eu"
          ]
        },
        "text": {
          "status": "generated",
          "div": "<div xmlns=\"http://www.w3.org/1999/xhtml\">Laboratory Role Id: 78bcdab3-2a5b-4021-a9b1-8a069c9f59c0</div>"
        },
        "practitioner": {
          "reference": "urn:uuid:88184d2d-6b47-4e28-9e14-895fd0be0747"
        }
      }
    },
    {
      "fullUrl": "urn:uuid:88184d2d-6b47-4e28-9e14-895fd0be0747",
      "resource": {
        "resourceType": "Practitioner",
        "id": "88184d2d-6b47-4e28-9e14-895fd0be0747",
        "meta": {
          "profile": [
            "http://hl7.eu/fhir/base/StructureDefinition/practitioner-eu"
          ]
        },
        "identifier": [
          {
            "assigner": {
              "display": "HL7 Europe"
            },
            "system": "urn:oid:2.16.840.1.113883.2.51.999",
            "value": "2253679c-6d4e-4438-8d6d-873d5cf83ec8"
          }
        ],
        "name": [
          {
            "prefix": [
              "dr"
            ],
            "given": [
              "Ex"
            ],
            "family": "Ample"
          }
        ],
        "address": [
          {
            "line": [
              "Laboratoire Central Européenne",
              "Boulevard du Jardin Botanique 32"
            ],
            "postalCode": "1000",
            "city": "Brussels",
            "country": "Belgium"
          }
        ],
        "text": {
          "status": "generated",
          "div": "<div xmlns=\"http://www.w3.org/1999/xhtml\">Laboratory: Laboratoire Central Européenne, 1000 Brussels, Belgium</div>"
        }
      }
    }
  ],
  "type": "document",
  "timestamp": "2016-11-07T23:11:04Z"
}
