{
  "resourceType": "Bundle",
  "id": "0642985c-8f80-4de8-bdcf-9aa9cfb483d5",
  "meta": {
    "profile": [
      "http://hl7.eu/fhir/laboratory/StructureDefinition/Bundle-eu-lab"
    ]
  },
  "identifier": {
    "assigner": {
      "display": "HL7 Europe"
    },
    "system": "urn:oid:2.16.840.1.113883.2.51.999",
    "value": "629c76e9-3eab-4e1e-a197-2765dc4b356d"
  },
  "entry": [
    {
      "fullUrl": "urn:uuid:e037bcfc-0f38-4503-8b8b-4ea8f57891e0",
      "resource": {
        "resourceType": "Composition",
        "id": "e037bcfc-0f38-4503-8b8b-4ea8f57891e0",
        "meta": {
          "profile": [
            "http://hl7.eu/fhir/laboratory/StructureDefinition/Composition-eu-lab"
          ]
        },
        "identifier": {
          "assigner": {
            "display": "HL7 Europe"
          },
          "system": "urn:oid:2.16.840.1.113883.2.51.999",
          "value": "bb06dfa8-299b-4bfa-8ee9-500f9d80e70b"
        },
        "author": [
          {
            "reference": "urn:uuid:0289f5a5-9ab2-41eb-8a25-53b45358155e"
          }
        ],
        "category": [
          {
            "coding": [
              {
                "code": "26436-6",
                "system": "http://loinc.org",
                "display": "Laboratory studies (set)"
              }
            ]
          }
        ],
        "type": {
          "coding": [
            {
              "code": "11502-2",
              "system": "http://loinc.org",
              "display": "Laboratory report"
            }
          ],
          "text": "Laboratory Report"
        },
        "section": [
          {
            "code": {
              "coding": [
                {
                  "code": "26436-6",
                  "system": "http://loinc.org",
                  "display": "Laboratory studies (set)"
                }
              ],
              "text": "Laboratory studies"
            },
            "section": [
              {
                "code": {
                  "coding": [
                    {
                      "code": "$18719-5",
                      "system": "http://loinc.org",
                      "display": "Chemistry studies (set)"
                    }
                  ],
                  "text": "Chemistry"
                },
                "entry": [
                  {
                    "reference": "urn:uuid:03ddae5e-d271-4062-8b5c-86f1df321aec"
                  },
                  {
                    "reference": "urn:uuid:df8a608d-fecf-4665-ada5-c6beae8a369c"
                  },
                  {
                    "reference": "urn:uuid:251c4e26-1619-4f16-b71f-a4b412703318"
                  },
                  {
                    "reference": "urn:uuid:229c692a-e3b7-4f35-8fc1-b1ff311b6a51"
                  },
                  {
                    "reference": "urn:uuid:72b0d8b9-ed7a-4bb8-8744-9647e1406e3a"
                  },
                  {
                    "reference": "urn:uuid:99d249d5-38f5-439a-893b-3e38e8b0603c"
                  },
                  {
                    "reference": "urn:uuid:a16f8c10-b4c7-41cb-bda7-2d2743a91bc7"
                  },
                  {
                    "reference": "urn:uuid:ee995940-1e26-462a-90cf-aef8cd0b9e60"
                  },
                  {
                    "reference": "urn:uuid:88ecbb67-2a14-48bb-a6e5-bf52367c307f"
                  },
                  {
                    "reference": "urn:uuid:2c923f44-dd2a-4b17-9656-5eacdeb1256b"
                  },
                  {
                    "reference": "urn:uuid:a8f3be94-e7b3-4ce8-9c4d-679d0ba1a9df"
                  },
                  {
                    "reference": "urn:uuid:8f8f1e4b-17dd-4d03-b1fe-17bbc24c1fb5"
                  },
                  {
                    "reference": "urn:uuid:3c096462-e4fc-47f5-a5ba-4d55e6b3c43d"
                  },
                  {
                    "reference": "urn:uuid:25a075f7-813e-4381-a5df-93b82c11e567"
                  },
                  {
                    "reference": "urn:uuid:a8d64a7b-fcd1-4c9b-a5cb-b5d64f487f12"
                  },
                  {
                    "reference": "urn:uuid:4d73858e-57eb-4eb0-8821-6600dbc87b2c"
                  },
                  {
                    "reference": "urn:uuid:aa9f8ac7-b97d-432c-b616-6a83b778d5d4"
                  },
                  {
                    "reference": "urn:uuid:7ebfdbd5-6dcc-4796-80b5-8b8faf4c9ccd"
                  }
                ],
                "text": {
                  "status": "generated",
                  "div": "<div xmlns=\"http://www.w3.org/1999/xhtml\"><h3>Chemistry</h3><table class=\"hl7__eu__lab__report\"><thead><tr><th>Test</th><th>11-FEB-2021</th><th>Reference&#xA0;Range</th><th>Unit</th></tr></thead><tbody><tr><td>Glucose [Mass/volume] in Serum or Plasma</td><td>86.9</td><td>70 - 139</td><td>mg/dL</td></tr><tr><td>Urea nitrogen [Mass/volume] in Serum or Plasma</td><td>19.2</td><td>7 - 20</td><td>mg/dL</td></tr><tr><td>Creatinine [Mass/volume] in Serum or Plasma</td><td><strong>1.8 H</strong></td><td>0.6 - 1.1</td><td>mg/dL</td></tr><tr><td>Calcium [Mass/volume] in Serum or Plasma</td><td>8.9</td><td>8.5 - 10.4</td><td>mg/dL</td></tr><tr><td>Sodium [Moles/volume] in Serum or Plasma</td><td>142.8</td><td>135 - 145</td><td>mmol/L</td></tr><tr><td>Potassium [Moles/volume] in Serum or Plasma</td><td>4.1</td><td>3.5 - 5.1</td><td>mmol/L</td></tr><tr><td>Chloride [Moles/volume] in Serum or Plasma</td><td>104.2</td><td>98 - 110</td><td>mmol/L</td></tr><tr><td>Carbon dioxide, total [Moles/volume] in Serum or Plasma</td><td>27.7</td><td>22 - 32</td><td>mmol/L</td></tr><tr><td>Ketones [Presence] in Urine by Test strip</td><td>Urine ketone test = +</td><td></td><td></td></tr><tr><td>Hemoglobin A1c/Hemoglobin.total in Blood</td><td><strong>3.3 L</strong></td><td>4 - 6</td><td>%</td></tr><tr><td>Glucose [Mass/volume] in Blood</td><td>86.9</td><td>70 - 100</td><td>mg/dL</td></tr><tr><td>Urea nitrogen [Mass/volume] in Blood</td><td>19.2</td><td>7 - 20</td><td>mg/dL</td></tr><tr><td>Creatinine [Mass/volume] in Blood</td><td><strong>2.0 H</strong></td><td>0.6 - 1.3</td><td>mg/dL</td></tr><tr><td>Calcium [Mass/volume] in Blood</td><td>8.9</td><td>8.6 - 10.4</td><td>mg/dL</td></tr><tr><td>Sodium [Moles/volume] in Blood</td><td>142.8</td><td>135 - 145</td><td>mmol/L</td></tr><tr><td>Potassium [Moles/volume] in Blood</td><td>4.1</td><td>3.5 - 5.1</td><td>mmol/L</td></tr><tr><td>Chloride [Moles/volume] in Blood</td><td>104.2</td><td>98 - 110</td><td>mmol/L</td></tr><tr><td>Carbon dioxide, total [Moles/volume] in Blood</td><td>27.7</td><td>22 - 29</td><td>mmol/L</td></tr></tbody></table></div>"
                },
                "title": "Chemistry"
              },
              {
                "code": {
                  "coding": [
                    {
                      "code": "$18729-4",
                      "system": "http://loinc.org",
                      "display": "Urinalysis studies (set)"
                    }
                  ],
                  "text": "Urinalysis"
                },
                "entry": [
                  {
                    "reference": "urn:uuid:7033c670-8961-4498-8d32-6c131d4e8347"
                  },
                  {
                    "reference": "urn:uuid:859b0d44-bf6e-47c9-b844-70ca91706eba"
                  },
                  {
                    "reference": "urn:uuid:90c9e88d-aad5-43dc-84ba-f97a327678e0"
                  },
                  {
                    "reference": "urn:uuid:b5935542-fd74-4349-b5da-e2e1f0d89b60"
                  },
                  {
                    "reference": "urn:uuid:d0585111-0b46-4238-b056-cdae2bda513c"
                  },
                  {
                    "reference": "urn:uuid:5ccdcb4f-e743-4a5e-b706-986925e04b9c"
                  },
                  {
                    "reference": "urn:uuid:b72a998b-35cf-428a-9953-641ba9ae39dc"
                  },
                  {
                    "reference": "urn:uuid:fb4c60e4-ca43-47ee-94bc-c5ff4bdeb588"
                  },
                  {
                    "reference": "urn:uuid:4587c44c-ed58-455a-955d-c1f019e70f37"
                  },
                  {
                    "reference": "urn:uuid:6d5da3b5-b230-4cb7-b786-37301b9d4a89"
                  },
                  {
                    "reference": "urn:uuid:dfa4768a-a762-4c9d-ab69-80e4694d999f"
                  },
                  {
                    "reference": "urn:uuid:f17f2090-ff22-4767-8f41-90fdbb98b85e"
                  }
                ],
                "text": {
                  "status": "generated",
                  "div": "<div xmlns=\"http://www.w3.org/1999/xhtml\"><h3>Urinalysis</h3><table class=\"hl7__eu__lab__report\"><thead><tr><th>Test</th><th>11-FEB-2021</th><th>Reference&#xA0;Range</th><th>Unit</th></tr></thead><tbody><tr><td>Glucose [Mass/volume] in Urine by Test strip</td><td><strong>2.1 H</strong></td><td>0 - 0</td><td>mg/dL</td></tr><tr><td>Glucose [Presence] in Urine by Test strip</td><td>++</td><td></td><td></td></tr><tr><td>Bilirubin.total [Mass/volume] in Urine by Test strip</td><td>1.2</td><td>0 - 1.6</td><td>mg/dL</td></tr><tr><td>Bilirubin.total [Presence] in Urine by Test strip</td><td>Finding of bilirubin in urine</td><td></td><td></td></tr><tr><td>Ketones [Mass/volume] in Urine by Test strip</td><td><strong>18.0 H</strong></td><td>0 - 0.5</td><td>mg/dL</td></tr><tr><td>Specific gravity of Urine by Test strip</td><td><strong>1.0 L</strong></td><td>1.005 - 1.03</td><td>{nominal}</td></tr><tr><td>pH of Urine by Test strip</td><td>6.9</td><td>4.5 - 7.5</td><td>pH</td></tr><tr><td>Protein [Mass/volume] in Urine by Test strip</td><td><strong>179.0 H</strong></td><td>0 - 15</td><td>mg/dL</td></tr><tr><td>Protein [Presence] in Urine by Test strip</td><td>Urine protein test = ++</td><td></td><td></td></tr><tr><td>Nitrite [Presence] in Urine by Test strip</td><td>Urine nitrite negative</td><td></td><td></td></tr><tr><td>Hemoglobin [Presence] in Urine by Test strip</td><td>Urine blood test = negative</td><td></td><td></td></tr><tr><td>Leukocyte esterase [Presence] in Urine by Test strip</td><td>Urine leukocyte test negative</td><td></td><td></td></tr></tbody></table></div>"
                },
                "title": "Urinalysis"
              },
              {
                "code": {
                  "coding": [
                    {
                      "code": "$LP7846-1",
                      "system": "http://loinc.org",
                      "display": "Specimen information"
                    }
                  ],
                  "text": "Specimen information"
                },
                "entry": [
                  {
                    "reference": "urn:uuid:1febf9bf-d451-42bb-aa6e-98daebb5fac3"
                  },
                  {
                    "reference": "urn:uuid:b5223151-73d3-4431-add2-89c34930a802"
                  },
                  {
                    "reference": "urn:uuid:a279bd66-d132-45a8-af06-79ecc29226fd"
                  },
                  {
                    "reference": "urn:uuid:b35511e7-d465-4780-b990-61e3e58c989c"
                  }
                ],
                "text": {
                  "status": "generated",
                  "div": "<div xmlns=\"http://www.w3.org/1999/xhtml\"><h3>Specimen information</h3><table class=\"hl7__eu__lab__report\"><thead><tr><th>Test</th><th>11-FEB-2021</th><th>Specimen</th><th></th></tr></thead><tbody><tr><td>Appearance of Urine</td><td>Cloudy urine</td><td>Urine</td><td></td></tr><tr><td>Odor of Urine</td><td>Urine smell ammoniacal</td><td>Urine</td><td></td></tr><tr><td>Clarity of Urine</td><td>Translucent</td><td>Urine</td><td></td></tr><tr><td>Color of Urine</td><td>Brown color</td><td>Urine</td><td></td></tr></tbody></table></div>"
                },
                "title": "Specimen information"
              }
            ],
            "title": "Laboratory Report"
          },
          {
            "text": {
              "status": "generated",
              "div": "<div xmlns=\"http://www.w3.org/1999/xhtml\"><h3>Annotation</h3><table class=\"hl7__eu__lab__report\"><tr><th>Conclusion and Recommendations based on this report and previous findings known to us</th></tr><tr><td>The patient shows elevated creatinine, proteinuria, glucosuria, and ketonuria, suggesting impaired renal function and possible glomerular involvement. Urine is cloudy, brown, and has low specific gravity. Blood glucose and HbA1c are not elevated, making diabetes unlikely. No evidence of urinary tract infection. Findings are consistent with renal dysfunction, possibly acute or chronic, and further nephrological evaluation is recommended.</td></tr></table></div>"
            },
            "code": {
              "coding": [
                {
                  "system": "http://loinc.org",
                  "code": "48767-8",
                  "display": "Annotation comment"
                }
              ]
            },
            "title": "Annotation comment"
          }
        ],
        "status": "final",
        "subject": {
          "reference": "urn:uuid:380c6fa7-771b-414b-8033-3a782352f1ee",
          "display": "Molly Jenkins"
        },
        "date": "2021-02-11T15:42:11Z",
        "title": "Laboratory Report",
        "confidentiality": "N"
      }
    },
    {
      "fullUrl": "urn:uuid:b8307520-d4ec-45f3-9319-b4150ea983e8",
      "resource": {
        "resourceType": "DiagnosticReport",
        "id": "b8307520-d4ec-45f3-9319-b4150ea983e8",
        "meta": {
          "profile": [
            "http://hl7.eu/fhir/laboratory/StructureDefinition/DiagnosticReport-eu-lab"
          ]
        },
        "identifier": [
          {
            "assigner": {
              "display": "HL7 Europe"
            },
            "system": "urn:oid:2.16.840.1.113883.2.51.999",
            "value": "bac99754-f725-4f7e-b1f6-620384d47694"
          }
        ],
        "extension": [
          {
            "url": "http://hl7.org/fhir/5.0/StructureDefinition/extension-DiagnosticReport.composition",
            "valueReference": {
              "reference": "urn:uuid:bb06dfa8-299b-4bfa-8ee9-500f9d80e70b"
            }
          }
        ],
        "category": [
          {
            "coding": [
              {
                "code": "26436-6",
                "system": "http://loinc.org",
                "display": "Laboratory studies (set)"
              }
            ]
          }
        ],
        "specimen": [
          {
            "reference": "urn:uuid:5a308c5f-3461-45ec-9355-884452397d6e"
          },
          {
            "reference": "urn:uuid:90b8f369-7914-46fc-8772-3b58471d516b"
          },
          {
            "reference": "urn:uuid:233c280d-4b90-4e67-a041-49253e5b1e49"
          }
        ],
        "result": [
          {
            "reference": "urn:uuid:03ddae5e-d271-4062-8b5c-86f1df321aec"
          },
          {
            "reference": "urn:uuid:df8a608d-fecf-4665-ada5-c6beae8a369c"
          },
          {
            "reference": "urn:uuid:251c4e26-1619-4f16-b71f-a4b412703318"
          },
          {
            "reference": "urn:uuid:229c692a-e3b7-4f35-8fc1-b1ff311b6a51"
          },
          {
            "reference": "urn:uuid:72b0d8b9-ed7a-4bb8-8744-9647e1406e3a"
          },
          {
            "reference": "urn:uuid:99d249d5-38f5-439a-893b-3e38e8b0603c"
          },
          {
            "reference": "urn:uuid:a16f8c10-b4c7-41cb-bda7-2d2743a91bc7"
          },
          {
            "reference": "urn:uuid:ee995940-1e26-462a-90cf-aef8cd0b9e60"
          },
          {
            "reference": "urn:uuid:1febf9bf-d451-42bb-aa6e-98daebb5fac3"
          },
          {
            "reference": "urn:uuid:b5223151-73d3-4431-add2-89c34930a802"
          },
          {
            "reference": "urn:uuid:a279bd66-d132-45a8-af06-79ecc29226fd"
          },
          {
            "reference": "urn:uuid:b35511e7-d465-4780-b990-61e3e58c989c"
          },
          {
            "reference": "urn:uuid:7033c670-8961-4498-8d32-6c131d4e8347"
          },
          {
            "reference": "urn:uuid:859b0d44-bf6e-47c9-b844-70ca91706eba"
          },
          {
            "reference": "urn:uuid:90c9e88d-aad5-43dc-84ba-f97a327678e0"
          },
          {
            "reference": "urn:uuid:b5935542-fd74-4349-b5da-e2e1f0d89b60"
          },
          {
            "reference": "urn:uuid:d0585111-0b46-4238-b056-cdae2bda513c"
          },
          {
            "reference": "urn:uuid:88ecbb67-2a14-48bb-a6e5-bf52367c307f"
          },
          {
            "reference": "urn:uuid:5ccdcb4f-e743-4a5e-b706-986925e04b9c"
          },
          {
            "reference": "urn:uuid:b72a998b-35cf-428a-9953-641ba9ae39dc"
          },
          {
            "reference": "urn:uuid:fb4c60e4-ca43-47ee-94bc-c5ff4bdeb588"
          },
          {
            "reference": "urn:uuid:4587c44c-ed58-455a-955d-c1f019e70f37"
          },
          {
            "reference": "urn:uuid:6d5da3b5-b230-4cb7-b786-37301b9d4a89"
          },
          {
            "reference": "urn:uuid:dfa4768a-a762-4c9d-ab69-80e4694d999f"
          },
          {
            "reference": "urn:uuid:f17f2090-ff22-4767-8f41-90fdbb98b85e"
          },
          {
            "reference": "urn:uuid:2c923f44-dd2a-4b17-9656-5eacdeb1256b"
          },
          {
            "reference": "urn:uuid:a8f3be94-e7b3-4ce8-9c4d-679d0ba1a9df"
          },
          {
            "reference": "urn:uuid:8f8f1e4b-17dd-4d03-b1fe-17bbc24c1fb5"
          },
          {
            "reference": "urn:uuid:3c096462-e4fc-47f5-a5ba-4d55e6b3c43d"
          },
          {
            "reference": "urn:uuid:25a075f7-813e-4381-a5df-93b82c11e567"
          },
          {
            "reference": "urn:uuid:a8d64a7b-fcd1-4c9b-a5cb-b5d64f487f12"
          },
          {
            "reference": "urn:uuid:4d73858e-57eb-4eb0-8821-6600dbc87b2c"
          },
          {
            "reference": "urn:uuid:aa9f8ac7-b97d-432c-b616-6a83b778d5d4"
          },
          {
            "reference": "urn:uuid:7ebfdbd5-6dcc-4796-80b5-8b8faf4c9ccd"
          }
        ],
        "status": "registered",
        "code": {
          "coding": [
            {
              "code": "11502-2",
              "system": "http://loinc.org",
              "display": "Laboratory report"
            }
          ]
        },
        "subject": {
          "reference": "urn:uuid:380c6fa7-771b-414b-8033-3a782352f1ee",
          "display": "Molly Jenkins"
        }
      }
    },
    {
      "fullUrl": "urn:uuid:380c6fa7-771b-414b-8033-3a782352f1ee",
      "resource": {
        "resourceType": "Patient",
        "id": "380c6fa7-771b-414b-8033-3a782352f1ee",
        "meta": {
          "security": [
            {
              "system": "http://terminology.hl7.org/CodeSystem/v3-ActReason",
              "code": "HTEST"
            },
            {
              "system": "http://terminology.hl7.org/CodeSystem/v3-ActReason",
              "code": "TRAIN"
            }
          ],
          "tag": [
            {
              "system": "https://synderai.net/fhir/CodeSystem/tags",
              "code": "synthetic",
              "display": "SYNDERAI Synthetic data"
            }
          ],
          "profile": [
            "http://hl7.eu/fhir/base/StructureDefinition/patient-eu-core"
          ]
        },
        "identifier": [
          {
            "type": {
              "coding": [
                {
                  "code": "PT",
                  "system": "http://terminology.hl7.org/CodeSystem/v2-0203"
                }
              ]
            },
            "system": "http://ec.europa.eu/identifier/eci",
            "value": "7634-012682-0"
          },
          {
            "type": {
              "coding": [
                {
                  "code": "MR",
                  "system": "http://terminology.hl7.org/CodeSystem/v2-0203"
                }
              ]
            },
            "system": "http://local.setting.eu/identifier",
            "value": "9934a8eb-b6e1-34e1-edf5-57a0262d1bea"
          }
        ],
        "name": [
          {
            "family": "Jenkins"
          },
          {
            "given": [
              "Molly"
            ]
          },
          {
            "text": "Molly Jenkins"
          }
        ],
        "address": [
          {
            "line": [
              "98 Ali field"
            ],
            "use": "home",
            "type": "physical",
            "postalCode": "AB42",
            "city": "Port Jennamouth",
            "country": "United Kingdom"
          }
        ],
        "telecom": [
          {
            "system": "phone",
            "value": "(0118) 496 0334"
          }
        ],
        "extension": [
          {
            "url": "http://hl7.org/fhir/StructureDefinition/patient-nationality",
            "valueCodeableConcept": {
              "coding": [
                {
                  "code": "GB",
                  "system": "http://hl7.org/fhir/ValueSet/country"
                }
              ]
            }
          }
        ],
        "text": {
          "status": "generated",
          "div": "<div xmlns=\"http://www.w3.org/1999/xhtml\"><table class=\"hl7__ips\"><tr><td>Molly Jenkins</td><td>female</td><td>14-Aug-1967</td></tr></table></div>"
        },
        "gender": "female",
        "birthDate": "1967-08-14"
      }
    },
    {
      "fullUrl": "urn:uuid:037c4068-994c-4369-8b9d-74b55c25eb33",
      "resource": {
        "resourceType": "ServiceRequest",
        "id": "037c4068-994c-4369-8b9d-74b55c25eb33",
        "meta": {
          "profile": [
            "http://hl7.eu/fhir/laboratory/StructureDefinition/ServiceRequest-eu-lab"
          ]
        },
        "identifier": [
          {
            "system": "http://example.org",
            "value": "d4ec004f-7dac-4ce6-aa49-22354354f50a"
          }
        ],
        "specimen": [
          {
            "reference": "urn:uuid:5a308c5f-3461-45ec-9355-884452397d6e"
          },
          {
            "reference": "urn:uuid:90b8f369-7914-46fc-8772-3b58471d516b"
          },
          {
            "reference": "urn:uuid:233c280d-4b90-4e67-a041-49253e5b1e49"
          }
        ],
        "reasonCode": [
          {
            "coding": [
              {
                "code": "431856006",
                "system": "http://snomed.info/sct",
                "display": "Chronic kidney disease stage 2"
              }
            ]
          },
          {
            "coding": [
              {
                "code": "90781000119102",
                "system": "http://snomed.info/sct",
                "display": "Microalbuminuria due to type 2 diabetes mellitus"
              }
            ]
          },
          {
            "coding": [
              {
                "code": "127013003",
                "system": "http://snomed.info/sct",
                "display": "Disorder of kidney due to diabetes mellitus"
              }
            ]
          },
          {
            "coding": [
              {
                "code": "431855005",
                "system": "http://snomed.info/sct",
                "display": "Chronic kidney disease stage 1"
              }
            ]
          },
          {
            "coding": [
              {
                "code": "15777000",
                "system": "http://snomed.info/sct",
                "display": "Prediabetes"
              }
            ]
          },
          {
            "coding": [
              {
                "code": "59621000",
                "system": "http://snomed.info/sct",
                "display": "Essential hypertension"
              }
            ]
          },
          {
            "coding": [
              {
                "code": "53827007",
                "system": "http://snomed.info/sct",
                "display": "Excessive salivation"
              }
            ]
          },
          {
            "coding": [
              {
                "code": "64859006",
                "system": "http://snomed.info/sct",
                "display": "Osteoporosis"
              }
            ]
          },
          {
            "coding": [
              {
                "code": "128188000",
                "system": "http://snomed.info/sct",
                "display": "Cerebral palsy"
              }
            ]
          },
          {
            "coding": [
              {
                "code": "235595009",
                "system": "http://snomed.info/sct",
                "display": "Gastroesophageal reflux disease"
              }
            ]
          }
        ],
        "status": "active",
        "intent": "order",
        "code": {
          "coding": [
            {
              "code": "108252007",
              "system": "http://snomed.info/sct",
              "display": "Laboratory procedure"
            }
          ]
        },
        "subject": {
          "reference": "urn:uuid:380c6fa7-771b-414b-8033-3a782352f1ee",
          "display": "Molly Jenkins"
        },
        "requester": {
          "reference": "urn:uuid:e5ef3cbe-c582-44f9-9f45-0a87ebf87c3f"
        }
      }
    },
    {
      "fullUrl": "urn:uuid:e5ef3cbe-c582-44f9-9f45-0a87ebf87c3f",
      "resource": {
        "resourceType": "PractitionerRole",
        "id": "e5ef3cbe-c582-44f9-9f45-0a87ebf87c3f",
        "meta": {
          "profile": [
            "http://hl7.eu/fhir/base/StructureDefinition/practitionerRole-eu"
          ]
        },
        "text": {
          "status": "generated",
          "div": "<div xmlns=\"http://www.w3.org/1999/xhtml\">Provider Role Id: e5ef3cbe-c582-44f9-9f45-0a87ebf87c3f</div>"
        },
        "organization": {
          "reference": "urn:uuid:ff67c55a-8109-4a27-b65e-7b176fbe4a76"
        }
      }
    },
    {
      "fullUrl": "urn:uuid:ff67c55a-8109-4a27-b65e-7b176fbe4a76",
      "resource": {
        "resourceType": "Organization",
        "id": "ff67c55a-8109-4a27-b65e-7b176fbe4a76",
        "meta": {
          "profile": [
            "http://hl7.eu/fhir/base/StructureDefinition/organization-eu"
          ]
        },
        "identifier": [
          {
            "assigner": {
              "display": "HL7 Europe"
            },
            "system": "urn:oid:2.16.840.1.113883.2.51.999",
            "value": "963e3434-fb3f-4cc6-8627-b131dd8e6b72"
          }
        ],
        "address": [
          {
            "city": "Aberdeen",
            "postalCode": "AB11 6",
            "country": "United Kingdom"
          }
        ],
        "text": {
          "status": "generated",
          "div": "<div xmlns=\"http://www.w3.org/1999/xhtml\">Provider Organization: Aberdeen Community Health and Care Village</div>"
        },
        "name": "Aberdeen Community Health and Care Village"
      }
    },
    {
      "fullUrl": "urn:uuid:5a308c5f-3461-45ec-9355-884452397d6e",
      "resource": {
        "resourceType": "Specimen",
        "id": "5a308c5f-3461-45ec-9355-884452397d6e",
        "meta": {
          "profile": [
            "http://hl7.eu/fhir/laboratory/StructureDefinition/Specimen-eu-lab"
          ]
        },
        "collection": {
          "collectedDateTime": "2021-02-11"
        },
        "text": {
          "status": "generated",
          "div": "<div xmlns=\"http://www.w3.org/1999/xhtml\"><table class=\"hl7__eu__lab__report\"><tr><th>Specimen</th><th>Collection Date</th></tr><tr><td>Acellular blood (serum or plasma) specimen</td><td><span class=\"nb\">11-Feb-2021</span></td></tr></table></div>"
        },
        "type": {
          "coding": [
            {
              "code": "122592007",
              "system": "http://snomed.info/sct",
              "display": "Acellular blood (serum or plasma) specimen"
            }
          ]
        }
      }
    },
    {
      "fullUrl": "urn:uuid:90b8f369-7914-46fc-8772-3b58471d516b",
      "resource": {
        "resourceType": "Specimen",
        "id": "90b8f369-7914-46fc-8772-3b58471d516b",
        "meta": {
          "profile": [
            "http://hl7.eu/fhir/laboratory/StructureDefinition/Specimen-eu-lab"
          ]
        },
        "collection": {
          "collectedDateTime": "2021-02-11"
        },
        "text": {
          "status": "generated",
          "div": "<div xmlns=\"http://www.w3.org/1999/xhtml\"><table class=\"hl7__eu__lab__report\"><tr><th>Specimen</th><th>Collection Date</th></tr><tr><td>Urine specimen</td><td><span class=\"nb\">11-Feb-2021</span></td></tr></table></div>"
        },
        "type": {
          "coding": [
            {
              "code": "122575003",
              "system": "http://snomed.info/sct",
              "display": "Urine specimen"
            }
          ]
        }
      }
    },
    {
      "fullUrl": "urn:uuid:233c280d-4b90-4e67-a041-49253e5b1e49",
      "resource": {
        "resourceType": "Specimen",
        "id": "233c280d-4b90-4e67-a041-49253e5b1e49",
        "meta": {
          "profile": [
            "http://hl7.eu/fhir/laboratory/StructureDefinition/Specimen-eu-lab"
          ]
        },
        "collection": {
          "collectedDateTime": "2021-02-11"
        },
        "text": {
          "status": "generated",
          "div": "<div xmlns=\"http://www.w3.org/1999/xhtml\"><table class=\"hl7__eu__lab__report\"><tr><th>Specimen</th><th>Collection Date</th></tr><tr><td>Whole blood specimen (specimen)</td><td><span class=\"nb\">11-Feb-2021</span></td></tr></table></div>"
        },
        "type": {
          "coding": [
            {
              "code": "258580003",
              "system": "http://snomed.info/sct",
              "display": "Whole blood specimen (specimen)"
            }
          ]
        }
      }
    },
    {
      "fullUrl": "urn:uuid:03ddae5e-d271-4062-8b5c-86f1df321aec",
      "resource": {
        "resourceType": "Observation",
        "id": "03ddae5e-d271-4062-8b5c-86f1df321aec",
        "meta": {
          "profile": [
            "http://hl7.eu/fhir/laboratory/StructureDefinition/Observation-resultslab-eu-lab"
          ]
        },
        "performer": [
          {
            "display": "The Central European Lab"
          }
        ],
        "category": [
          {
            "coding": [
              {
                "system": "http://terminology.hl7.org/CodeSystem/observation-category",
                "code": "laboratory"
              }
            ]
          }
        ],
        "code": {
          "coding": [
            {
              "code": "2345-7",
              "system": "http://loinc.org",
              "display": "Glucose [Mass/volume] in Serum or Plasma"
            }
          ],
          "text": "Glucose [Mass/volume] in Serum or Plasma"
        },
        "valueQuantity": {
          "system": "http://unitsofmeasure.org",
          "value": 86.9,
          "unit": "mg/dL",
          "code": "mg/dL"
        },
        "referenceRange": [
          {
            "low": {
              "value": 70,
              "code": "mg/dL",
              "system": "http://unitsofmeasure.org"
            }
          },
          {
            "high": {
              "value": 139,
              "code": "mg/dL",
              "system": "http://unitsofmeasure.org"
            }
          }
        ],
        "text": {
          "status": "generated",
          "div": "<div xmlns=\"http://www.w3.org/1999/xhtml\"><table class=\"hl7__eu__lab__report\"><tr><th>Test</th><th>11-Feb-2021</th><th>Reference&#xA0;Range</th><th>Unit</th></tr><tr><td>Glucose [Mass/volume] in Serum or Plasma</td><td>86.9</td><td>70 - 139</td><td></td><td>mg/dL</td></tr></table></div>"
        },
        "status": "final",
        "subject": {
          "reference": "urn:uuid:380c6fa7-771b-414b-8033-3a782352f1ee",
          "display": "Molly Jenkins"
        },
        "effectiveDateTime": "2021-02-11T14:42:11Z",
        "specimen": {
          "reference": "urn:uuid:5a308c5f-3461-45ec-9355-884452397d6e"
        }
      }
    },
    {
      "fullUrl": "urn:uuid:df8a608d-fecf-4665-ada5-c6beae8a369c",
      "resource": {
        "resourceType": "Observation",
        "id": "df8a608d-fecf-4665-ada5-c6beae8a369c",
        "meta": {
          "profile": [
            "http://hl7.eu/fhir/laboratory/StructureDefinition/Observation-resultslab-eu-lab"
          ]
        },
        "performer": [
          {
            "display": "The Central European Lab"
          }
        ],
        "category": [
          {
            "coding": [
              {
                "system": "http://terminology.hl7.org/CodeSystem/observation-category",
                "code": "laboratory"
              }
            ]
          }
        ],
        "code": {
          "coding": [
            {
              "code": "3094-0",
              "system": "http://loinc.org",
              "display": "Urea nitrogen [Mass/volume] in Serum or Plasma"
            }
          ],
          "text": "Urea nitrogen [Mass/volume] in Serum or Plasma"
        },
        "valueQuantity": {
          "system": "http://unitsofmeasure.org",
          "value": 19.2,
          "unit": "mg/dL",
          "code": "mg/dL"
        },
        "referenceRange": [
          {
            "low": {
              "value": 7,
              "code": "mg/dL",
              "system": "http://unitsofmeasure.org"
            }
          },
          {
            "high": {
              "value": 20,
              "code": "mg/dL",
              "system": "http://unitsofmeasure.org"
            }
          }
        ],
        "text": {
          "status": "generated",
          "div": "<div xmlns=\"http://www.w3.org/1999/xhtml\"><table class=\"hl7__eu__lab__report\"><tr><th>Test</th><th>11-Feb-2021</th><th>Reference&#xA0;Range</th><th>Unit</th></tr><tr><td>Urea nitrogen [Mass/volume] in Serum or Plasma</td><td>19.2</td><td>7 - 20</td><td></td><td>mg/dL</td></tr></table></div>"
        },
        "status": "final",
        "subject": {
          "reference": "urn:uuid:380c6fa7-771b-414b-8033-3a782352f1ee",
          "display": "Molly Jenkins"
        },
        "effectiveDateTime": "2021-02-11T14:42:11Z",
        "specimen": {
          "reference": "urn:uuid:5a308c5f-3461-45ec-9355-884452397d6e"
        }
      }
    },
    {
      "fullUrl": "urn:uuid:251c4e26-1619-4f16-b71f-a4b412703318",
      "resource": {
        "resourceType": "Observation",
        "id": "251c4e26-1619-4f16-b71f-a4b412703318",
        "meta": {
          "profile": [
            "http://hl7.eu/fhir/laboratory/StructureDefinition/Observation-resultslab-eu-lab"
          ]
        },
        "performer": [
          {
            "display": "The Central European Lab"
          }
        ],
        "category": [
          {
            "coding": [
              {
                "system": "http://terminology.hl7.org/CodeSystem/observation-category",
                "code": "laboratory"
              }
            ]
          }
        ],
        "code": {
          "coding": [
            {
              "code": "2160-0",
              "system": "http://loinc.org",
              "display": "Creatinine [Mass/volume] in Serum or Plasma"
            }
          ],
          "text": "Creatinine [Mass/volume] in Serum or Plasma"
        },
        "valueQuantity": {
          "system": "http://unitsofmeasure.org",
          "value": 1.8,
          "unit": "mg/dL",
          "code": "mg/dL"
        },
        "referenceRange": [
          {
            "low": {
              "value": 0.6,
              "code": "mg/dL",
              "system": "http://unitsofmeasure.org"
            }
          },
          {
            "high": {
              "value": 1.1,
              "code": "mg/dL",
              "system": "http://unitsofmeasure.org"
            }
          }
        ],
        "interpretation": [
          {
            "coding": [
              {
                "code": "H",
                "system": "http://terminology.hl7.org/CodeSystem/v3-ObservationInterpretation",
                "display": "High"
              }
            ]
          }
        ],
        "text": {
          "status": "generated",
          "div": "<div xmlns=\"http://www.w3.org/1999/xhtml\"><table class=\"hl7__eu__lab__report\"><tr><th>Test</th><th>11-Feb-2021</th><th>Reference&#xA0;Range</th><th>Unit</th></tr><tr><td>Creatinine [Mass/volume] in Serum or Plasma</td><td>1.8</td><td>0.6 - 1.1</td><td>H</td><td>mg/dL</td></tr></table></div>"
        },
        "status": "final",
        "subject": {
          "reference": "urn:uuid:380c6fa7-771b-414b-8033-3a782352f1ee",
          "display": "Molly Jenkins"
        },
        "effectiveDateTime": "2021-02-11T14:42:11Z",
        "specimen": {
          "reference": "urn:uuid:5a308c5f-3461-45ec-9355-884452397d6e"
        }
      }
    },
    {
      "fullUrl": "urn:uuid:229c692a-e3b7-4f35-8fc1-b1ff311b6a51",
      "resource": {
        "resourceType": "Observation",
        "id": "229c692a-e3b7-4f35-8fc1-b1ff311b6a51",
        "meta": {
          "profile": [
            "http://hl7.eu/fhir/laboratory/StructureDefinition/Observation-resultslab-eu-lab"
          ]
        },
        "performer": [
          {
            "display": "The Central European Lab"
          }
        ],
        "category": [
          {
            "coding": [
              {
                "system": "http://terminology.hl7.org/CodeSystem/observation-category",
                "code": "laboratory"
              }
            ]
          }
        ],
        "code": {
          "coding": [
            {
              "code": "17861-6",
              "system": "http://loinc.org",
              "display": "Calcium [Mass/volume] in Serum or Plasma"
            }
          ],
          "text": "Calcium [Mass/volume] in Serum or Plasma"
        },
        "valueQuantity": {
          "system": "http://unitsofmeasure.org",
          "value": 8.9,
          "unit": "mg/dL",
          "code": "mg/dL"
        },
        "referenceRange": [
          {
            "low": {
              "value": 8.5,
              "code": "mg/dL",
              "system": "http://unitsofmeasure.org"
            }
          },
          {
            "high": {
              "value": 10.4,
              "code": "mg/dL",
              "system": "http://unitsofmeasure.org"
            }
          }
        ],
        "text": {
          "status": "generated",
          "div": "<div xmlns=\"http://www.w3.org/1999/xhtml\"><table class=\"hl7__eu__lab__report\"><tr><th>Test</th><th>11-Feb-2021</th><th>Reference&#xA0;Range</th><th>Unit</th></tr><tr><td>Calcium [Mass/volume] in Serum or Plasma</td><td>8.9</td><td>8.5 - 10.4</td><td></td><td>mg/dL</td></tr></table></div>"
        },
        "status": "final",
        "subject": {
          "reference": "urn:uuid:380c6fa7-771b-414b-8033-3a782352f1ee",
          "display": "Molly Jenkins"
        },
        "effectiveDateTime": "2021-02-11T14:42:11Z",
        "specimen": {
          "reference": "urn:uuid:5a308c5f-3461-45ec-9355-884452397d6e"
        }
      }
    },
    {
      "fullUrl": "urn:uuid:72b0d8b9-ed7a-4bb8-8744-9647e1406e3a",
      "resource": {
        "resourceType": "Observation",
        "id": "72b0d8b9-ed7a-4bb8-8744-9647e1406e3a",
        "meta": {
          "profile": [
            "http://hl7.eu/fhir/laboratory/StructureDefinition/Observation-resultslab-eu-lab"
          ]
        },
        "performer": [
          {
            "display": "The Central European Lab"
          }
        ],
        "category": [
          {
            "coding": [
              {
                "system": "http://terminology.hl7.org/CodeSystem/observation-category",
                "code": "laboratory"
              }
            ]
          }
        ],
        "code": {
          "coding": [
            {
              "code": "2951-2",
              "system": "http://loinc.org",
              "display": "Sodium [Moles/volume] in Serum or Plasma"
            }
          ],
          "text": "Sodium [Moles/volume] in Serum or Plasma"
        },
        "valueQuantity": {
          "system": "http://unitsofmeasure.org",
          "value": 142.8,
          "unit": "mmol/L",
          "code": "mmol/L"
        },
        "referenceRange": [
          {
            "low": {
              "value": 135,
              "code": "mmol/L",
              "system": "http://unitsofmeasure.org"
            }
          },
          {
            "high": {
              "value": 145,
              "code": "mmol/L",
              "system": "http://unitsofmeasure.org"
            }
          }
        ],
        "text": {
          "status": "generated",
          "div": "<div xmlns=\"http://www.w3.org/1999/xhtml\"><table class=\"hl7__eu__lab__report\"><tr><th>Test</th><th>11-Feb-2021</th><th>Reference&#xA0;Range</th><th>Unit</th></tr><tr><td>Sodium [Moles/volume] in Serum or Plasma</td><td>142.8</td><td>135 - 145</td><td></td><td>mmol/L</td></tr></table></div>"
        },
        "status": "final",
        "subject": {
          "reference": "urn:uuid:380c6fa7-771b-414b-8033-3a782352f1ee",
          "display": "Molly Jenkins"
        },
        "effectiveDateTime": "2021-02-11T14:42:11Z",
        "specimen": {
          "reference": "urn:uuid:5a308c5f-3461-45ec-9355-884452397d6e"
        }
      }
    },
    {
      "fullUrl": "urn:uuid:99d249d5-38f5-439a-893b-3e38e8b0603c",
      "resource": {
        "resourceType": "Observation",
        "id": "99d249d5-38f5-439a-893b-3e38e8b0603c",
        "meta": {
          "profile": [
            "http://hl7.eu/fhir/laboratory/StructureDefinition/Observation-resultslab-eu-lab"
          ]
        },
        "performer": [
          {
            "display": "The Central European Lab"
          }
        ],
        "category": [
          {
            "coding": [
              {
                "system": "http://terminology.hl7.org/CodeSystem/observation-category",
                "code": "laboratory"
              }
            ]
          }
        ],
        "code": {
          "coding": [
            {
              "code": "2823-3",
              "system": "http://loinc.org",
              "display": "Potassium [Moles/volume] in Serum or Plasma"
            }
          ],
          "text": "Potassium [Moles/volume] in Serum or Plasma"
        },
        "valueQuantity": {
          "system": "http://unitsofmeasure.org",
          "value": 4.1,
          "unit": "mmol/L",
          "code": "mmol/L"
        },
        "referenceRange": [
          {
            "low": {
              "value": 3.5,
              "code": "mmol/L",
              "system": "http://unitsofmeasure.org"
            }
          },
          {
            "high": {
              "value": 5.1,
              "code": "mmol/L",
              "system": "http://unitsofmeasure.org"
            }
          }
        ],
        "text": {
          "status": "generated",
          "div": "<div xmlns=\"http://www.w3.org/1999/xhtml\"><table class=\"hl7__eu__lab__report\"><tr><th>Test</th><th>11-Feb-2021</th><th>Reference&#xA0;Range</th><th>Unit</th></tr><tr><td>Potassium [Moles/volume] in Serum or Plasma</td><td>4.1</td><td>3.5 - 5.1</td><td></td><td>mmol/L</td></tr></table></div>"
        },
        "status": "final",
        "subject": {
          "reference": "urn:uuid:380c6fa7-771b-414b-8033-3a782352f1ee",
          "display": "Molly Jenkins"
        },
        "effectiveDateTime": "2021-02-11T14:42:11Z",
        "specimen": {
          "reference": "urn:uuid:5a308c5f-3461-45ec-9355-884452397d6e"
        }
      }
    },
    {
      "fullUrl": "urn:uuid:a16f8c10-b4c7-41cb-bda7-2d2743a91bc7",
      "resource": {
        "resourceType": "Observation",
        "id": "a16f8c10-b4c7-41cb-bda7-2d2743a91bc7",
        "meta": {
          "profile": [
            "http://hl7.eu/fhir/laboratory/StructureDefinition/Observation-resultslab-eu-lab"
          ]
        },
        "performer": [
          {
            "display": "The Central European Lab"
          }
        ],
        "category": [
          {
            "coding": [
              {
                "system": "http://terminology.hl7.org/CodeSystem/observation-category",
                "code": "laboratory"
              }
            ]
          }
        ],
        "code": {
          "coding": [
            {
              "code": "2075-0",
              "system": "http://loinc.org",
              "display": "Chloride [Moles/volume] in Serum or Plasma"
            }
          ],
          "text": "Chloride [Moles/volume] in Serum or Plasma"
        },
        "valueQuantity": {
          "system": "http://unitsofmeasure.org",
          "value": 104.2,
          "unit": "mmol/L",
          "code": "mmol/L"
        },
        "referenceRange": [
          {
            "low": {
              "value": 98,
              "code": "mmol/L",
              "system": "http://unitsofmeasure.org"
            }
          },
          {
            "high": {
              "value": 110,
              "code": "mmol/L",
              "system": "http://unitsofmeasure.org"
            }
          }
        ],
        "text": {
          "status": "generated",
          "div": "<div xmlns=\"http://www.w3.org/1999/xhtml\"><table class=\"hl7__eu__lab__report\"><tr><th>Test</th><th>11-Feb-2021</th><th>Reference&#xA0;Range</th><th>Unit</th></tr><tr><td>Chloride [Moles/volume] in Serum or Plasma</td><td>104.2</td><td>98 - 110</td><td></td><td>mmol/L</td></tr></table></div>"
        },
        "status": "final",
        "subject": {
          "reference": "urn:uuid:380c6fa7-771b-414b-8033-3a782352f1ee",
          "display": "Molly Jenkins"
        },
        "effectiveDateTime": "2021-02-11T14:42:11Z",
        "specimen": {
          "reference": "urn:uuid:5a308c5f-3461-45ec-9355-884452397d6e"
        }
      }
    },
    {
      "fullUrl": "urn:uuid:ee995940-1e26-462a-90cf-aef8cd0b9e60",
      "resource": {
        "resourceType": "Observation",
        "id": "ee995940-1e26-462a-90cf-aef8cd0b9e60",
        "meta": {
          "profile": [
            "http://hl7.eu/fhir/laboratory/StructureDefinition/Observation-resultslab-eu-lab"
          ]
        },
        "performer": [
          {
            "display": "The Central European Lab"
          }
        ],
        "category": [
          {
            "coding": [
              {
                "system": "http://terminology.hl7.org/CodeSystem/observation-category",
                "code": "laboratory"
              }
            ]
          }
        ],
        "code": {
          "coding": [
            {
              "code": "2028-9",
              "system": "http://loinc.org",
              "display": "Carbon dioxide, total [Moles/volume] in Serum or Plasma"
            }
          ],
          "text": "Carbon dioxide, total [Moles/volume] in Serum or Plasma"
        },
        "valueQuantity": {
          "system": "http://unitsofmeasure.org",
          "value": 27.7,
          "unit": "mmol/L",
          "code": "mmol/L"
        },
        "referenceRange": [
          {
            "low": {
              "value": 22,
              "code": "mmol/L",
              "system": "http://unitsofmeasure.org"
            }
          },
          {
            "high": {
              "value": 32,
              "code": "mmol/L",
              "system": "http://unitsofmeasure.org"
            }
          }
        ],
        "text": {
          "status": "generated",
          "div": "<div xmlns=\"http://www.w3.org/1999/xhtml\"><table class=\"hl7__eu__lab__report\"><tr><th>Test</th><th>11-Feb-2021</th><th>Reference&#xA0;Range</th><th>Unit</th></tr><tr><td>Carbon dioxide, total [Moles/volume] in Serum or Plasma</td><td>27.7</td><td>22 - 32</td><td></td><td>mmol/L</td></tr></table></div>"
        },
        "status": "final",
        "subject": {
          "reference": "urn:uuid:380c6fa7-771b-414b-8033-3a782352f1ee",
          "display": "Molly Jenkins"
        },
        "effectiveDateTime": "2021-02-11T14:42:11Z",
        "specimen": {
          "reference": "urn:uuid:5a308c5f-3461-45ec-9355-884452397d6e"
        }
      }
    },
    {
      "fullUrl": "urn:uuid:1febf9bf-d451-42bb-aa6e-98daebb5fac3",
      "resource": {
        "resourceType": "Observation",
        "id": "1febf9bf-d451-42bb-aa6e-98daebb5fac3",
        "meta": {
          "profile": [
            "http://hl7.eu/fhir/laboratory/StructureDefinition/Observation-resultslab-eu-lab"
          ]
        },
        "performer": [
          {
            "display": "The Central European Lab"
          }
        ],
        "category": [
          {
            "coding": [
              {
                "system": "http://terminology.hl7.org/CodeSystem/observation-category",
                "code": "laboratory"
              }
            ]
          }
        ],
        "code": {
          "coding": [
            {
              "code": "5767-9",
              "system": "http://loinc.org",
              "display": "Appearance of Urine"
            }
          ],
          "text": "Appearance of Urine"
        },
        "text": {
          "status": "generated",
          "div": "<div xmlns=\"http://www.w3.org/1999/xhtml\"><table class=\"hl7__eu__lab__report\"><tr><th>Test</th><th>11-Feb-2021</th><th>Reference&#xA0;Range</th><th>Unit</th></tr><tr><td>Appearance of Urine</td></tr></table></div>"
        },
        "status": "final",
        "subject": {
          "reference": "urn:uuid:380c6fa7-771b-414b-8033-3a782352f1ee",
          "display": "Molly Jenkins"
        },
        "effectiveDateTime": "2021-02-11T14:42:11Z",
        "specimen": {
          "reference": "urn:uuid:90b8f369-7914-46fc-8772-3b58471d516b"
        }
      }
    },
    {
      "fullUrl": "urn:uuid:b5223151-73d3-4431-add2-89c34930a802",
      "resource": {
        "resourceType": "Observation",
        "id": "b5223151-73d3-4431-add2-89c34930a802",
        "meta": {
          "profile": [
            "http://hl7.eu/fhir/laboratory/StructureDefinition/Observation-resultslab-eu-lab"
          ]
        },
        "performer": [
          {
            "display": "The Central European Lab"
          }
        ],
        "category": [
          {
            "coding": [
              {
                "system": "http://terminology.hl7.org/CodeSystem/observation-category",
                "code": "laboratory"
              }
            ]
          }
        ],
        "code": {
          "coding": [
            {
              "code": "34533-0",
              "system": "http://loinc.org",
              "display": "Odor of Urine"
            }
          ],
          "text": "Odor of Urine"
        },
        "text": {
          "status": "generated",
          "div": "<div xmlns=\"http://www.w3.org/1999/xhtml\"><table class=\"hl7__eu__lab__report\"><tr><th>Test</th><th>11-Feb-2021</th><th>Reference&#xA0;Range</th><th>Unit</th></tr><tr><td>Odor of Urine</td></tr></table></div>"
        },
        "status": "final",
        "subject": {
          "reference": "urn:uuid:380c6fa7-771b-414b-8033-3a782352f1ee",
          "display": "Molly Jenkins"
        },
        "effectiveDateTime": "2021-02-11T14:42:11Z",
        "specimen": {
          "reference": "urn:uuid:90b8f369-7914-46fc-8772-3b58471d516b"
        }
      }
    },
    {
      "fullUrl": "urn:uuid:a279bd66-d132-45a8-af06-79ecc29226fd",
      "resource": {
        "resourceType": "Observation",
        "id": "a279bd66-d132-45a8-af06-79ecc29226fd",
        "meta": {
          "profile": [
            "http://hl7.eu/fhir/laboratory/StructureDefinition/Observation-resultslab-eu-lab"
          ]
        },
        "performer": [
          {
            "display": "The Central European Lab"
          }
        ],
        "category": [
          {
            "coding": [
              {
                "system": "http://terminology.hl7.org/CodeSystem/observation-category",
                "code": "laboratory"
              }
            ]
          }
        ],
        "code": {
          "coding": [
            {
              "code": "32167-9",
              "system": "http://loinc.org",
              "display": "Clarity of Urine"
            }
          ],
          "text": "Clarity of Urine"
        },
        "text": {
          "status": "generated",
          "div": "<div xmlns=\"http://www.w3.org/1999/xhtml\"><table class=\"hl7__eu__lab__report\"><tr><th>Test</th><th>11-Feb-2021</th><th>Reference&#xA0;Range</th><th>Unit</th></tr><tr><td>Clarity of Urine</td></tr></table></div>"
        },
        "status": "final",
        "subject": {
          "reference": "urn:uuid:380c6fa7-771b-414b-8033-3a782352f1ee",
          "display": "Molly Jenkins"
        },
        "effectiveDateTime": "2021-02-11T14:42:11Z",
        "specimen": {
          "reference": "urn:uuid:90b8f369-7914-46fc-8772-3b58471d516b"
        }
      }
    },
    {
      "fullUrl": "urn:uuid:b35511e7-d465-4780-b990-61e3e58c989c",
      "resource": {
        "resourceType": "Observation",
        "id": "b35511e7-d465-4780-b990-61e3e58c989c",
        "meta": {
          "profile": [
            "http://hl7.eu/fhir/laboratory/StructureDefinition/Observation-resultslab-eu-lab"
          ]
        },
        "performer": [
          {
            "display": "The Central European Lab"
          }
        ],
        "category": [
          {
            "coding": [
              {
                "system": "http://terminology.hl7.org/CodeSystem/observation-category",
                "code": "laboratory"
              }
            ]
          }
        ],
        "code": {
          "coding": [
            {
              "code": "5778-6",
              "system": "http://loinc.org",
              "display": "Color of Urine"
            }
          ],
          "text": "Color of Urine"
        },
        "text": {
          "status": "generated",
          "div": "<div xmlns=\"http://www.w3.org/1999/xhtml\"><table class=\"hl7__eu__lab__report\"><tr><th>Test</th><th>11-Feb-2021</th><th>Reference&#xA0;Range</th><th>Unit</th></tr><tr><td>Color of Urine</td></tr></table></div>"
        },
        "status": "final",
        "subject": {
          "reference": "urn:uuid:380c6fa7-771b-414b-8033-3a782352f1ee",
          "display": "Molly Jenkins"
        },
        "effectiveDateTime": "2021-02-11T14:42:11Z",
        "specimen": {
          "reference": "urn:uuid:90b8f369-7914-46fc-8772-3b58471d516b"
        }
      }
    },
    {
      "fullUrl": "urn:uuid:7033c670-8961-4498-8d32-6c131d4e8347",
      "resource": {
        "resourceType": "Observation",
        "id": "7033c670-8961-4498-8d32-6c131d4e8347",
        "meta": {
          "profile": [
            "http://hl7.eu/fhir/laboratory/StructureDefinition/Observation-resultslab-eu-lab"
          ]
        },
        "performer": [
          {
            "display": "The Central European Lab"
          }
        ],
        "category": [
          {
            "coding": [
              {
                "system": "http://terminology.hl7.org/CodeSystem/observation-category",
                "code": "laboratory"
              }
            ]
          }
        ],
        "code": {
          "coding": [
            {
              "code": "5792-7",
              "system": "http://loinc.org",
              "display": "Glucose [Mass/volume] in Urine by Test strip"
            }
          ],
          "text": "Glucose [Mass/volume] in Urine by Test strip"
        },
        "valueQuantity": {
          "system": "http://unitsofmeasure.org",
          "value": 2.1,
          "unit": "mg/dL",
          "code": "mg/dL"
        },
        "referenceRange": [
          {
            "low": {
              "value": 0,
              "code": "mg/dL",
              "system": "http://unitsofmeasure.org"
            }
          },
          {
            "high": {
              "value": 0,
              "code": "mg/dL",
              "system": "http://unitsofmeasure.org"
            }
          }
        ],
        "interpretation": [
          {
            "coding": [
              {
                "code": "H",
                "system": "http://terminology.hl7.org/CodeSystem/v3-ObservationInterpretation",
                "display": "High"
              }
            ]
          }
        ],
        "text": {
          "status": "generated",
          "div": "<div xmlns=\"http://www.w3.org/1999/xhtml\"><table class=\"hl7__eu__lab__report\"><tr><th>Test</th><th>11-Feb-2021</th><th>Reference&#xA0;Range</th><th>Unit</th></tr><tr><td>Glucose [Mass/volume] in Urine by Test strip</td><td>2.1</td><td>0 - 0</td><td>H</td><td>mg/dL</td></tr></table></div>"
        },
        "status": "final",
        "subject": {
          "reference": "urn:uuid:380c6fa7-771b-414b-8033-3a782352f1ee",
          "display": "Molly Jenkins"
        },
        "effectiveDateTime": "2021-02-11T14:42:11Z",
        "specimen": {
          "reference": "urn:uuid:90b8f369-7914-46fc-8772-3b58471d516b"
        }
      }
    },
    {
      "fullUrl": "urn:uuid:859b0d44-bf6e-47c9-b844-70ca91706eba",
      "resource": {
        "resourceType": "Observation",
        "id": "859b0d44-bf6e-47c9-b844-70ca91706eba",
        "meta": {
          "profile": [
            "http://hl7.eu/fhir/laboratory/StructureDefinition/Observation-resultslab-eu-lab"
          ]
        },
        "performer": [
          {
            "display": "The Central European Lab"
          }
        ],
        "category": [
          {
            "coding": [
              {
                "system": "http://terminology.hl7.org/CodeSystem/observation-category",
                "code": "laboratory"
              }
            ]
          }
        ],
        "code": {
          "coding": [
            {
              "code": "25428-4",
              "system": "http://loinc.org",
              "display": "Glucose [Presence] in Urine by Test strip"
            }
          ],
          "text": "Glucose [Presence] in Urine by Test strip"
        },
        "text": {
          "status": "generated",
          "div": "<div xmlns=\"http://www.w3.org/1999/xhtml\"><table class=\"hl7__eu__lab__report\"><tr><th>Test</th><th>11-Feb-2021</th><th>Reference&#xA0;Range</th><th>Unit</th></tr><tr><td>Glucose [Presence] in Urine by Test strip</td></tr></table></div>"
        },
        "status": "final",
        "subject": {
          "reference": "urn:uuid:380c6fa7-771b-414b-8033-3a782352f1ee",
          "display": "Molly Jenkins"
        },
        "effectiveDateTime": "2021-02-11T14:42:11Z",
        "specimen": {
          "reference": "urn:uuid:90b8f369-7914-46fc-8772-3b58471d516b"
        }
      }
    },
    {
      "fullUrl": "urn:uuid:90c9e88d-aad5-43dc-84ba-f97a327678e0",
      "resource": {
        "resourceType": "Observation",
        "id": "90c9e88d-aad5-43dc-84ba-f97a327678e0",
        "meta": {
          "profile": [
            "http://hl7.eu/fhir/laboratory/StructureDefinition/Observation-resultslab-eu-lab"
          ]
        },
        "performer": [
          {
            "display": "The Central European Lab"
          }
        ],
        "category": [
          {
            "coding": [
              {
                "system": "http://terminology.hl7.org/CodeSystem/observation-category",
                "code": "laboratory"
              }
            ]
          }
        ],
        "code": {
          "coding": [
            {
              "code": "20505-4",
              "system": "http://loinc.org",
              "display": "Bilirubin.total [Mass/volume] in Urine by Test strip"
            }
          ],
          "text": "Bilirubin.total [Mass/volume] in Urine by Test strip"
        },
        "valueQuantity": {
          "system": "http://unitsofmeasure.org",
          "value": 1.2,
          "unit": "mg/dL",
          "code": "mg/dL"
        },
        "referenceRange": [
          {
            "low": {
              "value": 0,
              "code": "mg/dL",
              "system": "http://unitsofmeasure.org"
            }
          },
          {
            "high": {
              "value": 1.6,
              "code": "mg/dL",
              "system": "http://unitsofmeasure.org"
            }
          }
        ],
        "text": {
          "status": "generated",
          "div": "<div xmlns=\"http://www.w3.org/1999/xhtml\"><table class=\"hl7__eu__lab__report\"><tr><th>Test</th><th>11-Feb-2021</th><th>Reference&#xA0;Range</th><th>Unit</th></tr><tr><td>Bilirubin.total [Mass/volume] in Urine by Test strip</td><td>1.2</td><td>0 - 1.6</td><td></td><td>mg/dL</td></tr></table></div>"
        },
        "status": "final",
        "subject": {
          "reference": "urn:uuid:380c6fa7-771b-414b-8033-3a782352f1ee",
          "display": "Molly Jenkins"
        },
        "effectiveDateTime": "2021-02-11T14:42:11Z",
        "specimen": {
          "reference": "urn:uuid:90b8f369-7914-46fc-8772-3b58471d516b"
        }
      }
    },
    {
      "fullUrl": "urn:uuid:b5935542-fd74-4349-b5da-e2e1f0d89b60",
      "resource": {
        "resourceType": "Observation",
        "id": "b5935542-fd74-4349-b5da-e2e1f0d89b60",
        "meta": {
          "profile": [
            "http://hl7.eu/fhir/laboratory/StructureDefinition/Observation-resultslab-eu-lab"
          ]
        },
        "performer": [
          {
            "display": "The Central European Lab"
          }
        ],
        "category": [
          {
            "coding": [
              {
                "system": "http://terminology.hl7.org/CodeSystem/observation-category",
                "code": "laboratory"
              }
            ]
          }
        ],
        "code": {
          "coding": [
            {
              "code": "5770-3",
              "system": "http://loinc.org",
              "display": "Bilirubin.total [Presence] in Urine by Test strip"
            }
          ],
          "text": "Bilirubin.total [Presence] in Urine by Test strip"
        },
        "text": {
          "status": "generated",
          "div": "<div xmlns=\"http://www.w3.org/1999/xhtml\"><table class=\"hl7__eu__lab__report\"><tr><th>Test</th><th>11-Feb-2021</th><th>Reference&#xA0;Range</th><th>Unit</th></tr><tr><td>Bilirubin.total [Presence] in Urine by Test strip</td></tr></table></div>"
        },
        "status": "final",
        "subject": {
          "reference": "urn:uuid:380c6fa7-771b-414b-8033-3a782352f1ee",
          "display": "Molly Jenkins"
        },
        "effectiveDateTime": "2021-02-11T14:42:11Z",
        "specimen": {
          "reference": "urn:uuid:90b8f369-7914-46fc-8772-3b58471d516b"
        }
      }
    },
    {
      "fullUrl": "urn:uuid:d0585111-0b46-4238-b056-cdae2bda513c",
      "resource": {
        "resourceType": "Observation",
        "id": "d0585111-0b46-4238-b056-cdae2bda513c",
        "meta": {
          "profile": [
            "http://hl7.eu/fhir/laboratory/StructureDefinition/Observation-resultslab-eu-lab"
          ]
        },
        "performer": [
          {
            "display": "The Central European Lab"
          }
        ],
        "category": [
          {
            "coding": [
              {
                "system": "http://terminology.hl7.org/CodeSystem/observation-category",
                "code": "laboratory"
              }
            ]
          }
        ],
        "code": {
          "coding": [
            {
              "code": "5797-6",
              "system": "http://loinc.org",
              "display": "Ketones [Mass/volume] in Urine by Test strip"
            }
          ],
          "text": "Ketones [Mass/volume] in Urine by Test strip"
        },
        "valueQuantity": {
          "system": "http://unitsofmeasure.org",
          "value": 18,
          "unit": "mg/dL",
          "code": "mg/dL"
        },
        "referenceRange": [
          {
            "low": {
              "value": 0,
              "code": "mg/dL",
              "system": "http://unitsofmeasure.org"
            }
          },
          {
            "high": {
              "value": 0.5,
              "code": "mg/dL",
              "system": "http://unitsofmeasure.org"
            }
          }
        ],
        "interpretation": [
          {
            "coding": [
              {
                "code": "H",
                "system": "http://terminology.hl7.org/CodeSystem/v3-ObservationInterpretation",
                "display": "High"
              }
            ]
          }
        ],
        "text": {
          "status": "generated",
          "div": "<div xmlns=\"http://www.w3.org/1999/xhtml\"><table class=\"hl7__eu__lab__report\"><tr><th>Test</th><th>11-Feb-2021</th><th>Reference&#xA0;Range</th><th>Unit</th></tr><tr><td>Ketones [Mass/volume] in Urine by Test strip</td><td>18.0</td><td>0 - 0.5</td><td>H</td><td>mg/dL</td></tr></table></div>"
        },
        "status": "final",
        "subject": {
          "reference": "urn:uuid:380c6fa7-771b-414b-8033-3a782352f1ee",
          "display": "Molly Jenkins"
        },
        "effectiveDateTime": "2021-02-11T14:42:11Z",
        "specimen": {
          "reference": "urn:uuid:90b8f369-7914-46fc-8772-3b58471d516b"
        }
      }
    },
    {
      "fullUrl": "urn:uuid:88ecbb67-2a14-48bb-a6e5-bf52367c307f",
      "resource": {
        "resourceType": "Observation",
        "id": "88ecbb67-2a14-48bb-a6e5-bf52367c307f",
        "meta": {
          "profile": [
            "http://hl7.eu/fhir/laboratory/StructureDefinition/Observation-resultslab-eu-lab"
          ]
        },
        "performer": [
          {
            "display": "The Central European Lab"
          }
        ],
        "category": [
          {
            "coding": [
              {
                "system": "http://terminology.hl7.org/CodeSystem/observation-category",
                "code": "laboratory"
              }
            ]
          }
        ],
        "code": {
          "coding": [
            {
              "code": "2514-8",
              "system": "http://loinc.org",
              "display": "Ketones [Presence] in Urine by Test strip"
            }
          ],
          "text": "Ketones [Presence] in Urine by Test strip"
        },
        "text": {
          "status": "generated",
          "div": "<div xmlns=\"http://www.w3.org/1999/xhtml\"><table class=\"hl7__eu__lab__report\"><tr><th>Test</th><th>11-Feb-2021</th><th>Reference&#xA0;Range</th><th>Unit</th></tr><tr><td>Ketones [Presence] in Urine by Test strip</td></tr></table></div>"
        },
        "status": "final",
        "subject": {
          "reference": "urn:uuid:380c6fa7-771b-414b-8033-3a782352f1ee",
          "display": "Molly Jenkins"
        },
        "effectiveDateTime": "2021-02-11T14:42:11Z",
        "specimen": {
          "reference": "urn:uuid:90b8f369-7914-46fc-8772-3b58471d516b"
        }
      }
    },
    {
      "fullUrl": "urn:uuid:5ccdcb4f-e743-4a5e-b706-986925e04b9c",
      "resource": {
        "resourceType": "Observation",
        "id": "5ccdcb4f-e743-4a5e-b706-986925e04b9c",
        "meta": {
          "profile": [
            "http://hl7.eu/fhir/laboratory/StructureDefinition/Observation-resultslab-eu-lab"
          ]
        },
        "performer": [
          {
            "display": "The Central European Lab"
          }
        ],
        "category": [
          {
            "coding": [
              {
                "system": "http://terminology.hl7.org/CodeSystem/observation-category",
                "code": "laboratory"
              }
            ]
          }
        ],
        "code": {
          "coding": [
            {
              "code": "5811-5",
              "system": "http://loinc.org",
              "display": "Specific gravity of Urine by Test strip"
            }
          ],
          "text": "Specific gravity of Urine by Test strip"
        },
        "valueQuantity": {
          "system": "http://unitsofmeasure.org",
          "value": 1,
          "unit": "{nominal}",
          "code": "{nominal}"
        },
        "referenceRange": [
          {
            "low": {
              "value": 1.005,
              "code": "g/mL",
              "system": "http://unitsofmeasure.org"
            }
          },
          {
            "high": {
              "value": 1.03,
              "code": "g/mL",
              "system": "http://unitsofmeasure.org"
            }
          }
        ],
        "interpretation": [
          {
            "coding": [
              {
                "code": "L",
                "system": "http://terminology.hl7.org/CodeSystem/v3-ObservationInterpretation",
                "display": "Low"
              }
            ]
          }
        ],
        "text": {
          "status": "generated",
          "div": "<div xmlns=\"http://www.w3.org/1999/xhtml\"><table class=\"hl7__eu__lab__report\"><tr><th>Test</th><th>11-Feb-2021</th><th>Reference&#xA0;Range</th><th>Unit</th></tr><tr><td>Specific gravity of Urine by Test strip</td><td>1.0</td><td>1.005 - 1.03</td><td>L</td><td>{nominal}</td></tr></table></div>"
        },
        "status": "final",
        "subject": {
          "reference": "urn:uuid:380c6fa7-771b-414b-8033-3a782352f1ee",
          "display": "Molly Jenkins"
        },
        "effectiveDateTime": "2021-02-11T14:42:11Z",
        "specimen": {
          "reference": "urn:uuid:90b8f369-7914-46fc-8772-3b58471d516b"
        }
      }
    },
    {
      "fullUrl": "urn:uuid:b72a998b-35cf-428a-9953-641ba9ae39dc",
      "resource": {
        "resourceType": "Observation",
        "id": "b72a998b-35cf-428a-9953-641ba9ae39dc",
        "meta": {
          "profile": [
            "http://hl7.eu/fhir/laboratory/StructureDefinition/Observation-resultslab-eu-lab"
          ]
        },
        "performer": [
          {
            "display": "The Central European Lab"
          }
        ],
        "category": [
          {
            "coding": [
              {
                "system": "http://terminology.hl7.org/CodeSystem/observation-category",
                "code": "laboratory"
              }
            ]
          }
        ],
        "code": {
          "coding": [
            {
              "code": "5803-2",
              "system": "http://loinc.org",
              "display": "pH of Urine by Test strip"
            }
          ],
          "text": "pH of Urine by Test strip"
        },
        "valueQuantity": {
          "system": "http://unitsofmeasure.org",
          "value": 6.9,
          "unit": "pH",
          "code": "pH"
        },
        "referenceRange": [
          {
            "low": {
              "value": 4.5,
              "code": "pH",
              "system": "http://unitsofmeasure.org"
            }
          },
          {
            "high": {
              "value": 7.5,
              "code": "pH",
              "system": "http://unitsofmeasure.org"
            }
          }
        ],
        "text": {
          "status": "generated",
          "div": "<div xmlns=\"http://www.w3.org/1999/xhtml\"><table class=\"hl7__eu__lab__report\"><tr><th>Test</th><th>11-Feb-2021</th><th>Reference&#xA0;Range</th><th>Unit</th></tr><tr><td>pH of Urine by Test strip</td><td>6.9</td><td>4.5 - 7.5</td><td></td><td>pH</td></tr></table></div>"
        },
        "status": "final",
        "subject": {
          "reference": "urn:uuid:380c6fa7-771b-414b-8033-3a782352f1ee",
          "display": "Molly Jenkins"
        },
        "effectiveDateTime": "2021-02-11T14:42:11Z",
        "specimen": {
          "reference": "urn:uuid:90b8f369-7914-46fc-8772-3b58471d516b"
        }
      }
    },
    {
      "fullUrl": "urn:uuid:fb4c60e4-ca43-47ee-94bc-c5ff4bdeb588",
      "resource": {
        "resourceType": "Observation",
        "id": "fb4c60e4-ca43-47ee-94bc-c5ff4bdeb588",
        "meta": {
          "profile": [
            "http://hl7.eu/fhir/laboratory/StructureDefinition/Observation-resultslab-eu-lab"
          ]
        },
        "performer": [
          {
            "display": "The Central European Lab"
          }
        ],
        "category": [
          {
            "coding": [
              {
                "system": "http://terminology.hl7.org/CodeSystem/observation-category",
                "code": "laboratory"
              }
            ]
          }
        ],
        "code": {
          "coding": [
            {
              "code": "5804-0",
              "system": "http://loinc.org",
              "display": "Protein [Mass/volume] in Urine by Test strip"
            }
          ],
          "text": "Protein [Mass/volume] in Urine by Test strip"
        },
        "valueQuantity": {
          "system": "http://unitsofmeasure.org",
          "value": 179,
          "unit": "mg/dL",
          "code": "mg/dL"
        },
        "referenceRange": [
          {
            "low": {
              "value": 0,
              "code": "mg/dL",
              "system": "http://unitsofmeasure.org"
            }
          },
          {
            "high": {
              "value": 15,
              "code": "mg/dL",
              "system": "http://unitsofmeasure.org"
            }
          }
        ],
        "interpretation": [
          {
            "coding": [
              {
                "code": "H",
                "system": "http://terminology.hl7.org/CodeSystem/v3-ObservationInterpretation",
                "display": "High"
              }
            ]
          }
        ],
        "text": {
          "status": "generated",
          "div": "<div xmlns=\"http://www.w3.org/1999/xhtml\"><table class=\"hl7__eu__lab__report\"><tr><th>Test</th><th>11-Feb-2021</th><th>Reference&#xA0;Range</th><th>Unit</th></tr><tr><td>Protein [Mass/volume] in Urine by Test strip</td><td>179.0</td><td>0 - 15</td><td>H</td><td>mg/dL</td></tr></table></div>"
        },
        "status": "final",
        "subject": {
          "reference": "urn:uuid:380c6fa7-771b-414b-8033-3a782352f1ee",
          "display": "Molly Jenkins"
        },
        "effectiveDateTime": "2021-02-11T14:42:11Z",
        "specimen": {
          "reference": "urn:uuid:90b8f369-7914-46fc-8772-3b58471d516b"
        }
      }
    },
    {
      "fullUrl": "urn:uuid:4587c44c-ed58-455a-955d-c1f019e70f37",
      "resource": {
        "resourceType": "Observation",
        "id": "4587c44c-ed58-455a-955d-c1f019e70f37",
        "meta": {
          "profile": [
            "http://hl7.eu/fhir/laboratory/StructureDefinition/Observation-resultslab-eu-lab"
          ]
        },
        "performer": [
          {
            "display": "The Central European Lab"
          }
        ],
        "category": [
          {
            "coding": [
              {
                "system": "http://terminology.hl7.org/CodeSystem/observation-category",
                "code": "laboratory"
              }
            ]
          }
        ],
        "code": {
          "coding": [
            {
              "code": "20454-5",
              "system": "http://loinc.org",
              "display": "Protein [Presence] in Urine by Test strip"
            }
          ],
          "text": "Protein [Presence] in Urine by Test strip"
        },
        "text": {
          "status": "generated",
          "div": "<div xmlns=\"http://www.w3.org/1999/xhtml\"><table class=\"hl7__eu__lab__report\"><tr><th>Test</th><th>11-Feb-2021</th><th>Reference&#xA0;Range</th><th>Unit</th></tr><tr><td>Protein [Presence] in Urine by Test strip</td></tr></table></div>"
        },
        "status": "final",
        "subject": {
          "reference": "urn:uuid:380c6fa7-771b-414b-8033-3a782352f1ee",
          "display": "Molly Jenkins"
        },
        "effectiveDateTime": "2021-02-11T14:42:11Z",
        "specimen": {
          "reference": "urn:uuid:90b8f369-7914-46fc-8772-3b58471d516b"
        }
      }
    },
    {
      "fullUrl": "urn:uuid:6d5da3b5-b230-4cb7-b786-37301b9d4a89",
      "resource": {
        "resourceType": "Observation",
        "id": "6d5da3b5-b230-4cb7-b786-37301b9d4a89",
        "meta": {
          "profile": [
            "http://hl7.eu/fhir/laboratory/StructureDefinition/Observation-resultslab-eu-lab"
          ]
        },
        "performer": [
          {
            "display": "The Central European Lab"
          }
        ],
        "category": [
          {
            "coding": [
              {
                "system": "http://terminology.hl7.org/CodeSystem/observation-category",
                "code": "laboratory"
              }
            ]
          }
        ],
        "code": {
          "coding": [
            {
              "code": "5802-4",
              "system": "http://loinc.org",
              "display": "Nitrite [Presence] in Urine by Test strip"
            }
          ],
          "text": "Nitrite [Presence] in Urine by Test strip"
        },
        "text": {
          "status": "generated",
          "div": "<div xmlns=\"http://www.w3.org/1999/xhtml\"><table class=\"hl7__eu__lab__report\"><tr><th>Test</th><th>11-Feb-2021</th><th>Reference&#xA0;Range</th><th>Unit</th></tr><tr><td>Nitrite [Presence] in Urine by Test strip</td></tr></table></div>"
        },
        "status": "final",
        "subject": {
          "reference": "urn:uuid:380c6fa7-771b-414b-8033-3a782352f1ee",
          "display": "Molly Jenkins"
        },
        "effectiveDateTime": "2021-02-11T14:42:11Z",
        "specimen": {
          "reference": "urn:uuid:90b8f369-7914-46fc-8772-3b58471d516b"
        }
      }
    },
    {
      "fullUrl": "urn:uuid:dfa4768a-a762-4c9d-ab69-80e4694d999f",
      "resource": {
        "resourceType": "Observation",
        "id": "dfa4768a-a762-4c9d-ab69-80e4694d999f",
        "meta": {
          "profile": [
            "http://hl7.eu/fhir/laboratory/StructureDefinition/Observation-resultslab-eu-lab"
          ]
        },
        "performer": [
          {
            "display": "The Central European Lab"
          }
        ],
        "category": [
          {
            "coding": [
              {
                "system": "http://terminology.hl7.org/CodeSystem/observation-category",
                "code": "laboratory"
              }
            ]
          }
        ],
        "code": {
          "coding": [
            {
              "code": "5794-3",
              "system": "http://loinc.org",
              "display": "Hemoglobin [Presence] in Urine by Test strip"
            }
          ],
          "text": "Hemoglobin [Presence] in Urine by Test strip"
        },
        "text": {
          "status": "generated",
          "div": "<div xmlns=\"http://www.w3.org/1999/xhtml\"><table class=\"hl7__eu__lab__report\"><tr><th>Test</th><th>11-Feb-2021</th><th>Reference&#xA0;Range</th><th>Unit</th></tr><tr><td>Hemoglobin [Presence] in Urine by Test strip</td></tr></table></div>"
        },
        "status": "final",
        "subject": {
          "reference": "urn:uuid:380c6fa7-771b-414b-8033-3a782352f1ee",
          "display": "Molly Jenkins"
        },
        "effectiveDateTime": "2021-02-11T14:42:11Z",
        "specimen": {
          "reference": "urn:uuid:90b8f369-7914-46fc-8772-3b58471d516b"
        }
      }
    },
    {
      "fullUrl": "urn:uuid:f17f2090-ff22-4767-8f41-90fdbb98b85e",
      "resource": {
        "resourceType": "Observation",
        "id": "f17f2090-ff22-4767-8f41-90fdbb98b85e",
        "meta": {
          "profile": [
            "http://hl7.eu/fhir/laboratory/StructureDefinition/Observation-resultslab-eu-lab"
          ]
        },
        "performer": [
          {
            "display": "The Central European Lab"
          }
        ],
        "category": [
          {
            "coding": [
              {
                "system": "http://terminology.hl7.org/CodeSystem/observation-category",
                "code": "laboratory"
              }
            ]
          }
        ],
        "code": {
          "coding": [
            {
              "code": "5799-2",
              "system": "http://loinc.org",
              "display": "Leukocyte esterase [Presence] in Urine by Test strip"
            }
          ],
          "text": "Leukocyte esterase [Presence] in Urine by Test strip"
        },
        "text": {
          "status": "generated",
          "div": "<div xmlns=\"http://www.w3.org/1999/xhtml\"><table class=\"hl7__eu__lab__report\"><tr><th>Test</th><th>11-Feb-2021</th><th>Reference&#xA0;Range</th><th>Unit</th></tr><tr><td>Leukocyte esterase [Presence] in Urine by Test strip</td></tr></table></div>"
        },
        "status": "final",
        "subject": {
          "reference": "urn:uuid:380c6fa7-771b-414b-8033-3a782352f1ee",
          "display": "Molly Jenkins"
        },
        "effectiveDateTime": "2021-02-11T14:42:11Z",
        "specimen": {
          "reference": "urn:uuid:90b8f369-7914-46fc-8772-3b58471d516b"
        }
      }
    },
    {
      "fullUrl": "urn:uuid:2c923f44-dd2a-4b17-9656-5eacdeb1256b",
      "resource": {
        "resourceType": "Observation",
        "id": "2c923f44-dd2a-4b17-9656-5eacdeb1256b",
        "meta": {
          "profile": [
            "http://hl7.eu/fhir/laboratory/StructureDefinition/Observation-resultslab-eu-lab"
          ]
        },
        "performer": [
          {
            "display": "The Central European Lab"
          }
        ],
        "category": [
          {
            "coding": [
              {
                "system": "http://terminology.hl7.org/CodeSystem/observation-category",
                "code": "laboratory"
              }
            ]
          }
        ],
        "code": {
          "coding": [
            {
              "code": "4548-4",
              "system": "http://loinc.org",
              "display": "Hemoglobin A1c/Hemoglobin.total in Blood"
            }
          ],
          "text": "Hemoglobin A1c/Hemoglobin.total in Blood"
        },
        "valueQuantity": {
          "system": "http://unitsofmeasure.org",
          "value": 3.3,
          "unit": "%",
          "code": "%"
        },
        "referenceRange": [
          {
            "low": {
              "value": 4,
              "code": "%",
              "system": "http://unitsofmeasure.org"
            }
          },
          {
            "high": {
              "value": 6,
              "code": "%",
              "system": "http://unitsofmeasure.org"
            }
          }
        ],
        "interpretation": [
          {
            "coding": [
              {
                "code": "L",
                "system": "http://terminology.hl7.org/CodeSystem/v3-ObservationInterpretation",
                "display": "Low"
              }
            ]
          }
        ],
        "text": {
          "status": "generated",
          "div": "<div xmlns=\"http://www.w3.org/1999/xhtml\"><table class=\"hl7__eu__lab__report\"><tr><th>Test</th><th>11-Feb-2021</th><th>Reference&#xA0;Range</th><th>Unit</th></tr><tr><td>Hemoglobin A1c/Hemoglobin.total in Blood</td><td>3.3</td><td>4 - 6</td><td>L</td><td>%</td></tr></table></div>"
        },
        "status": "final",
        "subject": {
          "reference": "urn:uuid:380c6fa7-771b-414b-8033-3a782352f1ee",
          "display": "Molly Jenkins"
        },
        "effectiveDateTime": "2021-02-11T14:42:11Z",
        "specimen": {
          "reference": "urn:uuid:233c280d-4b90-4e67-a041-49253e5b1e49"
        }
      }
    },
    {
      "fullUrl": "urn:uuid:a8f3be94-e7b3-4ce8-9c4d-679d0ba1a9df",
      "resource": {
        "resourceType": "Observation",
        "id": "a8f3be94-e7b3-4ce8-9c4d-679d0ba1a9df",
        "meta": {
          "profile": [
            "http://hl7.eu/fhir/laboratory/StructureDefinition/Observation-resultslab-eu-lab"
          ]
        },
        "performer": [
          {
            "display": "The Central European Lab"
          }
        ],
        "category": [
          {
            "coding": [
              {
                "system": "http://terminology.hl7.org/CodeSystem/observation-category",
                "code": "laboratory"
              }
            ]
          }
        ],
        "code": {
          "coding": [
            {
              "code": "2339-0",
              "system": "http://loinc.org",
              "display": "Glucose [Mass/volume] in Blood"
            }
          ],
          "text": "Glucose [Mass/volume] in Blood"
        },
        "valueQuantity": {
          "system": "http://unitsofmeasure.org",
          "value": 86.9,
          "unit": "mg/dL",
          "code": "mg/dL"
        },
        "referenceRange": [
          {
            "low": {
              "value": 70,
              "code": "mg/dL",
              "system": "http://unitsofmeasure.org"
            }
          },
          {
            "high": {
              "value": 100,
              "code": "mg/dL",
              "system": "http://unitsofmeasure.org"
            }
          }
        ],
        "text": {
          "status": "generated",
          "div": "<div xmlns=\"http://www.w3.org/1999/xhtml\"><table class=\"hl7__eu__lab__report\"><tr><th>Test</th><th>11-Feb-2021</th><th>Reference&#xA0;Range</th><th>Unit</th></tr><tr><td>Glucose [Mass/volume] in Blood</td><td>86.9</td><td>70 - 100</td><td></td><td>mg/dL</td></tr></table></div>"
        },
        "status": "final",
        "subject": {
          "reference": "urn:uuid:380c6fa7-771b-414b-8033-3a782352f1ee",
          "display": "Molly Jenkins"
        },
        "effectiveDateTime": "2021-02-11T14:42:11Z",
        "specimen": {
          "reference": "urn:uuid:233c280d-4b90-4e67-a041-49253e5b1e49"
        }
      }
    },
    {
      "fullUrl": "urn:uuid:8f8f1e4b-17dd-4d03-b1fe-17bbc24c1fb5",
      "resource": {
        "resourceType": "Observation",
        "id": "8f8f1e4b-17dd-4d03-b1fe-17bbc24c1fb5",
        "meta": {
          "profile": [
            "http://hl7.eu/fhir/laboratory/StructureDefinition/Observation-resultslab-eu-lab"
          ]
        },
        "performer": [
          {
            "display": "The Central European Lab"
          }
        ],
        "category": [
          {
            "coding": [
              {
                "system": "http://terminology.hl7.org/CodeSystem/observation-category",
                "code": "laboratory"
              }
            ]
          }
        ],
        "code": {
          "coding": [
            {
              "code": "6299-2",
              "system": "http://loinc.org",
              "display": "Urea nitrogen [Mass/volume] in Blood"
            }
          ],
          "text": "Urea nitrogen [Mass/volume] in Blood"
        },
        "valueQuantity": {
          "system": "http://unitsofmeasure.org",
          "value": 19.2,
          "unit": "mg/dL",
          "code": "mg/dL"
        },
        "referenceRange": [
          {
            "low": {
              "value": 7,
              "code": "mg/dL",
              "system": "http://unitsofmeasure.org"
            }
          },
          {
            "high": {
              "value": 20,
              "code": "mg/dL",
              "system": "http://unitsofmeasure.org"
            }
          }
        ],
        "text": {
          "status": "generated",
          "div": "<div xmlns=\"http://www.w3.org/1999/xhtml\"><table class=\"hl7__eu__lab__report\"><tr><th>Test</th><th>11-Feb-2021</th><th>Reference&#xA0;Range</th><th>Unit</th></tr><tr><td>Urea nitrogen [Mass/volume] in Blood</td><td>19.2</td><td>7 - 20</td><td></td><td>mg/dL</td></tr></table></div>"
        },
        "status": "final",
        "subject": {
          "reference": "urn:uuid:380c6fa7-771b-414b-8033-3a782352f1ee",
          "display": "Molly Jenkins"
        },
        "effectiveDateTime": "2021-02-11T14:42:11Z",
        "specimen": {
          "reference": "urn:uuid:233c280d-4b90-4e67-a041-49253e5b1e49"
        }
      }
    },
    {
      "fullUrl": "urn:uuid:3c096462-e4fc-47f5-a5ba-4d55e6b3c43d",
      "resource": {
        "resourceType": "Observation",
        "id": "3c096462-e4fc-47f5-a5ba-4d55e6b3c43d",
        "meta": {
          "profile": [
            "http://hl7.eu/fhir/laboratory/StructureDefinition/Observation-resultslab-eu-lab"
          ]
        },
        "performer": [
          {
            "display": "The Central European Lab"
          }
        ],
        "category": [
          {
            "coding": [
              {
                "system": "http://terminology.hl7.org/CodeSystem/observation-category",
                "code": "laboratory"
              }
            ]
          }
        ],
        "code": {
          "coding": [
            {
              "code": "38483-4",
              "system": "http://loinc.org",
              "display": "Creatinine [Mass/volume] in Blood"
            }
          ],
          "text": "Creatinine [Mass/volume] in Blood"
        },
        "valueQuantity": {
          "system": "http://unitsofmeasure.org",
          "value": 2,
          "unit": "mg/dL",
          "code": "mg/dL"
        },
        "referenceRange": [
          {
            "low": {
              "value": 0.6,
              "code": "mg/dL",
              "system": "http://unitsofmeasure.org"
            }
          },
          {
            "high": {
              "value": 1.3,
              "code": "mg/dL",
              "system": "http://unitsofmeasure.org"
            }
          }
        ],
        "interpretation": [
          {
            "coding": [
              {
                "code": "H",
                "system": "http://terminology.hl7.org/CodeSystem/v3-ObservationInterpretation",
                "display": "High"
              }
            ]
          }
        ],
        "text": {
          "status": "generated",
          "div": "<div xmlns=\"http://www.w3.org/1999/xhtml\"><table class=\"hl7__eu__lab__report\"><tr><th>Test</th><th>11-Feb-2021</th><th>Reference&#xA0;Range</th><th>Unit</th></tr><tr><td>Creatinine [Mass/volume] in Blood</td><td>2.0</td><td>0.6 - 1.3</td><td>H</td><td>mg/dL</td></tr></table></div>"
        },
        "status": "final",
        "subject": {
          "reference": "urn:uuid:380c6fa7-771b-414b-8033-3a782352f1ee",
          "display": "Molly Jenkins"
        },
        "effectiveDateTime": "2021-02-11T14:42:11Z",
        "specimen": {
          "reference": "urn:uuid:233c280d-4b90-4e67-a041-49253e5b1e49"
        }
      }
    },
    {
      "fullUrl": "urn:uuid:25a075f7-813e-4381-a5df-93b82c11e567",
      "resource": {
        "resourceType": "Observation",
        "id": "25a075f7-813e-4381-a5df-93b82c11e567",
        "meta": {
          "profile": [
            "http://hl7.eu/fhir/laboratory/StructureDefinition/Observation-resultslab-eu-lab"
          ]
        },
        "performer": [
          {
            "display": "The Central European Lab"
          }
        ],
        "category": [
          {
            "coding": [
              {
                "system": "http://terminology.hl7.org/CodeSystem/observation-category",
                "code": "laboratory"
              }
            ]
          }
        ],
        "code": {
          "coding": [
            {
              "code": "49765-1",
              "system": "http://loinc.org",
              "display": "Calcium [Mass/volume] in Blood"
            }
          ],
          "text": "Calcium [Mass/volume] in Blood"
        },
        "valueQuantity": {
          "system": "http://unitsofmeasure.org",
          "value": 8.9,
          "unit": "mg/dL",
          "code": "mg/dL"
        },
        "referenceRange": [
          {
            "low": {
              "value": 8.6,
              "code": "mg/dL",
              "system": "http://unitsofmeasure.org"
            }
          },
          {
            "high": {
              "value": 10.4,
              "code": "mg/dL",
              "system": "http://unitsofmeasure.org"
            }
          }
        ],
        "text": {
          "status": "generated",
          "div": "<div xmlns=\"http://www.w3.org/1999/xhtml\"><table class=\"hl7__eu__lab__report\"><tr><th>Test</th><th>11-Feb-2021</th><th>Reference&#xA0;Range</th><th>Unit</th></tr><tr><td>Calcium [Mass/volume] in Blood</td><td>8.9</td><td>8.6 - 10.4</td><td></td><td>mg/dL</td></tr></table></div>"
        },
        "status": "final",
        "subject": {
          "reference": "urn:uuid:380c6fa7-771b-414b-8033-3a782352f1ee",
          "display": "Molly Jenkins"
        },
        "effectiveDateTime": "2021-02-11T14:42:11Z",
        "specimen": {
          "reference": "urn:uuid:233c280d-4b90-4e67-a041-49253e5b1e49"
        }
      }
    },
    {
      "fullUrl": "urn:uuid:a8d64a7b-fcd1-4c9b-a5cb-b5d64f487f12",
      "resource": {
        "resourceType": "Observation",
        "id": "a8d64a7b-fcd1-4c9b-a5cb-b5d64f487f12",
        "meta": {
          "profile": [
            "http://hl7.eu/fhir/laboratory/StructureDefinition/Observation-resultslab-eu-lab"
          ]
        },
        "performer": [
          {
            "display": "The Central European Lab"
          }
        ],
        "category": [
          {
            "coding": [
              {
                "system": "http://terminology.hl7.org/CodeSystem/observation-category",
                "code": "laboratory"
              }
            ]
          }
        ],
        "code": {
          "coding": [
            {
              "code": "2947-0",
              "system": "http://loinc.org",
              "display": "Sodium [Moles/volume] in Blood"
            }
          ],
          "text": "Sodium [Moles/volume] in Blood"
        },
        "valueQuantity": {
          "system": "http://unitsofmeasure.org",
          "value": 142.8,
          "unit": "mmol/L",
          "code": "mmol/L"
        },
        "referenceRange": [
          {
            "low": {
              "value": 135,
              "code": "mmol/L",
              "system": "http://unitsofmeasure.org"
            }
          },
          {
            "high": {
              "value": 145,
              "code": "mmol/L",
              "system": "http://unitsofmeasure.org"
            }
          }
        ],
        "text": {
          "status": "generated",
          "div": "<div xmlns=\"http://www.w3.org/1999/xhtml\"><table class=\"hl7__eu__lab__report\"><tr><th>Test</th><th>11-Feb-2021</th><th>Reference&#xA0;Range</th><th>Unit</th></tr><tr><td>Sodium [Moles/volume] in Blood</td><td>142.8</td><td>135 - 145</td><td></td><td>mmol/L</td></tr></table></div>"
        },
        "status": "final",
        "subject": {
          "reference": "urn:uuid:380c6fa7-771b-414b-8033-3a782352f1ee",
          "display": "Molly Jenkins"
        },
        "effectiveDateTime": "2021-02-11T14:42:11Z",
        "specimen": {
          "reference": "urn:uuid:233c280d-4b90-4e67-a041-49253e5b1e49"
        }
      }
    },
    {
      "fullUrl": "urn:uuid:4d73858e-57eb-4eb0-8821-6600dbc87b2c",
      "resource": {
        "resourceType": "Observation",
        "id": "4d73858e-57eb-4eb0-8821-6600dbc87b2c",
        "meta": {
          "profile": [
            "http://hl7.eu/fhir/laboratory/StructureDefinition/Observation-resultslab-eu-lab"
          ]
        },
        "performer": [
          {
            "display": "The Central European Lab"
          }
        ],
        "category": [
          {
            "coding": [
              {
                "system": "http://terminology.hl7.org/CodeSystem/observation-category",
                "code": "laboratory"
              }
            ]
          }
        ],
        "code": {
          "coding": [
            {
              "code": "6298-4",
              "system": "http://loinc.org",
              "display": "Potassium [Moles/volume] in Blood"
            }
          ],
          "text": "Potassium [Moles/volume] in Blood"
        },
        "valueQuantity": {
          "system": "http://unitsofmeasure.org",
          "value": 4.1,
          "unit": "mmol/L",
          "code": "mmol/L"
        },
        "referenceRange": [
          {
            "low": {
              "value": 3.5,
              "code": "mmol/L",
              "system": "http://unitsofmeasure.org"
            }
          },
          {
            "high": {
              "value": 5.1,
              "code": "mmol/L",
              "system": "http://unitsofmeasure.org"
            }
          }
        ],
        "text": {
          "status": "generated",
          "div": "<div xmlns=\"http://www.w3.org/1999/xhtml\"><table class=\"hl7__eu__lab__report\"><tr><th>Test</th><th>11-Feb-2021</th><th>Reference&#xA0;Range</th><th>Unit</th></tr><tr><td>Potassium [Moles/volume] in Blood</td><td>4.1</td><td>3.5 - 5.1</td><td></td><td>mmol/L</td></tr></table></div>"
        },
        "status": "final",
        "subject": {
          "reference": "urn:uuid:380c6fa7-771b-414b-8033-3a782352f1ee",
          "display": "Molly Jenkins"
        },
        "effectiveDateTime": "2021-02-11T14:42:11Z",
        "specimen": {
          "reference": "urn:uuid:233c280d-4b90-4e67-a041-49253e5b1e49"
        }
      }
    },
    {
      "fullUrl": "urn:uuid:aa9f8ac7-b97d-432c-b616-6a83b778d5d4",
      "resource": {
        "resourceType": "Observation",
        "id": "aa9f8ac7-b97d-432c-b616-6a83b778d5d4",
        "meta": {
          "profile": [
            "http://hl7.eu/fhir/laboratory/StructureDefinition/Observation-resultslab-eu-lab"
          ]
        },
        "performer": [
          {
            "display": "The Central European Lab"
          }
        ],
        "category": [
          {
            "coding": [
              {
                "system": "http://terminology.hl7.org/CodeSystem/observation-category",
                "code": "laboratory"
              }
            ]
          }
        ],
        "code": {
          "coding": [
            {
              "code": "2069-3",
              "system": "http://loinc.org",
              "display": "Chloride [Moles/volume] in Blood"
            }
          ],
          "text": "Chloride [Moles/volume] in Blood"
        },
        "valueQuantity": {
          "system": "http://unitsofmeasure.org",
          "value": 104.2,
          "unit": "mmol/L",
          "code": "mmol/L"
        },
        "referenceRange": [
          {
            "low": {
              "value": 98,
              "code": "mmol/L",
              "system": "http://unitsofmeasure.org"
            }
          },
          {
            "high": {
              "value": 110,
              "code": "mmol/L",
              "system": "http://unitsofmeasure.org"
            }
          }
        ],
        "text": {
          "status": "generated",
          "div": "<div xmlns=\"http://www.w3.org/1999/xhtml\"><table class=\"hl7__eu__lab__report\"><tr><th>Test</th><th>11-Feb-2021</th><th>Reference&#xA0;Range</th><th>Unit</th></tr><tr><td>Chloride [Moles/volume] in Blood</td><td>104.2</td><td>98 - 110</td><td></td><td>mmol/L</td></tr></table></div>"
        },
        "status": "final",
        "subject": {
          "reference": "urn:uuid:380c6fa7-771b-414b-8033-3a782352f1ee",
          "display": "Molly Jenkins"
        },
        "effectiveDateTime": "2021-02-11T14:42:11Z",
        "specimen": {
          "reference": "urn:uuid:233c280d-4b90-4e67-a041-49253e5b1e49"
        }
      }
    },
    {
      "fullUrl": "urn:uuid:7ebfdbd5-6dcc-4796-80b5-8b8faf4c9ccd",
      "resource": {
        "resourceType": "Observation",
        "id": "7ebfdbd5-6dcc-4796-80b5-8b8faf4c9ccd",
        "meta": {
          "profile": [
            "http://hl7.eu/fhir/laboratory/StructureDefinition/Observation-resultslab-eu-lab"
          ]
        },
        "performer": [
          {
            "display": "The Central European Lab"
          }
        ],
        "category": [
          {
            "coding": [
              {
                "system": "http://terminology.hl7.org/CodeSystem/observation-category",
                "code": "laboratory"
              }
            ]
          }
        ],
        "code": {
          "coding": [
            {
              "code": "20565-8",
              "system": "http://loinc.org",
              "display": "Carbon dioxide, total [Moles/volume] in Blood"
            }
          ],
          "text": "Carbon dioxide, total [Moles/volume] in Blood"
        },
        "valueQuantity": {
          "system": "http://unitsofmeasure.org",
          "value": 27.7,
          "unit": "mmol/L",
          "code": "mmol/L"
        },
        "referenceRange": [
          {
            "low": {
              "value": 22,
              "code": "mmol/L",
              "system": "http://unitsofmeasure.org"
            }
          },
          {
            "high": {
              "value": 29,
              "code": "mmol/L",
              "system": "http://unitsofmeasure.org"
            }
          }
        ],
        "text": {
          "status": "generated",
          "div": "<div xmlns=\"http://www.w3.org/1999/xhtml\"><table class=\"hl7__eu__lab__report\"><tr><th>Test</th><th>11-Feb-2021</th><th>Reference&#xA0;Range</th><th>Unit</th></tr><tr><td>Carbon dioxide, total [Moles/volume] in Blood</td><td>27.7</td><td>22 - 29</td><td></td><td>mmol/L</td></tr></table></div>"
        },
        "status": "final",
        "subject": {
          "reference": "urn:uuid:380c6fa7-771b-414b-8033-3a782352f1ee",
          "display": "Molly Jenkins"
        },
        "effectiveDateTime": "2021-02-11T14:42:11Z",
        "specimen": {
          "reference": "urn:uuid:233c280d-4b90-4e67-a041-49253e5b1e49"
        }
      }
    },
    {
      "fullUrl": "urn:uuid:8a6c47b9-20cf-46cf-ae46-39ef3ea4f4cf",
      "resource": {
        "resourceType": "Device",
        "id": "8a6c47b9-20cf-46cf-ae46-39ef3ea4f4cf",
        "deviceName": [
          {
            "name": "SYNDERAI Synthetic Generator",
            "type": "manufacturer-name"
          }
        ],
        "version": [
          {
            "value": "5.0"
          }
        ],
        "text": {
          "status": "generated",
          "div": "<div xmlns=\"http://www.w3.org/1999/xhtml\">SYNDERAI Synthetic Generator v5.0</div>"
        },
        "status": "active\"",
        "distinctIdentifier": "synderai-generator-50",
        "manufacturer": "SYNDERAI Project"
      }
    },
    {
      "fullUrl": "urn:uuid:ca8abbf4-0f0d-4166-acea-04b477bc8b8f",
      "resource": {
        "resourceType": "Provenance",
        "id": "ca8abbf4-0f0d-4166-acea-04b477bc8b8f",
        "target": [
          {
            "reference": "Patient/380c6fa7-771b-414b-8033-3a782352f1ee"
          },
          {
            "reference": "Bundle/0642985c-8f80-4de8-bdcf-9aa9cfb483d5"
          },
          {
            "reference": "Composition/e037bcfc-0f38-4503-8b8b-4ea8f57891e0"
          },
          {
            "reference": "PractitionerRole/0289f5a5-9ab2-41eb-8a25-53b45358155e"
          },
          {
            "reference": "Practitioner/5ab174aa-45ec-4301-abdb-9910e1c09667"
          },
          {
            "reference": "PractitionerRole/e5ef3cbe-c582-44f9-9f45-0a87ebf87c3f"
          },
          {
            "reference": "Organization/ff67c55a-8109-4a27-b65e-7b176fbe4a76"
          }
        ],
        "activity": {
          "text": "Synthetic Example Data Generation"
        },
        "policy": [
          "https://synderai.net/synderai-synthetic-data-policy"
        ],
        "agent": [
          {
            "type": {
              "text": "author"
            },
            "who": {
              "reference": "Device/8a6c47b9-20cf-46cf-ae46-39ef3ea4f4cf"
            }
          }
        ],
        "reason": [
          {
            "text": "Interoperability Testing and Training (non-clinical use)"
          }
        ],
        "text": {
          "status": "generated",
          "div": "<div xmlns=\"http://www.w3.org/1999/xhtml\">Provenance for SYNDERAI Synthetic Example Data Resource</div>"
        },
        "recorded": "2021-02-11T15:42:11Z"
      }
    },
    {
      "fullUrl": "urn:uuid:0289f5a5-9ab2-41eb-8a25-53b45358155e",
      "resource": {
        "resourceType": "PractitionerRole",
        "id": "0289f5a5-9ab2-41eb-8a25-53b45358155e",
        "meta": {
          "profile": [
            "http://hl7.eu/fhir/base/StructureDefinition/practitionerRole-eu"
          ]
        },
        "text": {
          "status": "generated",
          "div": "<div xmlns=\"http://www.w3.org/1999/xhtml\">Laboratory Role Id: 0289f5a5-9ab2-41eb-8a25-53b45358155e</div>"
        },
        "practitioner": {
          "reference": "urn:uuid:5ab174aa-45ec-4301-abdb-9910e1c09667"
        }
      }
    },
    {
      "fullUrl": "urn:uuid:5ab174aa-45ec-4301-abdb-9910e1c09667",
      "resource": {
        "resourceType": "Practitioner",
        "id": "5ab174aa-45ec-4301-abdb-9910e1c09667",
        "meta": {
          "profile": [
            "http://hl7.eu/fhir/base/StructureDefinition/practitioner-eu"
          ]
        },
        "identifier": [
          {
            "assigner": {
              "display": "HL7 Europe"
            },
            "system": "urn:oid:2.16.840.1.113883.2.51.999",
            "value": "3e742d34-eb2d-4040-926f-3f29875fbed2"
          }
        ],
        "name": [
          {
            "prefix": [
              "dr"
            ],
            "given": [
              "Ex"
            ],
            "family": "Ample"
          }
        ],
        "address": [
          {
            "line": [
              "Laboratoire Central Européenne",
              "Boulevard du Jardin Botanique 32"
            ],
            "postalCode": "1000",
            "city": "Brussels",
            "country": "Belgium"
          }
        ],
        "text": {
          "status": "generated",
          "div": "<div xmlns=\"http://www.w3.org/1999/xhtml\">Laboratory: Laboratoire Central Européenne, 1000 Brussels, Belgium</div>"
        }
      }
    }
  ],
  "type": "document",
  "timestamp": "2021-02-11T15:42:11Z"
}
