{
  "resourceType": "Bundle",
  "id": "c4f0f773-62af-4d60-bf2e-db1853e64e9e",
  "meta": {
    "profile": [
      "http://hl7.eu/fhir/laboratory/StructureDefinition/Bundle-eu-lab"
    ]
  },
  "identifier": {
    "assigner": {
      "display": "HL7 Europe"
    },
    "system": "urn:oid:2.16.840.1.113883.2.51.999",
    "value": "4115fd5d-5008-4550-9b11-1eee7e2976ac"
  },
  "entry": [
    {
      "fullUrl": "urn:uuid:b34ba599-87cd-4df6-b6e4-791a05eb3ffc",
      "resource": {
        "resourceType": "Composition",
        "id": "b34ba599-87cd-4df6-b6e4-791a05eb3ffc",
        "meta": {
          "profile": [
            "http://hl7.eu/fhir/laboratory/StructureDefinition/Composition-eu-lab"
          ]
        },
        "identifier": {
          "assigner": {
            "display": "HL7 Europe"
          },
          "system": "urn:oid:2.16.840.1.113883.2.51.999",
          "value": "144059af-82de-45f5-8a67-5e62abd79979"
        },
        "author": [
          {
            "reference": "urn:uuid:71551680-2ab0-4fc6-9952-6eebd70f91f0"
          }
        ],
        "category": [
          {
            "coding": [
              {
                "code": "26436-6",
                "system": "http://loinc.org",
                "display": "Laboratory studies (set)"
              }
            ]
          }
        ],
        "type": {
          "coding": [
            {
              "code": "11502-2",
              "system": "http://loinc.org",
              "display": "Laboratory report"
            }
          ],
          "text": "Laboratory Report"
        },
        "section": [
          {
            "code": {
              "coding": [
                {
                  "code": "26436-6",
                  "system": "http://loinc.org",
                  "display": "Laboratory studies (set)"
                }
              ],
              "text": "Laboratory studies"
            },
            "section": [
              {
                "code": {
                  "coding": [
                    {
                      "code": "$18719-5",
                      "system": "http://loinc.org",
                      "display": "Chemistry studies (set)"
                    }
                  ],
                  "text": "Chemistry"
                },
                "entry": [
                  {
                    "reference": "urn:uuid:6b526a98-2ff0-492f-97bf-faae09d9fb7c"
                  },
                  {
                    "reference": "urn:uuid:ad3c47cc-01d4-4699-95b0-75cb06a967aa"
                  },
                  {
                    "reference": "urn:uuid:585fd476-61a4-48fd-a8c4-00f3135164fa"
                  },
                  {
                    "reference": "urn:uuid:6bb14295-45f0-4f25-bfd7-83ac89c08376"
                  },
                  {
                    "reference": "urn:uuid:6b5263c5-92bf-4608-ab67-aecd32f4a5e3"
                  },
                  {
                    "reference": "urn:uuid:d2467221-b9c0-4166-9ce1-66a357f89544"
                  },
                  {
                    "reference": "urn:uuid:fb8ea480-6c7b-42b1-bf3f-c49dee4d81cd"
                  },
                  {
                    "reference": "urn:uuid:c4b1643b-cec2-442e-8277-2338ac1838e5"
                  },
                  {
                    "reference": "urn:uuid:47527ba7-518f-4aea-b2b2-fc31bfab55b0"
                  },
                  {
                    "reference": "urn:uuid:2763b8a4-465a-478d-9800-759b8e9feafe"
                  },
                  {
                    "reference": "urn:uuid:fb4b3dbe-f217-4c27-8b1d-6fe34a819590"
                  },
                  {
                    "reference": "urn:uuid:b6a17ef5-064d-4240-bb2c-725faccfd7a5"
                  },
                  {
                    "reference": "urn:uuid:5669bf36-0f3c-4203-9da2-f2e1ad5f7795"
                  },
                  {
                    "reference": "urn:uuid:c806e5ea-61e1-42ca-ad35-5ebcf7e27f97"
                  },
                  {
                    "reference": "urn:uuid:76e47e59-d9f5-4932-a787-68fbdf706211"
                  },
                  {
                    "reference": "urn:uuid:b90460eb-8fac-4344-a697-3486b37e580e"
                  },
                  {
                    "reference": "urn:uuid:946af9ca-af13-4b44-9936-31b0ac613968"
                  },
                  {
                    "reference": "urn:uuid:d3aeebf5-0c2d-44ab-9175-976d1e322d8a"
                  }
                ],
                "text": {
                  "status": "generated",
                  "div": "<div xmlns=\"http://www.w3.org/1999/xhtml\"><h3>Chemistry</h3><table class=\"hl7__eu__lab__report\"><thead><tr><th>Test</th><th>25-DEC-2020</th><th>Reference&#xA0;Range</th><th>Unit</th></tr></thead><tbody><tr><td>Glucose [Mass/volume] in Serum or Plasma</td><td>74.5</td><td>70 - 140</td><td>mg/dL</td></tr><tr><td>Urea nitrogen [Mass/volume] in Serum or Plasma</td><td>8.8</td><td>7 - 20</td><td>mg/dL</td></tr><tr><td>Creatinine [Mass/volume] in Serum or Plasma</td><td><strong>1.9 H</strong></td><td>0.9 - 1.3</td><td>mg/dL</td></tr><tr><td>Calcium [Mass/volume] in Serum or Plasma</td><td>9.1</td><td>8.5 - 10.5</td><td>mg/dL</td></tr><tr><td>Sodium [Moles/volume] in Serum or Plasma</td><td>138.1</td><td>135 - 145</td><td>mmol/L</td></tr><tr><td>Potassium [Moles/volume] in Serum or Plasma</td><td>3.9</td><td>3.5 - 5.3</td><td>mmol/L</td></tr><tr><td>Chloride [Moles/volume] in Serum or Plasma</td><td>102.6</td><td>98 - 107</td><td>mmol/L</td></tr><tr><td>Carbon dioxide, total [Moles/volume] in Serum or Plasma</td><td><strong>20.3 L</strong></td><td>22 - 33</td><td>mmol/L</td></tr><tr><td>Ketones [Presence] in Urine by Test strip</td><td>Urine ketone test = ++</td><td></td><td></td></tr><tr><td>Hemoglobin A1c/Hemoglobin.total in Blood</td><td><strong>3.2 L</strong></td><td>4.3 - 6</td><td>%</td></tr><tr><td>Glucose [Mass/volume] in Blood</td><td>74.5</td><td>70 - 140</td><td>mg/dL</td></tr><tr><td>Urea nitrogen [Mass/volume] in Blood</td><td>8.8</td><td>7 - 20</td><td>mg/dL</td></tr><tr><td>Creatinine [Mass/volume] in Blood</td><td><strong>2.6 H</strong></td><td>0.9 - 1.3</td><td>mg/dL</td></tr><tr><td>Calcium [Mass/volume] in Blood</td><td>9.1</td><td>8.5 - 10.5</td><td>mg/dL</td></tr><tr><td>Sodium [Moles/volume] in Blood</td><td>138.1</td><td>135 - 145</td><td>mmol/L</td></tr><tr><td>Potassium [Moles/volume] in Blood</td><td>3.9</td><td>3.5 - 5.1</td><td>mmol/L</td></tr><tr><td>Chloride [Moles/volume] in Blood</td><td>102.6</td><td>98 - 108</td><td>mmol/L</td></tr><tr><td>Carbon dioxide, total [Moles/volume] in Blood</td><td><strong>20.3 L</strong></td><td>22 - 29</td><td>mmol/L</td></tr></tbody></table></div>"
                },
                "title": "Chemistry"
              },
              {
                "code": {
                  "coding": [
                    {
                      "code": "$18729-4",
                      "system": "http://loinc.org",
                      "display": "Urinalysis studies (set)"
                    }
                  ],
                  "text": "Urinalysis"
                },
                "entry": [
                  {
                    "reference": "urn:uuid:9d09a124-4033-45c1-a6ee-ec863d17b8e1"
                  },
                  {
                    "reference": "urn:uuid:4996f833-b4f1-4482-8458-9d07a8c3b69d"
                  },
                  {
                    "reference": "urn:uuid:d55f413d-4b43-4243-a945-317aed077f16"
                  },
                  {
                    "reference": "urn:uuid:78f14790-c93e-4431-a6db-67281f39092a"
                  },
                  {
                    "reference": "urn:uuid:bafa8e53-fd83-491e-82d5-54549592cc45"
                  },
                  {
                    "reference": "urn:uuid:098f4871-0219-405e-bc1a-3bd45a2062cc"
                  },
                  {
                    "reference": "urn:uuid:b6451337-3ee2-4f83-91d5-37ae0d219aec"
                  },
                  {
                    "reference": "urn:uuid:7c729f60-f681-4435-84ec-3457abd8140c"
                  },
                  {
                    "reference": "urn:uuid:920cc1fc-d46f-47be-8b14-00bac0decdc7"
                  },
                  {
                    "reference": "urn:uuid:7b6e1f3d-a410-4baa-a439-77690c81a9d8"
                  },
                  {
                    "reference": "urn:uuid:9d9eae31-3115-4fef-8b17-fb8023a8d10b"
                  },
                  {
                    "reference": "urn:uuid:daac7921-8484-4f98-abbc-947cbc14bc9a"
                  }
                ],
                "text": {
                  "status": "generated",
                  "div": "<div xmlns=\"http://www.w3.org/1999/xhtml\"><h3>Urinalysis</h3><table class=\"hl7__eu__lab__report\"><thead><tr><th>Test</th><th>25-DEC-2020</th><th>Reference&#xA0;Range</th><th>Unit</th></tr></thead><tbody><tr><td>Glucose [Mass/volume] in Urine by Test strip</td><td>0.5</td><td>0 - 0.8</td><td>mg/dL</td></tr><tr><td>Glucose [Presence] in Urine by Test strip</td><td>++</td><td></td><td></td></tr><tr><td>Bilirubin.total [Mass/volume] in Urine by Test strip</td><td>1.4</td><td>0 - 1.9</td><td>mg/dL</td></tr><tr><td>Bilirubin.total [Presence] in Urine by Test strip</td><td>Finding of bilirubin in urine</td><td></td><td></td></tr><tr><td>Ketones [Mass/volume] in Urine by Test strip</td><td><strong>10.4 H</strong></td><td>0 - 3</td><td>mg/dL</td></tr><tr><td>Specific gravity of Urine by Test strip</td><td><strong>1.0 L</strong></td><td>1.01 - 1.03</td><td>{nominal}</td></tr><tr><td>pH of Urine by Test strip</td><td>6.2</td><td>4.5 - 7.5</td><td>pH</td></tr><tr><td>Protein [Mass/volume] in Urine by Test strip</td><td><strong>276.0 H</strong></td><td>0 - 149</td><td>mg/dL</td></tr><tr><td>Protein [Presence] in Urine by Test strip</td><td>Urine protein test = ++</td><td></td><td></td></tr><tr><td>Nitrite [Presence] in Urine by Test strip</td><td>Urine nitrite negative</td><td></td><td></td></tr><tr><td>Hemoglobin [Presence] in Urine by Test strip</td><td>Urine blood test = negative</td><td></td><td></td></tr><tr><td>Leukocyte esterase [Presence] in Urine by Test strip</td><td>Urine leukocyte test negative</td><td></td><td></td></tr></tbody></table></div>"
                },
                "title": "Urinalysis"
              },
              {
                "code": {
                  "coding": [
                    {
                      "code": "$LP7846-1",
                      "system": "http://loinc.org",
                      "display": "Specimen information"
                    }
                  ],
                  "text": "Specimen information"
                },
                "entry": [
                  {
                    "reference": "urn:uuid:afee7371-28c7-4410-a2d0-0a5418d28985"
                  },
                  {
                    "reference": "urn:uuid:8907473b-7451-44c3-92e3-c8ff1878ee24"
                  },
                  {
                    "reference": "urn:uuid:ea076952-a41e-4d18-8607-d1d054ecce0f"
                  },
                  {
                    "reference": "urn:uuid:658c06c3-6d26-442e-bcd8-40e459ffe260"
                  }
                ],
                "text": {
                  "status": "generated",
                  "div": "<div xmlns=\"http://www.w3.org/1999/xhtml\"><h3>Specimen information</h3><table class=\"hl7__eu__lab__report\"><thead><tr><th>Test</th><th>25-DEC-2020</th><th>Specimen</th><th></th></tr></thead><tbody><tr><td>Appearance of Urine</td><td>Cloudy urine</td><td>Urine</td><td></td></tr><tr><td>Odor of Urine</td><td>Urine smell ammoniacal</td><td>Urine</td><td></td></tr><tr><td>Clarity of Urine</td><td>Translucent</td><td>Urine</td><td></td></tr><tr><td>Color of Urine</td><td>Brown color</td><td>Urine</td><td></td></tr></tbody></table></div>"
                },
                "title": "Specimen information"
              }
            ],
            "title": "Laboratory Report"
          },
          {
            "text": {
              "status": "generated",
              "div": "<div xmlns=\"http://www.w3.org/1999/xhtml\"><h3>Annotation</h3><table class=\"hl7__eu__lab__report\"><tr><th>Conclusion and Recommendations based on this report and previous findings known to us</th></tr><tr><td>The patient shows elevated creatinine, low total CO₂, and significant proteinuria, suggesting impaired renal function with possible metabolic acidosis. Urine findings (cloudy, brown, low specific gravity, high protein, ketones, and glucose) indicate renal impairment, possible nephrotic syndrome, and/or poorly controlled diabetes, though HbA1c is unexpectedly low. No evidence of urinary infection. Recommend urgent nephrology evaluation and further assessment of glycemic status and renal function.</td></tr></table></div>"
            },
            "code": {
              "coding": [
                {
                  "system": "http://loinc.org",
                  "code": "48767-8",
                  "display": "Annotation comment"
                }
              ]
            },
            "title": "Annotation comment"
          }
        ],
        "status": "final",
        "subject": {
          "reference": "urn:uuid:8580a5ed-3438-407b-bc34-319fdcd718df",
          "display": "Victor Lagarde"
        },
        "date": "2020-12-25T05:48:18Z",
        "title": "Laboratory Report",
        "confidentiality": "N"
      }
    },
    {
      "fullUrl": "urn:uuid:ebfa61b2-a21a-4fb7-849a-3bc673e8925f",
      "resource": {
        "resourceType": "DiagnosticReport",
        "id": "ebfa61b2-a21a-4fb7-849a-3bc673e8925f",
        "meta": {
          "profile": [
            "http://hl7.eu/fhir/laboratory/StructureDefinition/DiagnosticReport-eu-lab"
          ]
        },
        "identifier": [
          {
            "assigner": {
              "display": "HL7 Europe"
            },
            "system": "urn:oid:2.16.840.1.113883.2.51.999",
            "value": "2a968169-f7e0-411c-94d4-2e0be7a4fad8"
          }
        ],
        "extension": [
          {
            "url": "http://hl7.org/fhir/5.0/StructureDefinition/extension-DiagnosticReport.composition",
            "valueReference": {
              "reference": "urn:uuid:144059af-82de-45f5-8a67-5e62abd79979"
            }
          }
        ],
        "category": [
          {
            "coding": [
              {
                "code": "26436-6",
                "system": "http://loinc.org",
                "display": "Laboratory studies (set)"
              }
            ]
          }
        ],
        "specimen": [
          {
            "reference": "urn:uuid:7d770201-9850-42cc-acc9-444d5f42c0b9"
          },
          {
            "reference": "urn:uuid:b4e2070e-fef3-4e1f-9983-0540f7bc2689"
          },
          {
            "reference": "urn:uuid:ce3432ba-6629-4444-af0b-244c0acf33c2"
          }
        ],
        "result": [
          {
            "reference": "urn:uuid:6b526a98-2ff0-492f-97bf-faae09d9fb7c"
          },
          {
            "reference": "urn:uuid:ad3c47cc-01d4-4699-95b0-75cb06a967aa"
          },
          {
            "reference": "urn:uuid:585fd476-61a4-48fd-a8c4-00f3135164fa"
          },
          {
            "reference": "urn:uuid:6bb14295-45f0-4f25-bfd7-83ac89c08376"
          },
          {
            "reference": "urn:uuid:6b5263c5-92bf-4608-ab67-aecd32f4a5e3"
          },
          {
            "reference": "urn:uuid:d2467221-b9c0-4166-9ce1-66a357f89544"
          },
          {
            "reference": "urn:uuid:fb8ea480-6c7b-42b1-bf3f-c49dee4d81cd"
          },
          {
            "reference": "urn:uuid:c4b1643b-cec2-442e-8277-2338ac1838e5"
          },
          {
            "reference": "urn:uuid:afee7371-28c7-4410-a2d0-0a5418d28985"
          },
          {
            "reference": "urn:uuid:8907473b-7451-44c3-92e3-c8ff1878ee24"
          },
          {
            "reference": "urn:uuid:ea076952-a41e-4d18-8607-d1d054ecce0f"
          },
          {
            "reference": "urn:uuid:658c06c3-6d26-442e-bcd8-40e459ffe260"
          },
          {
            "reference": "urn:uuid:9d09a124-4033-45c1-a6ee-ec863d17b8e1"
          },
          {
            "reference": "urn:uuid:4996f833-b4f1-4482-8458-9d07a8c3b69d"
          },
          {
            "reference": "urn:uuid:d55f413d-4b43-4243-a945-317aed077f16"
          },
          {
            "reference": "urn:uuid:78f14790-c93e-4431-a6db-67281f39092a"
          },
          {
            "reference": "urn:uuid:bafa8e53-fd83-491e-82d5-54549592cc45"
          },
          {
            "reference": "urn:uuid:47527ba7-518f-4aea-b2b2-fc31bfab55b0"
          },
          {
            "reference": "urn:uuid:098f4871-0219-405e-bc1a-3bd45a2062cc"
          },
          {
            "reference": "urn:uuid:b6451337-3ee2-4f83-91d5-37ae0d219aec"
          },
          {
            "reference": "urn:uuid:7c729f60-f681-4435-84ec-3457abd8140c"
          },
          {
            "reference": "urn:uuid:920cc1fc-d46f-47be-8b14-00bac0decdc7"
          },
          {
            "reference": "urn:uuid:7b6e1f3d-a410-4baa-a439-77690c81a9d8"
          },
          {
            "reference": "urn:uuid:9d9eae31-3115-4fef-8b17-fb8023a8d10b"
          },
          {
            "reference": "urn:uuid:daac7921-8484-4f98-abbc-947cbc14bc9a"
          },
          {
            "reference": "urn:uuid:2763b8a4-465a-478d-9800-759b8e9feafe"
          },
          {
            "reference": "urn:uuid:fb4b3dbe-f217-4c27-8b1d-6fe34a819590"
          },
          {
            "reference": "urn:uuid:b6a17ef5-064d-4240-bb2c-725faccfd7a5"
          },
          {
            "reference": "urn:uuid:5669bf36-0f3c-4203-9da2-f2e1ad5f7795"
          },
          {
            "reference": "urn:uuid:c806e5ea-61e1-42ca-ad35-5ebcf7e27f97"
          },
          {
            "reference": "urn:uuid:76e47e59-d9f5-4932-a787-68fbdf706211"
          },
          {
            "reference": "urn:uuid:b90460eb-8fac-4344-a697-3486b37e580e"
          },
          {
            "reference": "urn:uuid:946af9ca-af13-4b44-9936-31b0ac613968"
          },
          {
            "reference": "urn:uuid:d3aeebf5-0c2d-44ab-9175-976d1e322d8a"
          }
        ],
        "status": "registered",
        "code": {
          "coding": [
            {
              "code": "11502-2",
              "system": "http://loinc.org",
              "display": "Laboratory report"
            }
          ]
        },
        "subject": {
          "reference": "urn:uuid:8580a5ed-3438-407b-bc34-319fdcd718df",
          "display": "Victor Lagarde"
        }
      }
    },
    {
      "fullUrl": "urn:uuid:8580a5ed-3438-407b-bc34-319fdcd718df",
      "resource": {
        "resourceType": "Patient",
        "id": "8580a5ed-3438-407b-bc34-319fdcd718df",
        "meta": {
          "security": [
            {
              "system": "http://terminology.hl7.org/CodeSystem/v3-ActReason",
              "code": "HTEST"
            },
            {
              "system": "http://terminology.hl7.org/CodeSystem/v3-ActReason",
              "code": "TRAIN"
            }
          ],
          "tag": [
            {
              "system": "https://synderai.net/fhir/CodeSystem/tags",
              "code": "synthetic",
              "display": "SYNDERAI Synthetic data"
            }
          ],
          "profile": [
            "http://hl7.eu/fhir/base/StructureDefinition/patient-eu-core"
          ]
        },
        "identifier": [
          {
            "type": {
              "coding": [
                {
                  "code": "PT",
                  "system": "http://terminology.hl7.org/CodeSystem/v2-0203"
                }
              ]
            },
            "system": "http://ec.europa.eu/identifier/eci",
            "value": "9925-001801-9"
          },
          {
            "type": {
              "coding": [
                {
                  "code": "MR",
                  "system": "http://terminology.hl7.org/CodeSystem/v2-0203"
                }
              ]
            },
            "system": "http://local.setting.eu/identifier",
            "value": "22c2dfd0-ac57-8833-2532-848f180896a4"
          }
        ],
        "name": [
          {
            "family": "Lagarde"
          },
          {
            "given": [
              "Victor"
            ]
          },
          {
            "text": "Victor Lagarde"
          }
        ],
        "address": [
          {
            "line": [
              "avenue Robert"
            ],
            "use": "home",
            "type": "physical",
            "postalCode": "80300",
            "city": "Albert",
            "country": "France"
          }
        ],
        "telecom": [
          {
            "system": "phone",
            "value": "0177941801"
          }
        ],
        "extension": [
          {
            "url": "http://hl7.org/fhir/StructureDefinition/patient-nationality",
            "valueCodeableConcept": {
              "coding": [
                {
                  "code": "FR",
                  "system": "http://hl7.org/fhir/ValueSet/country"
                }
              ]
            }
          }
        ],
        "text": {
          "status": "generated",
          "div": "<div xmlns=\"http://www.w3.org/1999/xhtml\"><table class=\"hl7__ips\"><tr><td>Victor Lagarde</td><td>male</td><td>31-Aug-1939</td></tr></table></div>"
        },
        "gender": "male",
        "birthDate": "1939-08-31"
      }
    },
    {
      "fullUrl": "urn:uuid:fbf79092-2ed2-4a5e-ab05-f5b1882d079f",
      "resource": {
        "resourceType": "ServiceRequest",
        "id": "fbf79092-2ed2-4a5e-ab05-f5b1882d079f",
        "meta": {
          "profile": [
            "http://hl7.eu/fhir/laboratory/StructureDefinition/ServiceRequest-eu-lab"
          ]
        },
        "identifier": [
          {
            "system": "http://example.org",
            "value": "e4f05ef2-da7f-43fc-a286-0544321aece8"
          }
        ],
        "specimen": [
          {
            "reference": "urn:uuid:7d770201-9850-42cc-acc9-444d5f42c0b9"
          },
          {
            "reference": "urn:uuid:b4e2070e-fef3-4e1f-9983-0540f7bc2689"
          },
          {
            "reference": "urn:uuid:ce3432ba-6629-4444-af0b-244c0acf33c2"
          }
        ],
        "reasonCode": [
          {
            "coding": [
              {
                "code": "433144002",
                "system": "http://snomed.info/sct",
                "display": "Chronic kidney disease stage 3"
              }
            ]
          },
          {
            "coding": [
              {
                "code": "157141000119108",
                "system": "http://snomed.info/sct",
                "display": "Proteinuria due to type 2 diabetes mellitus"
              }
            ]
          },
          {
            "coding": [
              {
                "code": "431856006",
                "system": "http://snomed.info/sct",
                "display": "Chronic kidney disease stage 2"
              }
            ]
          },
          {
            "coding": [
              {
                "code": "90781000119102",
                "system": "http://snomed.info/sct",
                "display": "Microalbuminuria due to type 2 diabetes mellitus"
              }
            ]
          },
          {
            "coding": [
              {
                "code": "127013003",
                "system": "http://snomed.info/sct",
                "display": "Disorder of kidney due to diabetes mellitus"
              }
            ]
          },
          {
            "coding": [
              {
                "code": "431855005",
                "system": "http://snomed.info/sct",
                "display": "Chronic kidney disease stage 1"
              }
            ]
          },
          {
            "coding": [
              {
                "code": "55822004",
                "system": "http://snomed.info/sct",
                "display": "Hyperlipidemia"
              }
            ]
          },
          {
            "coding": [
              {
                "code": "59621000",
                "system": "http://snomed.info/sct",
                "display": "Essential hypertension"
              }
            ]
          },
          {
            "coding": [
              {
                "code": "237602007",
                "system": "http://snomed.info/sct",
                "display": "Metabolic syndrome X"
              }
            ]
          },
          {
            "coding": [
              {
                "code": "414545008",
                "system": "http://snomed.info/sct",
                "display": "Ischemic heart disease"
              }
            ]
          },
          {
            "coding": [
              {
                "code": "40055000",
                "system": "http://snomed.info/sct",
                "display": "Chronic sinusitis"
              }
            ]
          },
          {
            "coding": [
              {
                "code": "15777000",
                "system": "http://snomed.info/sct",
                "display": "Prediabetes"
              }
            ]
          },
          {
            "coding": [
              {
                "code": "271737000",
                "system": "http://snomed.info/sct",
                "display": "Anemia"
              }
            ]
          }
        ],
        "status": "active",
        "intent": "order",
        "code": {
          "coding": [
            {
              "code": "108252007",
              "system": "http://snomed.info/sct",
              "display": "Laboratory procedure"
            }
          ]
        },
        "subject": {
          "reference": "urn:uuid:8580a5ed-3438-407b-bc34-319fdcd718df",
          "display": "Victor Lagarde"
        },
        "requester": {
          "reference": "urn:uuid:840a3fb9-b881-4cad-abce-05f0910d2f2f"
        }
      }
    },
    {
      "fullUrl": "urn:uuid:840a3fb9-b881-4cad-abce-05f0910d2f2f",
      "resource": {
        "resourceType": "PractitionerRole",
        "id": "840a3fb9-b881-4cad-abce-05f0910d2f2f",
        "meta": {
          "profile": [
            "http://hl7.eu/fhir/base/StructureDefinition/practitionerRole-eu"
          ]
        },
        "text": {
          "status": "generated",
          "div": "<div xmlns=\"http://www.w3.org/1999/xhtml\">Provider Role Id: 840a3fb9-b881-4cad-abce-05f0910d2f2f</div>"
        },
        "organization": {
          "reference": "urn:uuid:d60f8fcc-24a1-4eef-a364-d51332a0f28f"
        }
      }
    },
    {
      "fullUrl": "urn:uuid:d60f8fcc-24a1-4eef-a364-d51332a0f28f",
      "resource": {
        "resourceType": "Organization",
        "id": "d60f8fcc-24a1-4eef-a364-d51332a0f28f",
        "meta": {
          "profile": [
            "http://hl7.eu/fhir/base/StructureDefinition/organization-eu"
          ]
        },
        "identifier": [
          {
            "assigner": {
              "display": "HL7 Europe"
            },
            "system": "urn:oid:2.16.840.1.113883.2.51.999",
            "value": "ccdeee7d-b8ab-43d5-95a1-4383091ce81a"
          }
        ],
        "address": [
          {
            "city": "Auxerre",
            "postalCode": "89000",
            "country": "France"
          }
        ],
        "text": {
          "status": "generated",
          "div": "<div xmlns=\"http://www.w3.org/1999/xhtml\">Provider Organization: Thiriot Didier (Cardiologie)</div>"
        },
        "name": "Thiriot Didier (Cardiologie)"
      }
    },
    {
      "fullUrl": "urn:uuid:7d770201-9850-42cc-acc9-444d5f42c0b9",
      "resource": {
        "resourceType": "Specimen",
        "id": "7d770201-9850-42cc-acc9-444d5f42c0b9",
        "meta": {
          "profile": [
            "http://hl7.eu/fhir/laboratory/StructureDefinition/Specimen-eu-lab"
          ]
        },
        "collection": {
          "collectedDateTime": "2020-12-25"
        },
        "text": {
          "status": "generated",
          "div": "<div xmlns=\"http://www.w3.org/1999/xhtml\"><table class=\"hl7__eu__lab__report\"><tr><th>Specimen</th><th>Collection Date</th></tr><tr><td>Acellular blood (serum or plasma) specimen</td><td><span class=\"nb\">25-Dec-2020</span></td></tr></table></div>"
        },
        "type": {
          "coding": [
            {
              "code": "122592007",
              "system": "http://snomed.info/sct",
              "display": "Acellular blood (serum or plasma) specimen"
            }
          ]
        }
      }
    },
    {
      "fullUrl": "urn:uuid:b4e2070e-fef3-4e1f-9983-0540f7bc2689",
      "resource": {
        "resourceType": "Specimen",
        "id": "b4e2070e-fef3-4e1f-9983-0540f7bc2689",
        "meta": {
          "profile": [
            "http://hl7.eu/fhir/laboratory/StructureDefinition/Specimen-eu-lab"
          ]
        },
        "collection": {
          "collectedDateTime": "2020-12-25"
        },
        "text": {
          "status": "generated",
          "div": "<div xmlns=\"http://www.w3.org/1999/xhtml\"><table class=\"hl7__eu__lab__report\"><tr><th>Specimen</th><th>Collection Date</th></tr><tr><td>Urine specimen</td><td><span class=\"nb\">25-Dec-2020</span></td></tr></table></div>"
        },
        "type": {
          "coding": [
            {
              "code": "122575003",
              "system": "http://snomed.info/sct",
              "display": "Urine specimen"
            }
          ]
        }
      }
    },
    {
      "fullUrl": "urn:uuid:ce3432ba-6629-4444-af0b-244c0acf33c2",
      "resource": {
        "resourceType": "Specimen",
        "id": "ce3432ba-6629-4444-af0b-244c0acf33c2",
        "meta": {
          "profile": [
            "http://hl7.eu/fhir/laboratory/StructureDefinition/Specimen-eu-lab"
          ]
        },
        "collection": {
          "collectedDateTime": "2020-12-25"
        },
        "text": {
          "status": "generated",
          "div": "<div xmlns=\"http://www.w3.org/1999/xhtml\"><table class=\"hl7__eu__lab__report\"><tr><th>Specimen</th><th>Collection Date</th></tr><tr><td>Whole blood specimen (specimen)</td><td><span class=\"nb\">25-Dec-2020</span></td></tr></table></div>"
        },
        "type": {
          "coding": [
            {
              "code": "258580003",
              "system": "http://snomed.info/sct",
              "display": "Whole blood specimen (specimen)"
            }
          ]
        }
      }
    },
    {
      "fullUrl": "urn:uuid:6b526a98-2ff0-492f-97bf-faae09d9fb7c",
      "resource": {
        "resourceType": "Observation",
        "id": "6b526a98-2ff0-492f-97bf-faae09d9fb7c",
        "meta": {
          "profile": [
            "http://hl7.eu/fhir/laboratory/StructureDefinition/Observation-resultslab-eu-lab"
          ]
        },
        "performer": [
          {
            "display": "The Central European Lab"
          }
        ],
        "category": [
          {
            "coding": [
              {
                "system": "http://terminology.hl7.org/CodeSystem/observation-category",
                "code": "laboratory"
              }
            ]
          }
        ],
        "code": {
          "coding": [
            {
              "code": "2345-7",
              "system": "http://loinc.org",
              "display": "Glucose [Mass/volume] in Serum or Plasma"
            }
          ],
          "text": "Glucose [Mass/volume] in Serum or Plasma"
        },
        "valueQuantity": {
          "system": "http://unitsofmeasure.org",
          "value": 74.5,
          "unit": "mg/dL",
          "code": "mg/dL"
        },
        "referenceRange": [
          {
            "low": {
              "value": 70,
              "code": "mg/dL",
              "system": "http://unitsofmeasure.org"
            }
          },
          {
            "high": {
              "value": 140,
              "code": "mg/dL",
              "system": "http://unitsofmeasure.org"
            }
          }
        ],
        "text": {
          "status": "generated",
          "div": "<div xmlns=\"http://www.w3.org/1999/xhtml\"><table class=\"hl7__eu__lab__report\"><tr><th>Test</th><th>25-Dec-2020</th><th>Reference&#xA0;Range</th><th>Unit</th></tr><tr><td>Glucose [Mass/volume] in Serum or Plasma</td><td>74.5</td><td>70 - 140</td><td></td><td>mg/dL</td></tr></table></div>"
        },
        "status": "final",
        "subject": {
          "reference": "urn:uuid:8580a5ed-3438-407b-bc34-319fdcd718df",
          "display": "Victor Lagarde"
        },
        "effectiveDateTime": "2020-12-25T04:48:18Z",
        "specimen": {
          "reference": "urn:uuid:7d770201-9850-42cc-acc9-444d5f42c0b9"
        }
      }
    },
    {
      "fullUrl": "urn:uuid:ad3c47cc-01d4-4699-95b0-75cb06a967aa",
      "resource": {
        "resourceType": "Observation",
        "id": "ad3c47cc-01d4-4699-95b0-75cb06a967aa",
        "meta": {
          "profile": [
            "http://hl7.eu/fhir/laboratory/StructureDefinition/Observation-resultslab-eu-lab"
          ]
        },
        "performer": [
          {
            "display": "The Central European Lab"
          }
        ],
        "category": [
          {
            "coding": [
              {
                "system": "http://terminology.hl7.org/CodeSystem/observation-category",
                "code": "laboratory"
              }
            ]
          }
        ],
        "code": {
          "coding": [
            {
              "code": "3094-0",
              "system": "http://loinc.org",
              "display": "Urea nitrogen [Mass/volume] in Serum or Plasma"
            }
          ],
          "text": "Urea nitrogen [Mass/volume] in Serum or Plasma"
        },
        "valueQuantity": {
          "system": "http://unitsofmeasure.org",
          "value": 8.8,
          "unit": "mg/dL",
          "code": "mg/dL"
        },
        "referenceRange": [
          {
            "low": {
              "value": 7,
              "code": "mg/dL",
              "system": "http://unitsofmeasure.org"
            }
          },
          {
            "high": {
              "value": 20,
              "code": "mg/dL",
              "system": "http://unitsofmeasure.org"
            }
          }
        ],
        "text": {
          "status": "generated",
          "div": "<div xmlns=\"http://www.w3.org/1999/xhtml\"><table class=\"hl7__eu__lab__report\"><tr><th>Test</th><th>25-Dec-2020</th><th>Reference&#xA0;Range</th><th>Unit</th></tr><tr><td>Urea nitrogen [Mass/volume] in Serum or Plasma</td><td>8.8</td><td>7 - 20</td><td></td><td>mg/dL</td></tr></table></div>"
        },
        "status": "final",
        "subject": {
          "reference": "urn:uuid:8580a5ed-3438-407b-bc34-319fdcd718df",
          "display": "Victor Lagarde"
        },
        "effectiveDateTime": "2020-12-25T04:48:18Z",
        "specimen": {
          "reference": "urn:uuid:7d770201-9850-42cc-acc9-444d5f42c0b9"
        }
      }
    },
    {
      "fullUrl": "urn:uuid:585fd476-61a4-48fd-a8c4-00f3135164fa",
      "resource": {
        "resourceType": "Observation",
        "id": "585fd476-61a4-48fd-a8c4-00f3135164fa",
        "meta": {
          "profile": [
            "http://hl7.eu/fhir/laboratory/StructureDefinition/Observation-resultslab-eu-lab"
          ]
        },
        "performer": [
          {
            "display": "The Central European Lab"
          }
        ],
        "category": [
          {
            "coding": [
              {
                "system": "http://terminology.hl7.org/CodeSystem/observation-category",
                "code": "laboratory"
              }
            ]
          }
        ],
        "code": {
          "coding": [
            {
              "code": "2160-0",
              "system": "http://loinc.org",
              "display": "Creatinine [Mass/volume] in Serum or Plasma"
            }
          ],
          "text": "Creatinine [Mass/volume] in Serum or Plasma"
        },
        "valueQuantity": {
          "system": "http://unitsofmeasure.org",
          "value": 1.9,
          "unit": "mg/dL",
          "code": "mg/dL"
        },
        "referenceRange": [
          {
            "low": {
              "value": 0.9,
              "code": "mg/dL",
              "system": "http://unitsofmeasure.org"
            }
          },
          {
            "high": {
              "value": 1.3,
              "code": "mg/dL",
              "system": "http://unitsofmeasure.org"
            }
          }
        ],
        "interpretation": [
          {
            "coding": [
              {
                "code": "H",
                "system": "http://terminology.hl7.org/CodeSystem/v3-ObservationInterpretation",
                "display": "High"
              }
            ]
          }
        ],
        "text": {
          "status": "generated",
          "div": "<div xmlns=\"http://www.w3.org/1999/xhtml\"><table class=\"hl7__eu__lab__report\"><tr><th>Test</th><th>25-Dec-2020</th><th>Reference&#xA0;Range</th><th>Unit</th></tr><tr><td>Creatinine [Mass/volume] in Serum or Plasma</td><td>1.9</td><td>0.9 - 1.3</td><td>H</td><td>mg/dL</td></tr></table></div>"
        },
        "status": "final",
        "subject": {
          "reference": "urn:uuid:8580a5ed-3438-407b-bc34-319fdcd718df",
          "display": "Victor Lagarde"
        },
        "effectiveDateTime": "2020-12-25T04:48:18Z",
        "specimen": {
          "reference": "urn:uuid:7d770201-9850-42cc-acc9-444d5f42c0b9"
        }
      }
    },
    {
      "fullUrl": "urn:uuid:6bb14295-45f0-4f25-bfd7-83ac89c08376",
      "resource": {
        "resourceType": "Observation",
        "id": "6bb14295-45f0-4f25-bfd7-83ac89c08376",
        "meta": {
          "profile": [
            "http://hl7.eu/fhir/laboratory/StructureDefinition/Observation-resultslab-eu-lab"
          ]
        },
        "performer": [
          {
            "display": "The Central European Lab"
          }
        ],
        "category": [
          {
            "coding": [
              {
                "system": "http://terminology.hl7.org/CodeSystem/observation-category",
                "code": "laboratory"
              }
            ]
          }
        ],
        "code": {
          "coding": [
            {
              "code": "17861-6",
              "system": "http://loinc.org",
              "display": "Calcium [Mass/volume] in Serum or Plasma"
            }
          ],
          "text": "Calcium [Mass/volume] in Serum or Plasma"
        },
        "valueQuantity": {
          "system": "http://unitsofmeasure.org",
          "value": 9.1,
          "unit": "mg/dL",
          "code": "mg/dL"
        },
        "referenceRange": [
          {
            "low": {
              "value": 8.5,
              "code": "mg/dL",
              "system": "http://unitsofmeasure.org"
            }
          },
          {
            "high": {
              "value": 10.5,
              "code": "mg/dL",
              "system": "http://unitsofmeasure.org"
            }
          }
        ],
        "text": {
          "status": "generated",
          "div": "<div xmlns=\"http://www.w3.org/1999/xhtml\"><table class=\"hl7__eu__lab__report\"><tr><th>Test</th><th>25-Dec-2020</th><th>Reference&#xA0;Range</th><th>Unit</th></tr><tr><td>Calcium [Mass/volume] in Serum or Plasma</td><td>9.1</td><td>8.5 - 10.5</td><td></td><td>mg/dL</td></tr></table></div>"
        },
        "status": "final",
        "subject": {
          "reference": "urn:uuid:8580a5ed-3438-407b-bc34-319fdcd718df",
          "display": "Victor Lagarde"
        },
        "effectiveDateTime": "2020-12-25T04:48:18Z",
        "specimen": {
          "reference": "urn:uuid:7d770201-9850-42cc-acc9-444d5f42c0b9"
        }
      }
    },
    {
      "fullUrl": "urn:uuid:6b5263c5-92bf-4608-ab67-aecd32f4a5e3",
      "resource": {
        "resourceType": "Observation",
        "id": "6b5263c5-92bf-4608-ab67-aecd32f4a5e3",
        "meta": {
          "profile": [
            "http://hl7.eu/fhir/laboratory/StructureDefinition/Observation-resultslab-eu-lab"
          ]
        },
        "performer": [
          {
            "display": "The Central European Lab"
          }
        ],
        "category": [
          {
            "coding": [
              {
                "system": "http://terminology.hl7.org/CodeSystem/observation-category",
                "code": "laboratory"
              }
            ]
          }
        ],
        "code": {
          "coding": [
            {
              "code": "2951-2",
              "system": "http://loinc.org",
              "display": "Sodium [Moles/volume] in Serum or Plasma"
            }
          ],
          "text": "Sodium [Moles/volume] in Serum or Plasma"
        },
        "valueQuantity": {
          "system": "http://unitsofmeasure.org",
          "value": 138.1,
          "unit": "mmol/L",
          "code": "mmol/L"
        },
        "referenceRange": [
          {
            "low": {
              "value": 135,
              "code": "mmol/L",
              "system": "http://unitsofmeasure.org"
            }
          },
          {
            "high": {
              "value": 145,
              "code": "mmol/L",
              "system": "http://unitsofmeasure.org"
            }
          }
        ],
        "text": {
          "status": "generated",
          "div": "<div xmlns=\"http://www.w3.org/1999/xhtml\"><table class=\"hl7__eu__lab__report\"><tr><th>Test</th><th>25-Dec-2020</th><th>Reference&#xA0;Range</th><th>Unit</th></tr><tr><td>Sodium [Moles/volume] in Serum or Plasma</td><td>138.1</td><td>135 - 145</td><td></td><td>mmol/L</td></tr></table></div>"
        },
        "status": "final",
        "subject": {
          "reference": "urn:uuid:8580a5ed-3438-407b-bc34-319fdcd718df",
          "display": "Victor Lagarde"
        },
        "effectiveDateTime": "2020-12-25T04:48:18Z",
        "specimen": {
          "reference": "urn:uuid:7d770201-9850-42cc-acc9-444d5f42c0b9"
        }
      }
    },
    {
      "fullUrl": "urn:uuid:d2467221-b9c0-4166-9ce1-66a357f89544",
      "resource": {
        "resourceType": "Observation",
        "id": "d2467221-b9c0-4166-9ce1-66a357f89544",
        "meta": {
          "profile": [
            "http://hl7.eu/fhir/laboratory/StructureDefinition/Observation-resultslab-eu-lab"
          ]
        },
        "performer": [
          {
            "display": "The Central European Lab"
          }
        ],
        "category": [
          {
            "coding": [
              {
                "system": "http://terminology.hl7.org/CodeSystem/observation-category",
                "code": "laboratory"
              }
            ]
          }
        ],
        "code": {
          "coding": [
            {
              "code": "2823-3",
              "system": "http://loinc.org",
              "display": "Potassium [Moles/volume] in Serum or Plasma"
            }
          ],
          "text": "Potassium [Moles/volume] in Serum or Plasma"
        },
        "valueQuantity": {
          "system": "http://unitsofmeasure.org",
          "value": 3.9,
          "unit": "mmol/L",
          "code": "mmol/L"
        },
        "referenceRange": [
          {
            "low": {
              "value": 3.5,
              "code": "mmol/L",
              "system": "http://unitsofmeasure.org"
            }
          },
          {
            "high": {
              "value": 5.3,
              "code": "mmol/L",
              "system": "http://unitsofmeasure.org"
            }
          }
        ],
        "text": {
          "status": "generated",
          "div": "<div xmlns=\"http://www.w3.org/1999/xhtml\"><table class=\"hl7__eu__lab__report\"><tr><th>Test</th><th>25-Dec-2020</th><th>Reference&#xA0;Range</th><th>Unit</th></tr><tr><td>Potassium [Moles/volume] in Serum or Plasma</td><td>3.9</td><td>3.5 - 5.3</td><td></td><td>mmol/L</td></tr></table></div>"
        },
        "status": "final",
        "subject": {
          "reference": "urn:uuid:8580a5ed-3438-407b-bc34-319fdcd718df",
          "display": "Victor Lagarde"
        },
        "effectiveDateTime": "2020-12-25T04:48:18Z",
        "specimen": {
          "reference": "urn:uuid:7d770201-9850-42cc-acc9-444d5f42c0b9"
        }
      }
    },
    {
      "fullUrl": "urn:uuid:fb8ea480-6c7b-42b1-bf3f-c49dee4d81cd",
      "resource": {
        "resourceType": "Observation",
        "id": "fb8ea480-6c7b-42b1-bf3f-c49dee4d81cd",
        "meta": {
          "profile": [
            "http://hl7.eu/fhir/laboratory/StructureDefinition/Observation-resultslab-eu-lab"
          ]
        },
        "performer": [
          {
            "display": "The Central European Lab"
          }
        ],
        "category": [
          {
            "coding": [
              {
                "system": "http://terminology.hl7.org/CodeSystem/observation-category",
                "code": "laboratory"
              }
            ]
          }
        ],
        "code": {
          "coding": [
            {
              "code": "2075-0",
              "system": "http://loinc.org",
              "display": "Chloride [Moles/volume] in Serum or Plasma"
            }
          ],
          "text": "Chloride [Moles/volume] in Serum or Plasma"
        },
        "valueQuantity": {
          "system": "http://unitsofmeasure.org",
          "value": 102.6,
          "unit": "mmol/L",
          "code": "mmol/L"
        },
        "referenceRange": [
          {
            "low": {
              "value": 98,
              "code": "mmol/L",
              "system": "http://unitsofmeasure.org"
            }
          },
          {
            "high": {
              "value": 107,
              "code": "mmol/L",
              "system": "http://unitsofmeasure.org"
            }
          }
        ],
        "text": {
          "status": "generated",
          "div": "<div xmlns=\"http://www.w3.org/1999/xhtml\"><table class=\"hl7__eu__lab__report\"><tr><th>Test</th><th>25-Dec-2020</th><th>Reference&#xA0;Range</th><th>Unit</th></tr><tr><td>Chloride [Moles/volume] in Serum or Plasma</td><td>102.6</td><td>98 - 107</td><td></td><td>mmol/L</td></tr></table></div>"
        },
        "status": "final",
        "subject": {
          "reference": "urn:uuid:8580a5ed-3438-407b-bc34-319fdcd718df",
          "display": "Victor Lagarde"
        },
        "effectiveDateTime": "2020-12-25T04:48:18Z",
        "specimen": {
          "reference": "urn:uuid:7d770201-9850-42cc-acc9-444d5f42c0b9"
        }
      }
    },
    {
      "fullUrl": "urn:uuid:c4b1643b-cec2-442e-8277-2338ac1838e5",
      "resource": {
        "resourceType": "Observation",
        "id": "c4b1643b-cec2-442e-8277-2338ac1838e5",
        "meta": {
          "profile": [
            "http://hl7.eu/fhir/laboratory/StructureDefinition/Observation-resultslab-eu-lab"
          ]
        },
        "performer": [
          {
            "display": "The Central European Lab"
          }
        ],
        "category": [
          {
            "coding": [
              {
                "system": "http://terminology.hl7.org/CodeSystem/observation-category",
                "code": "laboratory"
              }
            ]
          }
        ],
        "code": {
          "coding": [
            {
              "code": "2028-9",
              "system": "http://loinc.org",
              "display": "Carbon dioxide, total [Moles/volume] in Serum or Plasma"
            }
          ],
          "text": "Carbon dioxide, total [Moles/volume] in Serum or Plasma"
        },
        "valueQuantity": {
          "system": "http://unitsofmeasure.org",
          "value": 20.3,
          "unit": "mmol/L",
          "code": "mmol/L"
        },
        "referenceRange": [
          {
            "low": {
              "value": 22,
              "code": "mmol/L",
              "system": "http://unitsofmeasure.org"
            }
          },
          {
            "high": {
              "value": 33,
              "code": "mmol/L",
              "system": "http://unitsofmeasure.org"
            }
          }
        ],
        "interpretation": [
          {
            "coding": [
              {
                "code": "L",
                "system": "http://terminology.hl7.org/CodeSystem/v3-ObservationInterpretation",
                "display": "Low"
              }
            ]
          }
        ],
        "text": {
          "status": "generated",
          "div": "<div xmlns=\"http://www.w3.org/1999/xhtml\"><table class=\"hl7__eu__lab__report\"><tr><th>Test</th><th>25-Dec-2020</th><th>Reference&#xA0;Range</th><th>Unit</th></tr><tr><td>Carbon dioxide, total [Moles/volume] in Serum or Plasma</td><td>20.3</td><td>22 - 33</td><td>L</td><td>mmol/L</td></tr></table></div>"
        },
        "status": "final",
        "subject": {
          "reference": "urn:uuid:8580a5ed-3438-407b-bc34-319fdcd718df",
          "display": "Victor Lagarde"
        },
        "effectiveDateTime": "2020-12-25T04:48:18Z",
        "specimen": {
          "reference": "urn:uuid:7d770201-9850-42cc-acc9-444d5f42c0b9"
        }
      }
    },
    {
      "fullUrl": "urn:uuid:afee7371-28c7-4410-a2d0-0a5418d28985",
      "resource": {
        "resourceType": "Observation",
        "id": "afee7371-28c7-4410-a2d0-0a5418d28985",
        "meta": {
          "profile": [
            "http://hl7.eu/fhir/laboratory/StructureDefinition/Observation-resultslab-eu-lab"
          ]
        },
        "performer": [
          {
            "display": "The Central European Lab"
          }
        ],
        "category": [
          {
            "coding": [
              {
                "system": "http://terminology.hl7.org/CodeSystem/observation-category",
                "code": "laboratory"
              }
            ]
          }
        ],
        "code": {
          "coding": [
            {
              "code": "5767-9",
              "system": "http://loinc.org",
              "display": "Appearance of Urine"
            }
          ],
          "text": "Appearance of Urine"
        },
        "text": {
          "status": "generated",
          "div": "<div xmlns=\"http://www.w3.org/1999/xhtml\"><table class=\"hl7__eu__lab__report\"><tr><th>Test</th><th>25-Dec-2020</th><th>Reference&#xA0;Range</th><th>Unit</th></tr><tr><td>Appearance of Urine</td></tr></table></div>"
        },
        "status": "final",
        "subject": {
          "reference": "urn:uuid:8580a5ed-3438-407b-bc34-319fdcd718df",
          "display": "Victor Lagarde"
        },
        "effectiveDateTime": "2020-12-25T04:48:18Z",
        "specimen": {
          "reference": "urn:uuid:b4e2070e-fef3-4e1f-9983-0540f7bc2689"
        }
      }
    },
    {
      "fullUrl": "urn:uuid:8907473b-7451-44c3-92e3-c8ff1878ee24",
      "resource": {
        "resourceType": "Observation",
        "id": "8907473b-7451-44c3-92e3-c8ff1878ee24",
        "meta": {
          "profile": [
            "http://hl7.eu/fhir/laboratory/StructureDefinition/Observation-resultslab-eu-lab"
          ]
        },
        "performer": [
          {
            "display": "The Central European Lab"
          }
        ],
        "category": [
          {
            "coding": [
              {
                "system": "http://terminology.hl7.org/CodeSystem/observation-category",
                "code": "laboratory"
              }
            ]
          }
        ],
        "code": {
          "coding": [
            {
              "code": "34533-0",
              "system": "http://loinc.org",
              "display": "Odor of Urine"
            }
          ],
          "text": "Odor of Urine"
        },
        "text": {
          "status": "generated",
          "div": "<div xmlns=\"http://www.w3.org/1999/xhtml\"><table class=\"hl7__eu__lab__report\"><tr><th>Test</th><th>25-Dec-2020</th><th>Reference&#xA0;Range</th><th>Unit</th></tr><tr><td>Odor of Urine</td></tr></table></div>"
        },
        "status": "final",
        "subject": {
          "reference": "urn:uuid:8580a5ed-3438-407b-bc34-319fdcd718df",
          "display": "Victor Lagarde"
        },
        "effectiveDateTime": "2020-12-25T04:48:18Z",
        "specimen": {
          "reference": "urn:uuid:b4e2070e-fef3-4e1f-9983-0540f7bc2689"
        }
      }
    },
    {
      "fullUrl": "urn:uuid:ea076952-a41e-4d18-8607-d1d054ecce0f",
      "resource": {
        "resourceType": "Observation",
        "id": "ea076952-a41e-4d18-8607-d1d054ecce0f",
        "meta": {
          "profile": [
            "http://hl7.eu/fhir/laboratory/StructureDefinition/Observation-resultslab-eu-lab"
          ]
        },
        "performer": [
          {
            "display": "The Central European Lab"
          }
        ],
        "category": [
          {
            "coding": [
              {
                "system": "http://terminology.hl7.org/CodeSystem/observation-category",
                "code": "laboratory"
              }
            ]
          }
        ],
        "code": {
          "coding": [
            {
              "code": "32167-9",
              "system": "http://loinc.org",
              "display": "Clarity of Urine"
            }
          ],
          "text": "Clarity of Urine"
        },
        "text": {
          "status": "generated",
          "div": "<div xmlns=\"http://www.w3.org/1999/xhtml\"><table class=\"hl7__eu__lab__report\"><tr><th>Test</th><th>25-Dec-2020</th><th>Reference&#xA0;Range</th><th>Unit</th></tr><tr><td>Clarity of Urine</td></tr></table></div>"
        },
        "status": "final",
        "subject": {
          "reference": "urn:uuid:8580a5ed-3438-407b-bc34-319fdcd718df",
          "display": "Victor Lagarde"
        },
        "effectiveDateTime": "2020-12-25T04:48:18Z",
        "specimen": {
          "reference": "urn:uuid:b4e2070e-fef3-4e1f-9983-0540f7bc2689"
        }
      }
    },
    {
      "fullUrl": "urn:uuid:658c06c3-6d26-442e-bcd8-40e459ffe260",
      "resource": {
        "resourceType": "Observation",
        "id": "658c06c3-6d26-442e-bcd8-40e459ffe260",
        "meta": {
          "profile": [
            "http://hl7.eu/fhir/laboratory/StructureDefinition/Observation-resultslab-eu-lab"
          ]
        },
        "performer": [
          {
            "display": "The Central European Lab"
          }
        ],
        "category": [
          {
            "coding": [
              {
                "system": "http://terminology.hl7.org/CodeSystem/observation-category",
                "code": "laboratory"
              }
            ]
          }
        ],
        "code": {
          "coding": [
            {
              "code": "5778-6",
              "system": "http://loinc.org",
              "display": "Color of Urine"
            }
          ],
          "text": "Color of Urine"
        },
        "text": {
          "status": "generated",
          "div": "<div xmlns=\"http://www.w3.org/1999/xhtml\"><table class=\"hl7__eu__lab__report\"><tr><th>Test</th><th>25-Dec-2020</th><th>Reference&#xA0;Range</th><th>Unit</th></tr><tr><td>Color of Urine</td></tr></table></div>"
        },
        "status": "final",
        "subject": {
          "reference": "urn:uuid:8580a5ed-3438-407b-bc34-319fdcd718df",
          "display": "Victor Lagarde"
        },
        "effectiveDateTime": "2020-12-25T04:48:18Z",
        "specimen": {
          "reference": "urn:uuid:b4e2070e-fef3-4e1f-9983-0540f7bc2689"
        }
      }
    },
    {
      "fullUrl": "urn:uuid:9d09a124-4033-45c1-a6ee-ec863d17b8e1",
      "resource": {
        "resourceType": "Observation",
        "id": "9d09a124-4033-45c1-a6ee-ec863d17b8e1",
        "meta": {
          "profile": [
            "http://hl7.eu/fhir/laboratory/StructureDefinition/Observation-resultslab-eu-lab"
          ]
        },
        "performer": [
          {
            "display": "The Central European Lab"
          }
        ],
        "category": [
          {
            "coding": [
              {
                "system": "http://terminology.hl7.org/CodeSystem/observation-category",
                "code": "laboratory"
              }
            ]
          }
        ],
        "code": {
          "coding": [
            {
              "code": "5792-7",
              "system": "http://loinc.org",
              "display": "Glucose [Mass/volume] in Urine by Test strip"
            }
          ],
          "text": "Glucose [Mass/volume] in Urine by Test strip"
        },
        "valueQuantity": {
          "system": "http://unitsofmeasure.org",
          "value": 0.5,
          "unit": "mg/dL",
          "code": "mg/dL"
        },
        "referenceRange": [
          {
            "low": {
              "value": 0,
              "code": "mg/dL",
              "system": "http://unitsofmeasure.org"
            }
          },
          {
            "high": {
              "value": 0.8,
              "code": "mg/dL",
              "system": "http://unitsofmeasure.org"
            }
          }
        ],
        "text": {
          "status": "generated",
          "div": "<div xmlns=\"http://www.w3.org/1999/xhtml\"><table class=\"hl7__eu__lab__report\"><tr><th>Test</th><th>25-Dec-2020</th><th>Reference&#xA0;Range</th><th>Unit</th></tr><tr><td>Glucose [Mass/volume] in Urine by Test strip</td><td>0.5</td><td>0 - 0.8</td><td></td><td>mg/dL</td></tr></table></div>"
        },
        "status": "final",
        "subject": {
          "reference": "urn:uuid:8580a5ed-3438-407b-bc34-319fdcd718df",
          "display": "Victor Lagarde"
        },
        "effectiveDateTime": "2020-12-25T04:48:18Z",
        "specimen": {
          "reference": "urn:uuid:b4e2070e-fef3-4e1f-9983-0540f7bc2689"
        }
      }
    },
    {
      "fullUrl": "urn:uuid:4996f833-b4f1-4482-8458-9d07a8c3b69d",
      "resource": {
        "resourceType": "Observation",
        "id": "4996f833-b4f1-4482-8458-9d07a8c3b69d",
        "meta": {
          "profile": [
            "http://hl7.eu/fhir/laboratory/StructureDefinition/Observation-resultslab-eu-lab"
          ]
        },
        "performer": [
          {
            "display": "The Central European Lab"
          }
        ],
        "category": [
          {
            "coding": [
              {
                "system": "http://terminology.hl7.org/CodeSystem/observation-category",
                "code": "laboratory"
              }
            ]
          }
        ],
        "code": {
          "coding": [
            {
              "code": "25428-4",
              "system": "http://loinc.org",
              "display": "Glucose [Presence] in Urine by Test strip"
            }
          ],
          "text": "Glucose [Presence] in Urine by Test strip"
        },
        "text": {
          "status": "generated",
          "div": "<div xmlns=\"http://www.w3.org/1999/xhtml\"><table class=\"hl7__eu__lab__report\"><tr><th>Test</th><th>25-Dec-2020</th><th>Reference&#xA0;Range</th><th>Unit</th></tr><tr><td>Glucose [Presence] in Urine by Test strip</td></tr></table></div>"
        },
        "status": "final",
        "subject": {
          "reference": "urn:uuid:8580a5ed-3438-407b-bc34-319fdcd718df",
          "display": "Victor Lagarde"
        },
        "effectiveDateTime": "2020-12-25T04:48:18Z",
        "specimen": {
          "reference": "urn:uuid:b4e2070e-fef3-4e1f-9983-0540f7bc2689"
        }
      }
    },
    {
      "fullUrl": "urn:uuid:d55f413d-4b43-4243-a945-317aed077f16",
      "resource": {
        "resourceType": "Observation",
        "id": "d55f413d-4b43-4243-a945-317aed077f16",
        "meta": {
          "profile": [
            "http://hl7.eu/fhir/laboratory/StructureDefinition/Observation-resultslab-eu-lab"
          ]
        },
        "performer": [
          {
            "display": "The Central European Lab"
          }
        ],
        "category": [
          {
            "coding": [
              {
                "system": "http://terminology.hl7.org/CodeSystem/observation-category",
                "code": "laboratory"
              }
            ]
          }
        ],
        "code": {
          "coding": [
            {
              "code": "20505-4",
              "system": "http://loinc.org",
              "display": "Bilirubin.total [Mass/volume] in Urine by Test strip"
            }
          ],
          "text": "Bilirubin.total [Mass/volume] in Urine by Test strip"
        },
        "valueQuantity": {
          "system": "http://unitsofmeasure.org",
          "value": 1.4,
          "unit": "mg/dL",
          "code": "mg/dL"
        },
        "referenceRange": [
          {
            "low": {
              "value": 0,
              "code": "mg/dL",
              "system": "http://unitsofmeasure.org"
            }
          },
          {
            "high": {
              "value": 1.9,
              "code": "mg/dL",
              "system": "http://unitsofmeasure.org"
            }
          }
        ],
        "text": {
          "status": "generated",
          "div": "<div xmlns=\"http://www.w3.org/1999/xhtml\"><table class=\"hl7__eu__lab__report\"><tr><th>Test</th><th>25-Dec-2020</th><th>Reference&#xA0;Range</th><th>Unit</th></tr><tr><td>Bilirubin.total [Mass/volume] in Urine by Test strip</td><td>1.4</td><td>0 - 1.9</td><td></td><td>mg/dL</td></tr></table></div>"
        },
        "status": "final",
        "subject": {
          "reference": "urn:uuid:8580a5ed-3438-407b-bc34-319fdcd718df",
          "display": "Victor Lagarde"
        },
        "effectiveDateTime": "2020-12-25T04:48:18Z",
        "specimen": {
          "reference": "urn:uuid:b4e2070e-fef3-4e1f-9983-0540f7bc2689"
        }
      }
    },
    {
      "fullUrl": "urn:uuid:78f14790-c93e-4431-a6db-67281f39092a",
      "resource": {
        "resourceType": "Observation",
        "id": "78f14790-c93e-4431-a6db-67281f39092a",
        "meta": {
          "profile": [
            "http://hl7.eu/fhir/laboratory/StructureDefinition/Observation-resultslab-eu-lab"
          ]
        },
        "performer": [
          {
            "display": "The Central European Lab"
          }
        ],
        "category": [
          {
            "coding": [
              {
                "system": "http://terminology.hl7.org/CodeSystem/observation-category",
                "code": "laboratory"
              }
            ]
          }
        ],
        "code": {
          "coding": [
            {
              "code": "5770-3",
              "system": "http://loinc.org",
              "display": "Bilirubin.total [Presence] in Urine by Test strip"
            }
          ],
          "text": "Bilirubin.total [Presence] in Urine by Test strip"
        },
        "text": {
          "status": "generated",
          "div": "<div xmlns=\"http://www.w3.org/1999/xhtml\"><table class=\"hl7__eu__lab__report\"><tr><th>Test</th><th>25-Dec-2020</th><th>Reference&#xA0;Range</th><th>Unit</th></tr><tr><td>Bilirubin.total [Presence] in Urine by Test strip</td></tr></table></div>"
        },
        "status": "final",
        "subject": {
          "reference": "urn:uuid:8580a5ed-3438-407b-bc34-319fdcd718df",
          "display": "Victor Lagarde"
        },
        "effectiveDateTime": "2020-12-25T04:48:18Z",
        "specimen": {
          "reference": "urn:uuid:b4e2070e-fef3-4e1f-9983-0540f7bc2689"
        }
      }
    },
    {
      "fullUrl": "urn:uuid:bafa8e53-fd83-491e-82d5-54549592cc45",
      "resource": {
        "resourceType": "Observation",
        "id": "bafa8e53-fd83-491e-82d5-54549592cc45",
        "meta": {
          "profile": [
            "http://hl7.eu/fhir/laboratory/StructureDefinition/Observation-resultslab-eu-lab"
          ]
        },
        "performer": [
          {
            "display": "The Central European Lab"
          }
        ],
        "category": [
          {
            "coding": [
              {
                "system": "http://terminology.hl7.org/CodeSystem/observation-category",
                "code": "laboratory"
              }
            ]
          }
        ],
        "code": {
          "coding": [
            {
              "code": "5797-6",
              "system": "http://loinc.org",
              "display": "Ketones [Mass/volume] in Urine by Test strip"
            }
          ],
          "text": "Ketones [Mass/volume] in Urine by Test strip"
        },
        "valueQuantity": {
          "system": "http://unitsofmeasure.org",
          "value": 10.4,
          "unit": "mg/dL",
          "code": "mg/dL"
        },
        "referenceRange": [
          {
            "low": {
              "value": 0,
              "code": "mg/dL",
              "system": "http://unitsofmeasure.org"
            }
          },
          {
            "high": {
              "value": 3,
              "code": "mg/dL",
              "system": "http://unitsofmeasure.org"
            }
          }
        ],
        "interpretation": [
          {
            "coding": [
              {
                "code": "H",
                "system": "http://terminology.hl7.org/CodeSystem/v3-ObservationInterpretation",
                "display": "High"
              }
            ]
          }
        ],
        "text": {
          "status": "generated",
          "div": "<div xmlns=\"http://www.w3.org/1999/xhtml\"><table class=\"hl7__eu__lab__report\"><tr><th>Test</th><th>25-Dec-2020</th><th>Reference&#xA0;Range</th><th>Unit</th></tr><tr><td>Ketones [Mass/volume] in Urine by Test strip</td><td>10.4</td><td>0 - 3</td><td>H</td><td>mg/dL</td></tr></table></div>"
        },
        "status": "final",
        "subject": {
          "reference": "urn:uuid:8580a5ed-3438-407b-bc34-319fdcd718df",
          "display": "Victor Lagarde"
        },
        "effectiveDateTime": "2020-12-25T04:48:18Z",
        "specimen": {
          "reference": "urn:uuid:b4e2070e-fef3-4e1f-9983-0540f7bc2689"
        }
      }
    },
    {
      "fullUrl": "urn:uuid:47527ba7-518f-4aea-b2b2-fc31bfab55b0",
      "resource": {
        "resourceType": "Observation",
        "id": "47527ba7-518f-4aea-b2b2-fc31bfab55b0",
        "meta": {
          "profile": [
            "http://hl7.eu/fhir/laboratory/StructureDefinition/Observation-resultslab-eu-lab"
          ]
        },
        "performer": [
          {
            "display": "The Central European Lab"
          }
        ],
        "category": [
          {
            "coding": [
              {
                "system": "http://terminology.hl7.org/CodeSystem/observation-category",
                "code": "laboratory"
              }
            ]
          }
        ],
        "code": {
          "coding": [
            {
              "code": "2514-8",
              "system": "http://loinc.org",
              "display": "Ketones [Presence] in Urine by Test strip"
            }
          ],
          "text": "Ketones [Presence] in Urine by Test strip"
        },
        "text": {
          "status": "generated",
          "div": "<div xmlns=\"http://www.w3.org/1999/xhtml\"><table class=\"hl7__eu__lab__report\"><tr><th>Test</th><th>25-Dec-2020</th><th>Reference&#xA0;Range</th><th>Unit</th></tr><tr><td>Ketones [Presence] in Urine by Test strip</td></tr></table></div>"
        },
        "status": "final",
        "subject": {
          "reference": "urn:uuid:8580a5ed-3438-407b-bc34-319fdcd718df",
          "display": "Victor Lagarde"
        },
        "effectiveDateTime": "2020-12-25T04:48:18Z",
        "specimen": {
          "reference": "urn:uuid:b4e2070e-fef3-4e1f-9983-0540f7bc2689"
        }
      }
    },
    {
      "fullUrl": "urn:uuid:098f4871-0219-405e-bc1a-3bd45a2062cc",
      "resource": {
        "resourceType": "Observation",
        "id": "098f4871-0219-405e-bc1a-3bd45a2062cc",
        "meta": {
          "profile": [
            "http://hl7.eu/fhir/laboratory/StructureDefinition/Observation-resultslab-eu-lab"
          ]
        },
        "performer": [
          {
            "display": "The Central European Lab"
          }
        ],
        "category": [
          {
            "coding": [
              {
                "system": "http://terminology.hl7.org/CodeSystem/observation-category",
                "code": "laboratory"
              }
            ]
          }
        ],
        "code": {
          "coding": [
            {
              "code": "5811-5",
              "system": "http://loinc.org",
              "display": "Specific gravity of Urine by Test strip"
            }
          ],
          "text": "Specific gravity of Urine by Test strip"
        },
        "valueQuantity": {
          "system": "http://unitsofmeasure.org",
          "value": 1,
          "unit": "{nominal}",
          "code": "{nominal}"
        },
        "referenceRange": [
          {
            "low": {
              "value": 1.01,
              "code": "g/mL",
              "system": "http://unitsofmeasure.org"
            }
          },
          {
            "high": {
              "value": 1.03,
              "code": "g/mL",
              "system": "http://unitsofmeasure.org"
            }
          }
        ],
        "interpretation": [
          {
            "coding": [
              {
                "code": "L",
                "system": "http://terminology.hl7.org/CodeSystem/v3-ObservationInterpretation",
                "display": "Low"
              }
            ]
          }
        ],
        "text": {
          "status": "generated",
          "div": "<div xmlns=\"http://www.w3.org/1999/xhtml\"><table class=\"hl7__eu__lab__report\"><tr><th>Test</th><th>25-Dec-2020</th><th>Reference&#xA0;Range</th><th>Unit</th></tr><tr><td>Specific gravity of Urine by Test strip</td><td>1.0</td><td>1.01 - 1.03</td><td>L</td><td>{nominal}</td></tr></table></div>"
        },
        "status": "final",
        "subject": {
          "reference": "urn:uuid:8580a5ed-3438-407b-bc34-319fdcd718df",
          "display": "Victor Lagarde"
        },
        "effectiveDateTime": "2020-12-25T04:48:18Z",
        "specimen": {
          "reference": "urn:uuid:b4e2070e-fef3-4e1f-9983-0540f7bc2689"
        }
      }
    },
    {
      "fullUrl": "urn:uuid:b6451337-3ee2-4f83-91d5-37ae0d219aec",
      "resource": {
        "resourceType": "Observation",
        "id": "b6451337-3ee2-4f83-91d5-37ae0d219aec",
        "meta": {
          "profile": [
            "http://hl7.eu/fhir/laboratory/StructureDefinition/Observation-resultslab-eu-lab"
          ]
        },
        "performer": [
          {
            "display": "The Central European Lab"
          }
        ],
        "category": [
          {
            "coding": [
              {
                "system": "http://terminology.hl7.org/CodeSystem/observation-category",
                "code": "laboratory"
              }
            ]
          }
        ],
        "code": {
          "coding": [
            {
              "code": "5803-2",
              "system": "http://loinc.org",
              "display": "pH of Urine by Test strip"
            }
          ],
          "text": "pH of Urine by Test strip"
        },
        "valueQuantity": {
          "system": "http://unitsofmeasure.org",
          "value": 6.2,
          "unit": "pH",
          "code": "pH"
        },
        "referenceRange": [
          {
            "low": {
              "value": 4.5,
              "code": "pH",
              "system": "http://unitsofmeasure.org"
            }
          },
          {
            "high": {
              "value": 7.5,
              "code": "pH",
              "system": "http://unitsofmeasure.org"
            }
          }
        ],
        "text": {
          "status": "generated",
          "div": "<div xmlns=\"http://www.w3.org/1999/xhtml\"><table class=\"hl7__eu__lab__report\"><tr><th>Test</th><th>25-Dec-2020</th><th>Reference&#xA0;Range</th><th>Unit</th></tr><tr><td>pH of Urine by Test strip</td><td>6.2</td><td>4.5 - 7.5</td><td></td><td>pH</td></tr></table></div>"
        },
        "status": "final",
        "subject": {
          "reference": "urn:uuid:8580a5ed-3438-407b-bc34-319fdcd718df",
          "display": "Victor Lagarde"
        },
        "effectiveDateTime": "2020-12-25T04:48:18Z",
        "specimen": {
          "reference": "urn:uuid:b4e2070e-fef3-4e1f-9983-0540f7bc2689"
        }
      }
    },
    {
      "fullUrl": "urn:uuid:7c729f60-f681-4435-84ec-3457abd8140c",
      "resource": {
        "resourceType": "Observation",
        "id": "7c729f60-f681-4435-84ec-3457abd8140c",
        "meta": {
          "profile": [
            "http://hl7.eu/fhir/laboratory/StructureDefinition/Observation-resultslab-eu-lab"
          ]
        },
        "performer": [
          {
            "display": "The Central European Lab"
          }
        ],
        "category": [
          {
            "coding": [
              {
                "system": "http://terminology.hl7.org/CodeSystem/observation-category",
                "code": "laboratory"
              }
            ]
          }
        ],
        "code": {
          "coding": [
            {
              "code": "5804-0",
              "system": "http://loinc.org",
              "display": "Protein [Mass/volume] in Urine by Test strip"
            }
          ],
          "text": "Protein [Mass/volume] in Urine by Test strip"
        },
        "valueQuantity": {
          "system": "http://unitsofmeasure.org",
          "value": 276,
          "unit": "mg/dL",
          "code": "mg/dL"
        },
        "referenceRange": [
          {
            "low": {
              "value": 0,
              "code": "mg/dL",
              "system": "http://unitsofmeasure.org"
            }
          },
          {
            "high": {
              "value": 149,
              "code": "mg/dL",
              "system": "http://unitsofmeasure.org"
            }
          }
        ],
        "interpretation": [
          {
            "coding": [
              {
                "code": "H",
                "system": "http://terminology.hl7.org/CodeSystem/v3-ObservationInterpretation",
                "display": "High"
              }
            ]
          }
        ],
        "text": {
          "status": "generated",
          "div": "<div xmlns=\"http://www.w3.org/1999/xhtml\"><table class=\"hl7__eu__lab__report\"><tr><th>Test</th><th>25-Dec-2020</th><th>Reference&#xA0;Range</th><th>Unit</th></tr><tr><td>Protein [Mass/volume] in Urine by Test strip</td><td>276.0</td><td>0 - 149</td><td>H</td><td>mg/dL</td></tr></table></div>"
        },
        "status": "final",
        "subject": {
          "reference": "urn:uuid:8580a5ed-3438-407b-bc34-319fdcd718df",
          "display": "Victor Lagarde"
        },
        "effectiveDateTime": "2020-12-25T04:48:18Z",
        "specimen": {
          "reference": "urn:uuid:b4e2070e-fef3-4e1f-9983-0540f7bc2689"
        }
      }
    },
    {
      "fullUrl": "urn:uuid:920cc1fc-d46f-47be-8b14-00bac0decdc7",
      "resource": {
        "resourceType": "Observation",
        "id": "920cc1fc-d46f-47be-8b14-00bac0decdc7",
        "meta": {
          "profile": [
            "http://hl7.eu/fhir/laboratory/StructureDefinition/Observation-resultslab-eu-lab"
          ]
        },
        "performer": [
          {
            "display": "The Central European Lab"
          }
        ],
        "category": [
          {
            "coding": [
              {
                "system": "http://terminology.hl7.org/CodeSystem/observation-category",
                "code": "laboratory"
              }
            ]
          }
        ],
        "code": {
          "coding": [
            {
              "code": "20454-5",
              "system": "http://loinc.org",
              "display": "Protein [Presence] in Urine by Test strip"
            }
          ],
          "text": "Protein [Presence] in Urine by Test strip"
        },
        "text": {
          "status": "generated",
          "div": "<div xmlns=\"http://www.w3.org/1999/xhtml\"><table class=\"hl7__eu__lab__report\"><tr><th>Test</th><th>25-Dec-2020</th><th>Reference&#xA0;Range</th><th>Unit</th></tr><tr><td>Protein [Presence] in Urine by Test strip</td></tr></table></div>"
        },
        "status": "final",
        "subject": {
          "reference": "urn:uuid:8580a5ed-3438-407b-bc34-319fdcd718df",
          "display": "Victor Lagarde"
        },
        "effectiveDateTime": "2020-12-25T04:48:18Z",
        "specimen": {
          "reference": "urn:uuid:b4e2070e-fef3-4e1f-9983-0540f7bc2689"
        }
      }
    },
    {
      "fullUrl": "urn:uuid:7b6e1f3d-a410-4baa-a439-77690c81a9d8",
      "resource": {
        "resourceType": "Observation",
        "id": "7b6e1f3d-a410-4baa-a439-77690c81a9d8",
        "meta": {
          "profile": [
            "http://hl7.eu/fhir/laboratory/StructureDefinition/Observation-resultslab-eu-lab"
          ]
        },
        "performer": [
          {
            "display": "The Central European Lab"
          }
        ],
        "category": [
          {
            "coding": [
              {
                "system": "http://terminology.hl7.org/CodeSystem/observation-category",
                "code": "laboratory"
              }
            ]
          }
        ],
        "code": {
          "coding": [
            {
              "code": "5802-4",
              "system": "http://loinc.org",
              "display": "Nitrite [Presence] in Urine by Test strip"
            }
          ],
          "text": "Nitrite [Presence] in Urine by Test strip"
        },
        "text": {
          "status": "generated",
          "div": "<div xmlns=\"http://www.w3.org/1999/xhtml\"><table class=\"hl7__eu__lab__report\"><tr><th>Test</th><th>25-Dec-2020</th><th>Reference&#xA0;Range</th><th>Unit</th></tr><tr><td>Nitrite [Presence] in Urine by Test strip</td></tr></table></div>"
        },
        "status": "final",
        "subject": {
          "reference": "urn:uuid:8580a5ed-3438-407b-bc34-319fdcd718df",
          "display": "Victor Lagarde"
        },
        "effectiveDateTime": "2020-12-25T04:48:18Z",
        "specimen": {
          "reference": "urn:uuid:b4e2070e-fef3-4e1f-9983-0540f7bc2689"
        }
      }
    },
    {
      "fullUrl": "urn:uuid:9d9eae31-3115-4fef-8b17-fb8023a8d10b",
      "resource": {
        "resourceType": "Observation",
        "id": "9d9eae31-3115-4fef-8b17-fb8023a8d10b",
        "meta": {
          "profile": [
            "http://hl7.eu/fhir/laboratory/StructureDefinition/Observation-resultslab-eu-lab"
          ]
        },
        "performer": [
          {
            "display": "The Central European Lab"
          }
        ],
        "category": [
          {
            "coding": [
              {
                "system": "http://terminology.hl7.org/CodeSystem/observation-category",
                "code": "laboratory"
              }
            ]
          }
        ],
        "code": {
          "coding": [
            {
              "code": "5794-3",
              "system": "http://loinc.org",
              "display": "Hemoglobin [Presence] in Urine by Test strip"
            }
          ],
          "text": "Hemoglobin [Presence] in Urine by Test strip"
        },
        "text": {
          "status": "generated",
          "div": "<div xmlns=\"http://www.w3.org/1999/xhtml\"><table class=\"hl7__eu__lab__report\"><tr><th>Test</th><th>25-Dec-2020</th><th>Reference&#xA0;Range</th><th>Unit</th></tr><tr><td>Hemoglobin [Presence] in Urine by Test strip</td></tr></table></div>"
        },
        "status": "final",
        "subject": {
          "reference": "urn:uuid:8580a5ed-3438-407b-bc34-319fdcd718df",
          "display": "Victor Lagarde"
        },
        "effectiveDateTime": "2020-12-25T04:48:18Z",
        "specimen": {
          "reference": "urn:uuid:b4e2070e-fef3-4e1f-9983-0540f7bc2689"
        }
      }
    },
    {
      "fullUrl": "urn:uuid:daac7921-8484-4f98-abbc-947cbc14bc9a",
      "resource": {
        "resourceType": "Observation",
        "id": "daac7921-8484-4f98-abbc-947cbc14bc9a",
        "meta": {
          "profile": [
            "http://hl7.eu/fhir/laboratory/StructureDefinition/Observation-resultslab-eu-lab"
          ]
        },
        "performer": [
          {
            "display": "The Central European Lab"
          }
        ],
        "category": [
          {
            "coding": [
              {
                "system": "http://terminology.hl7.org/CodeSystem/observation-category",
                "code": "laboratory"
              }
            ]
          }
        ],
        "code": {
          "coding": [
            {
              "code": "5799-2",
              "system": "http://loinc.org",
              "display": "Leukocyte esterase [Presence] in Urine by Test strip"
            }
          ],
          "text": "Leukocyte esterase [Presence] in Urine by Test strip"
        },
        "text": {
          "status": "generated",
          "div": "<div xmlns=\"http://www.w3.org/1999/xhtml\"><table class=\"hl7__eu__lab__report\"><tr><th>Test</th><th>25-Dec-2020</th><th>Reference&#xA0;Range</th><th>Unit</th></tr><tr><td>Leukocyte esterase [Presence] in Urine by Test strip</td></tr></table></div>"
        },
        "status": "final",
        "subject": {
          "reference": "urn:uuid:8580a5ed-3438-407b-bc34-319fdcd718df",
          "display": "Victor Lagarde"
        },
        "effectiveDateTime": "2020-12-25T04:48:18Z",
        "specimen": {
          "reference": "urn:uuid:b4e2070e-fef3-4e1f-9983-0540f7bc2689"
        }
      }
    },
    {
      "fullUrl": "urn:uuid:2763b8a4-465a-478d-9800-759b8e9feafe",
      "resource": {
        "resourceType": "Observation",
        "id": "2763b8a4-465a-478d-9800-759b8e9feafe",
        "meta": {
          "profile": [
            "http://hl7.eu/fhir/laboratory/StructureDefinition/Observation-resultslab-eu-lab"
          ]
        },
        "performer": [
          {
            "display": "The Central European Lab"
          }
        ],
        "category": [
          {
            "coding": [
              {
                "system": "http://terminology.hl7.org/CodeSystem/observation-category",
                "code": "laboratory"
              }
            ]
          }
        ],
        "code": {
          "coding": [
            {
              "code": "4548-4",
              "system": "http://loinc.org",
              "display": "Hemoglobin A1c/Hemoglobin.total in Blood"
            }
          ],
          "text": "Hemoglobin A1c/Hemoglobin.total in Blood"
        },
        "valueQuantity": {
          "system": "http://unitsofmeasure.org",
          "value": 3.2,
          "unit": "%",
          "code": "%"
        },
        "referenceRange": [
          {
            "low": {
              "value": 4.3,
              "code": "%",
              "system": "http://unitsofmeasure.org"
            }
          },
          {
            "high": {
              "value": 6,
              "code": "%",
              "system": "http://unitsofmeasure.org"
            }
          }
        ],
        "interpretation": [
          {
            "coding": [
              {
                "code": "L",
                "system": "http://terminology.hl7.org/CodeSystem/v3-ObservationInterpretation",
                "display": "Low"
              }
            ]
          }
        ],
        "text": {
          "status": "generated",
          "div": "<div xmlns=\"http://www.w3.org/1999/xhtml\"><table class=\"hl7__eu__lab__report\"><tr><th>Test</th><th>25-Dec-2020</th><th>Reference&#xA0;Range</th><th>Unit</th></tr><tr><td>Hemoglobin A1c/Hemoglobin.total in Blood</td><td>3.2</td><td>4.3 - 6</td><td>L</td><td>%</td></tr></table></div>"
        },
        "status": "final",
        "subject": {
          "reference": "urn:uuid:8580a5ed-3438-407b-bc34-319fdcd718df",
          "display": "Victor Lagarde"
        },
        "effectiveDateTime": "2020-12-25T04:48:18Z",
        "specimen": {
          "reference": "urn:uuid:ce3432ba-6629-4444-af0b-244c0acf33c2"
        }
      }
    },
    {
      "fullUrl": "urn:uuid:fb4b3dbe-f217-4c27-8b1d-6fe34a819590",
      "resource": {
        "resourceType": "Observation",
        "id": "fb4b3dbe-f217-4c27-8b1d-6fe34a819590",
        "meta": {
          "profile": [
            "http://hl7.eu/fhir/laboratory/StructureDefinition/Observation-resultslab-eu-lab"
          ]
        },
        "performer": [
          {
            "display": "The Central European Lab"
          }
        ],
        "category": [
          {
            "coding": [
              {
                "system": "http://terminology.hl7.org/CodeSystem/observation-category",
                "code": "laboratory"
              }
            ]
          }
        ],
        "code": {
          "coding": [
            {
              "code": "2339-0",
              "system": "http://loinc.org",
              "display": "Glucose [Mass/volume] in Blood"
            }
          ],
          "text": "Glucose [Mass/volume] in Blood"
        },
        "valueQuantity": {
          "system": "http://unitsofmeasure.org",
          "value": 74.5,
          "unit": "mg/dL",
          "code": "mg/dL"
        },
        "referenceRange": [
          {
            "low": {
              "value": 70,
              "code": "mg/dL",
              "system": "http://unitsofmeasure.org"
            }
          },
          {
            "high": {
              "value": 140,
              "code": "mg/dL",
              "system": "http://unitsofmeasure.org"
            }
          }
        ],
        "text": {
          "status": "generated",
          "div": "<div xmlns=\"http://www.w3.org/1999/xhtml\"><table class=\"hl7__eu__lab__report\"><tr><th>Test</th><th>25-Dec-2020</th><th>Reference&#xA0;Range</th><th>Unit</th></tr><tr><td>Glucose [Mass/volume] in Blood</td><td>74.5</td><td>70 - 140</td><td></td><td>mg/dL</td></tr></table></div>"
        },
        "status": "final",
        "subject": {
          "reference": "urn:uuid:8580a5ed-3438-407b-bc34-319fdcd718df",
          "display": "Victor Lagarde"
        },
        "effectiveDateTime": "2020-12-25T04:48:18Z",
        "specimen": {
          "reference": "urn:uuid:ce3432ba-6629-4444-af0b-244c0acf33c2"
        }
      }
    },
    {
      "fullUrl": "urn:uuid:b6a17ef5-064d-4240-bb2c-725faccfd7a5",
      "resource": {
        "resourceType": "Observation",
        "id": "b6a17ef5-064d-4240-bb2c-725faccfd7a5",
        "meta": {
          "profile": [
            "http://hl7.eu/fhir/laboratory/StructureDefinition/Observation-resultslab-eu-lab"
          ]
        },
        "performer": [
          {
            "display": "The Central European Lab"
          }
        ],
        "category": [
          {
            "coding": [
              {
                "system": "http://terminology.hl7.org/CodeSystem/observation-category",
                "code": "laboratory"
              }
            ]
          }
        ],
        "code": {
          "coding": [
            {
              "code": "6299-2",
              "system": "http://loinc.org",
              "display": "Urea nitrogen [Mass/volume] in Blood"
            }
          ],
          "text": "Urea nitrogen [Mass/volume] in Blood"
        },
        "valueQuantity": {
          "system": "http://unitsofmeasure.org",
          "value": 8.8,
          "unit": "mg/dL",
          "code": "mg/dL"
        },
        "referenceRange": [
          {
            "low": {
              "value": 7,
              "code": "mg/dL",
              "system": "http://unitsofmeasure.org"
            }
          },
          {
            "high": {
              "value": 20,
              "code": "mg/dL",
              "system": "http://unitsofmeasure.org"
            }
          }
        ],
        "text": {
          "status": "generated",
          "div": "<div xmlns=\"http://www.w3.org/1999/xhtml\"><table class=\"hl7__eu__lab__report\"><tr><th>Test</th><th>25-Dec-2020</th><th>Reference&#xA0;Range</th><th>Unit</th></tr><tr><td>Urea nitrogen [Mass/volume] in Blood</td><td>8.8</td><td>7 - 20</td><td></td><td>mg/dL</td></tr></table></div>"
        },
        "status": "final",
        "subject": {
          "reference": "urn:uuid:8580a5ed-3438-407b-bc34-319fdcd718df",
          "display": "Victor Lagarde"
        },
        "effectiveDateTime": "2020-12-25T04:48:18Z",
        "specimen": {
          "reference": "urn:uuid:ce3432ba-6629-4444-af0b-244c0acf33c2"
        }
      }
    },
    {
      "fullUrl": "urn:uuid:5669bf36-0f3c-4203-9da2-f2e1ad5f7795",
      "resource": {
        "resourceType": "Observation",
        "id": "5669bf36-0f3c-4203-9da2-f2e1ad5f7795",
        "meta": {
          "profile": [
            "http://hl7.eu/fhir/laboratory/StructureDefinition/Observation-resultslab-eu-lab"
          ]
        },
        "performer": [
          {
            "display": "The Central European Lab"
          }
        ],
        "category": [
          {
            "coding": [
              {
                "system": "http://terminology.hl7.org/CodeSystem/observation-category",
                "code": "laboratory"
              }
            ]
          }
        ],
        "code": {
          "coding": [
            {
              "code": "38483-4",
              "system": "http://loinc.org",
              "display": "Creatinine [Mass/volume] in Blood"
            }
          ],
          "text": "Creatinine [Mass/volume] in Blood"
        },
        "valueQuantity": {
          "system": "http://unitsofmeasure.org",
          "value": 2.6,
          "unit": "mg/dL",
          "code": "mg/dL"
        },
        "referenceRange": [
          {
            "low": {
              "value": 0.9,
              "code": "mg/dL",
              "system": "http://unitsofmeasure.org"
            }
          },
          {
            "high": {
              "value": 1.3,
              "code": "mg/dL",
              "system": "http://unitsofmeasure.org"
            }
          }
        ],
        "interpretation": [
          {
            "coding": [
              {
                "code": "H",
                "system": "http://terminology.hl7.org/CodeSystem/v3-ObservationInterpretation",
                "display": "High"
              }
            ]
          }
        ],
        "text": {
          "status": "generated",
          "div": "<div xmlns=\"http://www.w3.org/1999/xhtml\"><table class=\"hl7__eu__lab__report\"><tr><th>Test</th><th>25-Dec-2020</th><th>Reference&#xA0;Range</th><th>Unit</th></tr><tr><td>Creatinine [Mass/volume] in Blood</td><td>2.6</td><td>0.9 - 1.3</td><td>H</td><td>mg/dL</td></tr></table></div>"
        },
        "status": "final",
        "subject": {
          "reference": "urn:uuid:8580a5ed-3438-407b-bc34-319fdcd718df",
          "display": "Victor Lagarde"
        },
        "effectiveDateTime": "2020-12-25T04:48:18Z",
        "specimen": {
          "reference": "urn:uuid:ce3432ba-6629-4444-af0b-244c0acf33c2"
        }
      }
    },
    {
      "fullUrl": "urn:uuid:c806e5ea-61e1-42ca-ad35-5ebcf7e27f97",
      "resource": {
        "resourceType": "Observation",
        "id": "c806e5ea-61e1-42ca-ad35-5ebcf7e27f97",
        "meta": {
          "profile": [
            "http://hl7.eu/fhir/laboratory/StructureDefinition/Observation-resultslab-eu-lab"
          ]
        },
        "performer": [
          {
            "display": "The Central European Lab"
          }
        ],
        "category": [
          {
            "coding": [
              {
                "system": "http://terminology.hl7.org/CodeSystem/observation-category",
                "code": "laboratory"
              }
            ]
          }
        ],
        "code": {
          "coding": [
            {
              "code": "49765-1",
              "system": "http://loinc.org",
              "display": "Calcium [Mass/volume] in Blood"
            }
          ],
          "text": "Calcium [Mass/volume] in Blood"
        },
        "valueQuantity": {
          "system": "http://unitsofmeasure.org",
          "value": 9.1,
          "unit": "mg/dL",
          "code": "mg/dL"
        },
        "referenceRange": [
          {
            "low": {
              "value": 8.5,
              "code": "mg/dL",
              "system": "http://unitsofmeasure.org"
            }
          },
          {
            "high": {
              "value": 10.5,
              "code": "mg/dL",
              "system": "http://unitsofmeasure.org"
            }
          }
        ],
        "text": {
          "status": "generated",
          "div": "<div xmlns=\"http://www.w3.org/1999/xhtml\"><table class=\"hl7__eu__lab__report\"><tr><th>Test</th><th>25-Dec-2020</th><th>Reference&#xA0;Range</th><th>Unit</th></tr><tr><td>Calcium [Mass/volume] in Blood</td><td>9.1</td><td>8.5 - 10.5</td><td></td><td>mg/dL</td></tr></table></div>"
        },
        "status": "final",
        "subject": {
          "reference": "urn:uuid:8580a5ed-3438-407b-bc34-319fdcd718df",
          "display": "Victor Lagarde"
        },
        "effectiveDateTime": "2020-12-25T04:48:18Z",
        "specimen": {
          "reference": "urn:uuid:ce3432ba-6629-4444-af0b-244c0acf33c2"
        }
      }
    },
    {
      "fullUrl": "urn:uuid:76e47e59-d9f5-4932-a787-68fbdf706211",
      "resource": {
        "resourceType": "Observation",
        "id": "76e47e59-d9f5-4932-a787-68fbdf706211",
        "meta": {
          "profile": [
            "http://hl7.eu/fhir/laboratory/StructureDefinition/Observation-resultslab-eu-lab"
          ]
        },
        "performer": [
          {
            "display": "The Central European Lab"
          }
        ],
        "category": [
          {
            "coding": [
              {
                "system": "http://terminology.hl7.org/CodeSystem/observation-category",
                "code": "laboratory"
              }
            ]
          }
        ],
        "code": {
          "coding": [
            {
              "code": "2947-0",
              "system": "http://loinc.org",
              "display": "Sodium [Moles/volume] in Blood"
            }
          ],
          "text": "Sodium [Moles/volume] in Blood"
        },
        "valueQuantity": {
          "system": "http://unitsofmeasure.org",
          "value": 138.1,
          "unit": "mmol/L",
          "code": "mmol/L"
        },
        "referenceRange": [
          {
            "low": {
              "value": 135,
              "code": "mmol/L",
              "system": "http://unitsofmeasure.org"
            }
          },
          {
            "high": {
              "value": 145,
              "code": "mmol/L",
              "system": "http://unitsofmeasure.org"
            }
          }
        ],
        "text": {
          "status": "generated",
          "div": "<div xmlns=\"http://www.w3.org/1999/xhtml\"><table class=\"hl7__eu__lab__report\"><tr><th>Test</th><th>25-Dec-2020</th><th>Reference&#xA0;Range</th><th>Unit</th></tr><tr><td>Sodium [Moles/volume] in Blood</td><td>138.1</td><td>135 - 145</td><td></td><td>mmol/L</td></tr></table></div>"
        },
        "status": "final",
        "subject": {
          "reference": "urn:uuid:8580a5ed-3438-407b-bc34-319fdcd718df",
          "display": "Victor Lagarde"
        },
        "effectiveDateTime": "2020-12-25T04:48:18Z",
        "specimen": {
          "reference": "urn:uuid:ce3432ba-6629-4444-af0b-244c0acf33c2"
        }
      }
    },
    {
      "fullUrl": "urn:uuid:b90460eb-8fac-4344-a697-3486b37e580e",
      "resource": {
        "resourceType": "Observation",
        "id": "b90460eb-8fac-4344-a697-3486b37e580e",
        "meta": {
          "profile": [
            "http://hl7.eu/fhir/laboratory/StructureDefinition/Observation-resultslab-eu-lab"
          ]
        },
        "performer": [
          {
            "display": "The Central European Lab"
          }
        ],
        "category": [
          {
            "coding": [
              {
                "system": "http://terminology.hl7.org/CodeSystem/observation-category",
                "code": "laboratory"
              }
            ]
          }
        ],
        "code": {
          "coding": [
            {
              "code": "6298-4",
              "system": "http://loinc.org",
              "display": "Potassium [Moles/volume] in Blood"
            }
          ],
          "text": "Potassium [Moles/volume] in Blood"
        },
        "valueQuantity": {
          "system": "http://unitsofmeasure.org",
          "value": 3.9,
          "unit": "mmol/L",
          "code": "mmol/L"
        },
        "referenceRange": [
          {
            "low": {
              "value": 3.5,
              "code": "mmol/L",
              "system": "http://unitsofmeasure.org"
            }
          },
          {
            "high": {
              "value": 5.1,
              "code": "mmol/L",
              "system": "http://unitsofmeasure.org"
            }
          }
        ],
        "text": {
          "status": "generated",
          "div": "<div xmlns=\"http://www.w3.org/1999/xhtml\"><table class=\"hl7__eu__lab__report\"><tr><th>Test</th><th>25-Dec-2020</th><th>Reference&#xA0;Range</th><th>Unit</th></tr><tr><td>Potassium [Moles/volume] in Blood</td><td>3.9</td><td>3.5 - 5.1</td><td></td><td>mmol/L</td></tr></table></div>"
        },
        "status": "final",
        "subject": {
          "reference": "urn:uuid:8580a5ed-3438-407b-bc34-319fdcd718df",
          "display": "Victor Lagarde"
        },
        "effectiveDateTime": "2020-12-25T04:48:18Z",
        "specimen": {
          "reference": "urn:uuid:ce3432ba-6629-4444-af0b-244c0acf33c2"
        }
      }
    },
    {
      "fullUrl": "urn:uuid:946af9ca-af13-4b44-9936-31b0ac613968",
      "resource": {
        "resourceType": "Observation",
        "id": "946af9ca-af13-4b44-9936-31b0ac613968",
        "meta": {
          "profile": [
            "http://hl7.eu/fhir/laboratory/StructureDefinition/Observation-resultslab-eu-lab"
          ]
        },
        "performer": [
          {
            "display": "The Central European Lab"
          }
        ],
        "category": [
          {
            "coding": [
              {
                "system": "http://terminology.hl7.org/CodeSystem/observation-category",
                "code": "laboratory"
              }
            ]
          }
        ],
        "code": {
          "coding": [
            {
              "code": "2069-3",
              "system": "http://loinc.org",
              "display": "Chloride [Moles/volume] in Blood"
            }
          ],
          "text": "Chloride [Moles/volume] in Blood"
        },
        "valueQuantity": {
          "system": "http://unitsofmeasure.org",
          "value": 102.6,
          "unit": "mmol/L",
          "code": "mmol/L"
        },
        "referenceRange": [
          {
            "low": {
              "value": 98,
              "code": "mmol/L",
              "system": "http://unitsofmeasure.org"
            }
          },
          {
            "high": {
              "value": 108,
              "code": "mmol/L",
              "system": "http://unitsofmeasure.org"
            }
          }
        ],
        "text": {
          "status": "generated",
          "div": "<div xmlns=\"http://www.w3.org/1999/xhtml\"><table class=\"hl7__eu__lab__report\"><tr><th>Test</th><th>25-Dec-2020</th><th>Reference&#xA0;Range</th><th>Unit</th></tr><tr><td>Chloride [Moles/volume] in Blood</td><td>102.6</td><td>98 - 108</td><td></td><td>mmol/L</td></tr></table></div>"
        },
        "status": "final",
        "subject": {
          "reference": "urn:uuid:8580a5ed-3438-407b-bc34-319fdcd718df",
          "display": "Victor Lagarde"
        },
        "effectiveDateTime": "2020-12-25T04:48:18Z",
        "specimen": {
          "reference": "urn:uuid:ce3432ba-6629-4444-af0b-244c0acf33c2"
        }
      }
    },
    {
      "fullUrl": "urn:uuid:d3aeebf5-0c2d-44ab-9175-976d1e322d8a",
      "resource": {
        "resourceType": "Observation",
        "id": "d3aeebf5-0c2d-44ab-9175-976d1e322d8a",
        "meta": {
          "profile": [
            "http://hl7.eu/fhir/laboratory/StructureDefinition/Observation-resultslab-eu-lab"
          ]
        },
        "performer": [
          {
            "display": "The Central European Lab"
          }
        ],
        "category": [
          {
            "coding": [
              {
                "system": "http://terminology.hl7.org/CodeSystem/observation-category",
                "code": "laboratory"
              }
            ]
          }
        ],
        "code": {
          "coding": [
            {
              "code": "20565-8",
              "system": "http://loinc.org",
              "display": "Carbon dioxide, total [Moles/volume] in Blood"
            }
          ],
          "text": "Carbon dioxide, total [Moles/volume] in Blood"
        },
        "valueQuantity": {
          "system": "http://unitsofmeasure.org",
          "value": 20.3,
          "unit": "mmol/L",
          "code": "mmol/L"
        },
        "referenceRange": [
          {
            "low": {
              "value": 22,
              "code": "mmol/L",
              "system": "http://unitsofmeasure.org"
            }
          },
          {
            "high": {
              "value": 29,
              "code": "mmol/L",
              "system": "http://unitsofmeasure.org"
            }
          }
        ],
        "interpretation": [
          {
            "coding": [
              {
                "code": "L",
                "system": "http://terminology.hl7.org/CodeSystem/v3-ObservationInterpretation",
                "display": "Low"
              }
            ]
          }
        ],
        "text": {
          "status": "generated",
          "div": "<div xmlns=\"http://www.w3.org/1999/xhtml\"><table class=\"hl7__eu__lab__report\"><tr><th>Test</th><th>25-Dec-2020</th><th>Reference&#xA0;Range</th><th>Unit</th></tr><tr><td>Carbon dioxide, total [Moles/volume] in Blood</td><td>20.3</td><td>22 - 29</td><td>L</td><td>mmol/L</td></tr></table></div>"
        },
        "status": "final",
        "subject": {
          "reference": "urn:uuid:8580a5ed-3438-407b-bc34-319fdcd718df",
          "display": "Victor Lagarde"
        },
        "effectiveDateTime": "2020-12-25T04:48:18Z",
        "specimen": {
          "reference": "urn:uuid:ce3432ba-6629-4444-af0b-244c0acf33c2"
        }
      }
    },
    {
      "fullUrl": "urn:uuid:fafcffda-bdd1-4e2a-8f01-4bc608d0c8cc",
      "resource": {
        "resourceType": "Device",
        "id": "fafcffda-bdd1-4e2a-8f01-4bc608d0c8cc",
        "deviceName": [
          {
            "name": "SYNDERAI Synthetic Generator",
            "type": "manufacturer-name"
          }
        ],
        "version": [
          {
            "value": "5.0"
          }
        ],
        "text": {
          "status": "generated",
          "div": "<div xmlns=\"http://www.w3.org/1999/xhtml\">SYNDERAI Synthetic Generator v5.0</div>"
        },
        "status": "active\"",
        "distinctIdentifier": "synderai-generator-50",
        "manufacturer": "SYNDERAI Project"
      }
    },
    {
      "fullUrl": "urn:uuid:5678d2bc-ea46-433e-90e2-084b1b4a6292",
      "resource": {
        "resourceType": "Provenance",
        "id": "5678d2bc-ea46-433e-90e2-084b1b4a6292",
        "target": [
          {
            "reference": "Patient/8580a5ed-3438-407b-bc34-319fdcd718df"
          },
          {
            "reference": "Bundle/c4f0f773-62af-4d60-bf2e-db1853e64e9e"
          },
          {
            "reference": "Composition/b34ba599-87cd-4df6-b6e4-791a05eb3ffc"
          },
          {
            "reference": "PractitionerRole/71551680-2ab0-4fc6-9952-6eebd70f91f0"
          },
          {
            "reference": "Practitioner/b6907345-2387-4142-a7d1-e196d29bb4dc"
          },
          {
            "reference": "PractitionerRole/840a3fb9-b881-4cad-abce-05f0910d2f2f"
          },
          {
            "reference": "Organization/d60f8fcc-24a1-4eef-a364-d51332a0f28f"
          }
        ],
        "activity": {
          "text": "Synthetic Example Data Generation"
        },
        "policy": [
          "https://synderai.net/synderai-synthetic-data-policy"
        ],
        "agent": [
          {
            "type": {
              "text": "author"
            },
            "who": {
              "reference": "Device/fafcffda-bdd1-4e2a-8f01-4bc608d0c8cc"
            }
          }
        ],
        "reason": [
          {
            "text": "Interoperability Testing and Training (non-clinical use)"
          }
        ],
        "text": {
          "status": "generated",
          "div": "<div xmlns=\"http://www.w3.org/1999/xhtml\">Provenance for SYNDERAI Synthetic Example Data Resource</div>"
        },
        "recorded": "2020-12-25T05:48:18Z"
      }
    },
    {
      "fullUrl": "urn:uuid:71551680-2ab0-4fc6-9952-6eebd70f91f0",
      "resource": {
        "resourceType": "PractitionerRole",
        "id": "71551680-2ab0-4fc6-9952-6eebd70f91f0",
        "meta": {
          "profile": [
            "http://hl7.eu/fhir/base/StructureDefinition/practitionerRole-eu"
          ]
        },
        "text": {
          "status": "generated",
          "div": "<div xmlns=\"http://www.w3.org/1999/xhtml\">Laboratory Role Id: 71551680-2ab0-4fc6-9952-6eebd70f91f0</div>"
        },
        "practitioner": {
          "reference": "urn:uuid:b6907345-2387-4142-a7d1-e196d29bb4dc"
        }
      }
    },
    {
      "fullUrl": "urn:uuid:b6907345-2387-4142-a7d1-e196d29bb4dc",
      "resource": {
        "resourceType": "Practitioner",
        "id": "b6907345-2387-4142-a7d1-e196d29bb4dc",
        "meta": {
          "profile": [
            "http://hl7.eu/fhir/base/StructureDefinition/practitioner-eu"
          ]
        },
        "identifier": [
          {
            "assigner": {
              "display": "HL7 Europe"
            },
            "system": "urn:oid:2.16.840.1.113883.2.51.999",
            "value": "bd240625-1dad-4a40-a499-bf41bbb51bb6"
          }
        ],
        "name": [
          {
            "prefix": [
              "dr"
            ],
            "given": [
              "Ex"
            ],
            "family": "Ample"
          }
        ],
        "address": [
          {
            "line": [
              "Laboratoire Central Européenne",
              "Boulevard du Jardin Botanique 32"
            ],
            "postalCode": "1000",
            "city": "Brussels",
            "country": "Belgium"
          }
        ],
        "text": {
          "status": "generated",
          "div": "<div xmlns=\"http://www.w3.org/1999/xhtml\">Laboratory: Laboratoire Central Européenne, 1000 Brussels, Belgium</div>"
        }
      }
    }
  ],
  "type": "document",
  "timestamp": "2020-12-25T05:48:18Z"
}
