{
  "resourceType": "Bundle",
  "id": "aa6f1b76-c99b-4efe-b859-e5453f95fa0a",
  "meta": {
    "profile": [
      "http://hl7.eu/fhir/laboratory/StructureDefinition/Bundle-eu-lab"
    ]
  },
  "identifier": {
    "assigner": {
      "display": "HL7 Europe"
    },
    "system": "urn:oid:2.16.840.1.113883.2.51.999",
    "value": "96aaf25f-5603-42ec-beda-95212036a46f"
  },
  "entry": [
    {
      "fullUrl": "urn:uuid:e01120fc-b156-4221-a9cf-64162763fd26",
      "resource": {
        "resourceType": "Composition",
        "id": "e01120fc-b156-4221-a9cf-64162763fd26",
        "meta": {
          "profile": [
            "http://hl7.eu/fhir/laboratory/StructureDefinition/Composition-eu-lab"
          ]
        },
        "identifier": {
          "assigner": {
            "display": "HL7 Europe"
          },
          "system": "urn:oid:2.16.840.1.113883.2.51.999",
          "value": "440be6a5-a427-407f-8a24-cae8320dd117"
        },
        "author": [
          {
            "reference": "urn:uuid:bed5e0bc-cde7-47c7-9ad1-fdf3ed3e6b8a"
          }
        ],
        "category": [
          {
            "coding": [
              {
                "code": "26436-6",
                "system": "http://loinc.org",
                "display": "Laboratory studies (set)"
              }
            ]
          }
        ],
        "type": {
          "coding": [
            {
              "code": "11502-2",
              "system": "http://loinc.org",
              "display": "Laboratory report"
            }
          ],
          "text": "Laboratory Report"
        },
        "section": [
          {
            "code": {
              "coding": [
                {
                  "code": "26436-6",
                  "system": "http://loinc.org",
                  "display": "Laboratory studies (set)"
                }
              ],
              "text": "Laboratory studies"
            },
            "section": [
              {
                "code": {
                  "coding": [
                    {
                      "code": "$18719-5",
                      "system": "http://loinc.org",
                      "display": "Chemistry studies (set)"
                    }
                  ],
                  "text": "Chemistry"
                },
                "entry": [
                  {
                    "reference": "urn:uuid:30e70b49-94a4-4109-9dbe-fccf3aab12ad"
                  },
                  {
                    "reference": "urn:uuid:9ea0971e-abe5-4a1d-ad80-643305fb495e"
                  },
                  {
                    "reference": "urn:uuid:fd508247-acbe-4f92-aec7-1277392c1faf"
                  },
                  {
                    "reference": "urn:uuid:5b0e1377-be71-4a84-8318-782948921e39"
                  },
                  {
                    "reference": "urn:uuid:ca4ddea1-6dac-4b7e-ad23-db83f29f5103"
                  },
                  {
                    "reference": "urn:uuid:a1841576-88ab-4d9f-bd1d-393c310fc161"
                  },
                  {
                    "reference": "urn:uuid:86d31d99-f460-4c9c-a6a0-c13c79da5dba"
                  },
                  {
                    "reference": "urn:uuid:e1982d8e-7d73-42b9-96d7-69d188718cc5"
                  },
                  {
                    "reference": "urn:uuid:de2ead3a-5549-477a-bc29-e51cdf2e1354"
                  }
                ],
                "text": {
                  "status": "generated",
                  "div": "<div xmlns=\"http://www.w3.org/1999/xhtml\"><h3>Chemistry</h3><table class=\"hl7__eu__lab__report\"><thead><tr><th>Test</th><th>28-MAR-2024</th><th>Reference&#xA0;Range</th><th>Unit</th></tr></thead><tbody><tr><td>Glucose [Mass/volume] in Serum or Plasma</td><td>95.9</td><td>70 - 140</td><td>mg/dL</td></tr><tr><td>Urea nitrogen [Mass/volume] in Serum or Plasma</td><td>10.7</td><td>7 - 50</td><td>mg/dL</td></tr><tr><td>Creatinine [Mass/volume] in Serum or Plasma</td><td><strong>2.1 H</strong></td><td>0.6 - 1.1</td><td>mg/dL</td></tr><tr><td>Calcium [Mass/volume] in Serum or Plasma</td><td>9.4</td><td>8.5 - 10.5</td><td>mg/dL</td></tr><tr><td>Sodium [Moles/volume] in Serum or Plasma</td><td>141.6</td><td>135 - 145</td><td>mmol/L</td></tr><tr><td>Potassium [Moles/volume] in Serum or Plasma</td><td>4.5</td><td>3.5 - 5.1</td><td>mmol/L</td></tr><tr><td>Chloride [Moles/volume] in Serum or Plasma</td><td>106.0</td><td>98 - 108</td><td>mmol/L</td></tr><tr><td>Carbon dioxide, total [Moles/volume] in Serum or Plasma</td><td><strong>20.2 L</strong></td><td>22 - 32</td><td>mmol/L</td></tr><tr><td>Ketones [Presence] in Urine by Test strip</td><td>Urine ketone test = +</td><td></td><td></td></tr></tbody></table></div>"
                },
                "title": "Chemistry"
              },
              {
                "code": {
                  "coding": [
                    {
                      "code": "$18729-4",
                      "system": "http://loinc.org",
                      "display": "Urinalysis studies (set)"
                    }
                  ],
                  "text": "Urinalysis"
                },
                "entry": [
                  {
                    "reference": "urn:uuid:e4bb850d-6b65-4267-be51-6c16e4becb4b"
                  },
                  {
                    "reference": "urn:uuid:69291898-6225-43a0-9a91-41313d20dcc2"
                  },
                  {
                    "reference": "urn:uuid:faeb6f19-e15f-4844-8956-32ff2a752296"
                  },
                  {
                    "reference": "urn:uuid:04239cba-af2f-4783-91cf-40ff3bae13a2"
                  },
                  {
                    "reference": "urn:uuid:d8078171-7223-4e88-9dd1-6fd8e8fa7ec7"
                  },
                  {
                    "reference": "urn:uuid:22392410-dda2-4f64-b1b1-83899865b91f"
                  },
                  {
                    "reference": "urn:uuid:52cb0616-df52-4a83-add4-e48e95a64bec"
                  },
                  {
                    "reference": "urn:uuid:1641afb1-29a0-471d-95b3-7299fad12708"
                  },
                  {
                    "reference": "urn:uuid:c9a16d01-b35f-4329-9da7-4712f766518f"
                  },
                  {
                    "reference": "urn:uuid:ed01866b-0b7c-4663-9998-0150f8988707"
                  },
                  {
                    "reference": "urn:uuid:16bc90ce-0c74-416c-9cc4-98ffa21dc022"
                  },
                  {
                    "reference": "urn:uuid:979f9e1b-1c5c-41d3-bcfa-a0a84c7c688c"
                  }
                ],
                "text": {
                  "status": "generated",
                  "div": "<div xmlns=\"http://www.w3.org/1999/xhtml\"><h3>Urinalysis</h3><table class=\"hl7__eu__lab__report\"><thead><tr><th>Test</th><th>28-MAR-2024</th><th>Reference&#xA0;Range</th><th>Unit</th></tr></thead><tbody><tr><td>Glucose [Mass/volume] in Urine by Test strip</td><td><strong>2.2 H</strong></td><td>0.8 - 0</td><td>mg/dL</td></tr><tr><td>Glucose [Presence] in Urine by Test strip</td><td>++</td><td></td><td></td></tr><tr><td>Bilirubin.total [Mass/volume] in Urine by Test strip</td><td>0.5</td><td>0 - 1</td><td>mg/dL</td></tr><tr><td>Bilirubin.total [Presence] in Urine by Test strip</td><td>Finding of bilirubin in urine</td><td></td><td></td></tr><tr><td>Ketones [Mass/volume] in Urine by Test strip</td><td>3.8</td><td>0 - 20</td><td>mg/dL</td></tr><tr><td>Specific gravity of Urine by Test strip</td><td><strong>1.0 L</strong></td><td>1.01 - 1.03</td><td>{nominal}</td></tr><tr><td>pH of Urine by Test strip</td><td>6.9</td><td>4.6 - 7</td><td>pH</td></tr><tr><td>Protein [Mass/volume] in Urine by Test strip</td><td><strong>243.9 H</strong></td><td>0 - 15</td><td>mg/dL</td></tr><tr><td>Protein [Presence] in Urine by Test strip</td><td>Urine protein test = ++</td><td></td><td></td></tr><tr><td>Nitrite [Presence] in Urine by Test strip</td><td>Urine nitrite negative</td><td></td><td></td></tr><tr><td>Hemoglobin [Presence] in Urine by Test strip</td><td>Urine blood test = negative</td><td></td><td></td></tr><tr><td>Leukocyte esterase [Presence] in Urine by Test strip</td><td>Urine leukocyte test negative</td><td></td><td></td></tr></tbody></table></div>"
                },
                "title": "Urinalysis"
              },
              {
                "code": {
                  "coding": [
                    {
                      "code": "$LP7846-1",
                      "system": "http://loinc.org",
                      "display": "Specimen information"
                    }
                  ],
                  "text": "Specimen information"
                },
                "entry": [
                  {
                    "reference": "urn:uuid:20d49f50-e6e6-42fc-954d-38c446f074c1"
                  },
                  {
                    "reference": "urn:uuid:db0e379e-c1f7-407d-9e3e-78198741e598"
                  },
                  {
                    "reference": "urn:uuid:060fc539-05bf-48a2-9067-7bc8a716f695"
                  },
                  {
                    "reference": "urn:uuid:aeb8e98c-e4ba-4cef-ae45-cbadf768e62d"
                  }
                ],
                "text": {
                  "status": "generated",
                  "div": "<div xmlns=\"http://www.w3.org/1999/xhtml\"><h3>Specimen information</h3><table class=\"hl7__eu__lab__report\"><thead><tr><th>Test</th><th>28-MAR-2024</th><th>Specimen</th><th></th></tr></thead><tbody><tr><td>Appearance of Urine</td><td>Cloudy urine</td><td>Urine</td><td></td></tr><tr><td>Odor of Urine</td><td>Urine smell ammoniacal</td><td>Urine</td><td></td></tr><tr><td>Clarity of Urine</td><td>Translucent</td><td>Urine</td><td></td></tr><tr><td>Color of Urine</td><td>Brown color</td><td>Urine</td><td></td></tr></tbody></table></div>"
                },
                "title": "Specimen information"
              }
            ],
            "title": "Laboratory Report"
          },
          {
            "text": {
              "status": "generated",
              "div": "<div xmlns=\"http://www.w3.org/1999/xhtml\"><h3>Annotation</h3><table class=\"hl7__eu__lab__report\"><tr><th>Conclusion and Recommendations based on this report and previous findings known to us</th></tr><tr><td>The patient shows elevated serum creatinine and low total CO₂, suggesting impaired renal function and possible metabolic acidosis. Urinalysis reveals significant proteinuria, glucosuria, low specific gravity, and abnormal urine appearance, indicating possible nephropathy (e.g., diabetic or other chronic kidney disease). No evidence of urinary tract infection is present. Recommend further nephrological evaluation and assessment of glycemic control.</td></tr></table></div>"
            },
            "code": {
              "coding": [
                {
                  "system": "http://loinc.org",
                  "code": "48767-8",
                  "display": "Annotation comment"
                }
              ]
            },
            "title": "Annotation comment"
          }
        ],
        "status": "final",
        "subject": {
          "reference": "urn:uuid:b03c7862-39d0-49d2-a007-1f8af11c3181",
          "display": "Marthe Gallet"
        },
        "date": "2024-03-28T20:05:43Z",
        "title": "Laboratory Report",
        "confidentiality": "N"
      }
    },
    {
      "fullUrl": "urn:uuid:200fd5e4-e0e8-4032-b79e-b115701bacce",
      "resource": {
        "resourceType": "DiagnosticReport",
        "id": "200fd5e4-e0e8-4032-b79e-b115701bacce",
        "meta": {
          "profile": [
            "http://hl7.eu/fhir/laboratory/StructureDefinition/DiagnosticReport-eu-lab"
          ]
        },
        "identifier": [
          {
            "assigner": {
              "display": "HL7 Europe"
            },
            "system": "urn:oid:2.16.840.1.113883.2.51.999",
            "value": "0a8b0fa2-5488-4e1e-b98e-03117bce1e34"
          }
        ],
        "extension": [
          {
            "url": "http://hl7.org/fhir/5.0/StructureDefinition/extension-DiagnosticReport.composition",
            "valueReference": {
              "reference": "urn:uuid:440be6a5-a427-407f-8a24-cae8320dd117"
            }
          }
        ],
        "category": [
          {
            "coding": [
              {
                "code": "26436-6",
                "system": "http://loinc.org",
                "display": "Laboratory studies (set)"
              }
            ]
          }
        ],
        "specimen": [
          {
            "reference": "urn:uuid:eb4a8af8-1163-45c3-8600-d4cf5feeb587"
          },
          {
            "reference": "urn:uuid:2faeb2c3-c034-4add-8e02-183641469797"
          }
        ],
        "result": [
          {
            "reference": "urn:uuid:30e70b49-94a4-4109-9dbe-fccf3aab12ad"
          },
          {
            "reference": "urn:uuid:9ea0971e-abe5-4a1d-ad80-643305fb495e"
          },
          {
            "reference": "urn:uuid:fd508247-acbe-4f92-aec7-1277392c1faf"
          },
          {
            "reference": "urn:uuid:5b0e1377-be71-4a84-8318-782948921e39"
          },
          {
            "reference": "urn:uuid:ca4ddea1-6dac-4b7e-ad23-db83f29f5103"
          },
          {
            "reference": "urn:uuid:a1841576-88ab-4d9f-bd1d-393c310fc161"
          },
          {
            "reference": "urn:uuid:86d31d99-f460-4c9c-a6a0-c13c79da5dba"
          },
          {
            "reference": "urn:uuid:e1982d8e-7d73-42b9-96d7-69d188718cc5"
          },
          {
            "reference": "urn:uuid:20d49f50-e6e6-42fc-954d-38c446f074c1"
          },
          {
            "reference": "urn:uuid:db0e379e-c1f7-407d-9e3e-78198741e598"
          },
          {
            "reference": "urn:uuid:060fc539-05bf-48a2-9067-7bc8a716f695"
          },
          {
            "reference": "urn:uuid:aeb8e98c-e4ba-4cef-ae45-cbadf768e62d"
          },
          {
            "reference": "urn:uuid:e4bb850d-6b65-4267-be51-6c16e4becb4b"
          },
          {
            "reference": "urn:uuid:69291898-6225-43a0-9a91-41313d20dcc2"
          },
          {
            "reference": "urn:uuid:faeb6f19-e15f-4844-8956-32ff2a752296"
          },
          {
            "reference": "urn:uuid:04239cba-af2f-4783-91cf-40ff3bae13a2"
          },
          {
            "reference": "urn:uuid:d8078171-7223-4e88-9dd1-6fd8e8fa7ec7"
          },
          {
            "reference": "urn:uuid:de2ead3a-5549-477a-bc29-e51cdf2e1354"
          },
          {
            "reference": "urn:uuid:22392410-dda2-4f64-b1b1-83899865b91f"
          },
          {
            "reference": "urn:uuid:52cb0616-df52-4a83-add4-e48e95a64bec"
          },
          {
            "reference": "urn:uuid:1641afb1-29a0-471d-95b3-7299fad12708"
          },
          {
            "reference": "urn:uuid:c9a16d01-b35f-4329-9da7-4712f766518f"
          },
          {
            "reference": "urn:uuid:ed01866b-0b7c-4663-9998-0150f8988707"
          },
          {
            "reference": "urn:uuid:16bc90ce-0c74-416c-9cc4-98ffa21dc022"
          },
          {
            "reference": "urn:uuid:979f9e1b-1c5c-41d3-bcfa-a0a84c7c688c"
          }
        ],
        "status": "registered",
        "code": {
          "coding": [
            {
              "code": "11502-2",
              "system": "http://loinc.org",
              "display": "Laboratory report"
            }
          ]
        },
        "subject": {
          "reference": "urn:uuid:b03c7862-39d0-49d2-a007-1f8af11c3181",
          "display": "Marthe Gallet"
        }
      }
    },
    {
      "fullUrl": "urn:uuid:b03c7862-39d0-49d2-a007-1f8af11c3181",
      "resource": {
        "resourceType": "Patient",
        "id": "b03c7862-39d0-49d2-a007-1f8af11c3181",
        "meta": {
          "security": [
            {
              "system": "http://terminology.hl7.org/CodeSystem/v3-ActReason",
              "code": "HTEST"
            },
            {
              "system": "http://terminology.hl7.org/CodeSystem/v3-ActReason",
              "code": "TRAIN"
            }
          ],
          "tag": [
            {
              "system": "https://synderai.net/fhir/CodeSystem/tags",
              "code": "synthetic",
              "display": "SYNDERAI Synthetic data"
            }
          ],
          "profile": [
            "http://hl7.eu/fhir/base/StructureDefinition/patient-eu-core"
          ]
        },
        "identifier": [
          {
            "type": {
              "coding": [
                {
                  "code": "PT",
                  "system": "http://terminology.hl7.org/CodeSystem/v2-0203"
                }
              ]
            },
            "system": "http://ec.europa.eu/identifier/eci",
            "value": "9444-947487-6"
          },
          {
            "type": {
              "coding": [
                {
                  "code": "MR",
                  "system": "http://terminology.hl7.org/CodeSystem/v2-0203"
                }
              ]
            },
            "system": "http://local.setting.eu/identifier",
            "value": "854228d5-a476-2d9c-a1d7-c3202375a617"
          }
        ],
        "name": [
          {
            "family": "Gallet"
          },
          {
            "given": [
              "Marthe"
            ]
          },
          {
            "text": "Marthe Gallet"
          }
        ],
        "address": [
          {
            "line": [
              "3, rue Emmanuel Goncalves"
            ],
            "use": "home",
            "type": "physical",
            "postalCode": "49490",
            "city": "Briand",
            "country": "France"
          }
        ],
        "telecom": [
          {
            "system": "phone",
            "value": "+33 1 70 99 82 74"
          }
        ],
        "extension": [
          {
            "url": "http://hl7.org/fhir/StructureDefinition/patient-nationality",
            "valueCodeableConcept": {
              "coding": [
                {
                  "code": "FR",
                  "system": "http://hl7.org/fhir/ValueSet/country"
                }
              ]
            }
          }
        ],
        "text": {
          "status": "generated",
          "div": "<div xmlns=\"http://www.w3.org/1999/xhtml\"><table class=\"hl7__ips\"><tr><td>Marthe Gallet</td><td>female</td><td>29-Oct-1950</td></tr></table></div>"
        },
        "gender": "female",
        "birthDate": "1950-10-29"
      }
    },
    {
      "fullUrl": "urn:uuid:7031ecf0-6fa2-4a4b-8e89-2da3227e8768",
      "resource": {
        "resourceType": "ServiceRequest",
        "id": "7031ecf0-6fa2-4a4b-8e89-2da3227e8768",
        "meta": {
          "profile": [
            "http://hl7.eu/fhir/laboratory/StructureDefinition/ServiceRequest-eu-lab"
          ]
        },
        "identifier": [
          {
            "system": "http://example.org",
            "value": "0fb7ba65-d256-4921-8324-5f8eb4c05a1c"
          }
        ],
        "specimen": [
          {
            "reference": "urn:uuid:eb4a8af8-1163-45c3-8600-d4cf5feeb587"
          },
          {
            "reference": "urn:uuid:2faeb2c3-c034-4add-8e02-183641469797"
          }
        ],
        "reasonCode": [
          {
            "coding": [
              {
                "code": "431856006",
                "system": "http://snomed.info/sct",
                "display": "Chronic kidney disease stage 2"
              }
            ]
          },
          {
            "coding": [
              {
                "code": "90781000119102",
                "system": "http://snomed.info/sct",
                "display": "Microalbuminuria due to type 2 diabetes mellitus"
              }
            ]
          },
          {
            "coding": [
              {
                "code": "127013003",
                "system": "http://snomed.info/sct",
                "display": "Disorder of kidney due to diabetes mellitus"
              }
            ]
          },
          {
            "coding": [
              {
                "code": "431855005",
                "system": "http://snomed.info/sct",
                "display": "Chronic kidney disease stage 1"
              }
            ]
          },
          {
            "coding": [
              {
                "code": "55822004",
                "system": "http://snomed.info/sct",
                "display": "Hyperlipidemia"
              }
            ]
          },
          {
            "coding": [
              {
                "code": "59621000",
                "system": "http://snomed.info/sct",
                "display": "Essential hypertension"
              }
            ]
          }
        ],
        "status": "active",
        "intent": "order",
        "code": {
          "coding": [
            {
              "code": "108252007",
              "system": "http://snomed.info/sct",
              "display": "Laboratory procedure"
            }
          ]
        },
        "subject": {
          "reference": "urn:uuid:b03c7862-39d0-49d2-a007-1f8af11c3181",
          "display": "Marthe Gallet"
        },
        "requester": {
          "reference": "urn:uuid:08b9d0f0-9c29-4ef2-beef-8ce87496142a"
        }
      }
    },
    {
      "fullUrl": "urn:uuid:08b9d0f0-9c29-4ef2-beef-8ce87496142a",
      "resource": {
        "resourceType": "PractitionerRole",
        "id": "08b9d0f0-9c29-4ef2-beef-8ce87496142a",
        "meta": {
          "profile": [
            "http://hl7.eu/fhir/base/StructureDefinition/practitionerRole-eu"
          ]
        },
        "text": {
          "status": "generated",
          "div": "<div xmlns=\"http://www.w3.org/1999/xhtml\">Provider Role Id: 08b9d0f0-9c29-4ef2-beef-8ce87496142a</div>"
        },
        "organization": {
          "reference": "urn:uuid:97bd36ac-ecc4-4383-80aa-40f152ddbba6"
        }
      }
    },
    {
      "fullUrl": "urn:uuid:97bd36ac-ecc4-4383-80aa-40f152ddbba6",
      "resource": {
        "resourceType": "Organization",
        "id": "97bd36ac-ecc4-4383-80aa-40f152ddbba6",
        "meta": {
          "profile": [
            "http://hl7.eu/fhir/base/StructureDefinition/organization-eu"
          ]
        },
        "identifier": [
          {
            "assigner": {
              "display": "HL7 Europe"
            },
            "system": "urn:oid:2.16.840.1.113883.2.51.999",
            "value": "996fbbe6-2a2a-4486-bff8-3b11c2f57288"
          }
        ],
        "address": [
          {
            "line": [
              "Rue Larrey nan"
            ],
            "city": "Angers",
            "postalCode": "49100",
            "country": "France"
          }
        ],
        "text": {
          "status": "generated",
          "div": "<div xmlns=\"http://www.w3.org/1999/xhtml\">Provider Organization: CHU d&#039;Angers</div>"
        },
        "name": "CHU d&#039;Angers"
      }
    },
    {
      "fullUrl": "urn:uuid:eb4a8af8-1163-45c3-8600-d4cf5feeb587",
      "resource": {
        "resourceType": "Specimen",
        "id": "eb4a8af8-1163-45c3-8600-d4cf5feeb587",
        "meta": {
          "profile": [
            "http://hl7.eu/fhir/laboratory/StructureDefinition/Specimen-eu-lab"
          ]
        },
        "collection": {
          "collectedDateTime": "2024-03-28"
        },
        "text": {
          "status": "generated",
          "div": "<div xmlns=\"http://www.w3.org/1999/xhtml\"><table class=\"hl7__eu__lab__report\"><tr><th>Specimen</th><th>Collection Date</th></tr><tr><td>Acellular blood (serum or plasma) specimen</td><td><span class=\"nb\">28-Mar-2024</span></td></tr></table></div>"
        },
        "type": {
          "coding": [
            {
              "code": "122592007",
              "system": "http://snomed.info/sct",
              "display": "Acellular blood (serum or plasma) specimen"
            }
          ]
        }
      }
    },
    {
      "fullUrl": "urn:uuid:2faeb2c3-c034-4add-8e02-183641469797",
      "resource": {
        "resourceType": "Specimen",
        "id": "2faeb2c3-c034-4add-8e02-183641469797",
        "meta": {
          "profile": [
            "http://hl7.eu/fhir/laboratory/StructureDefinition/Specimen-eu-lab"
          ]
        },
        "collection": {
          "collectedDateTime": "2024-03-28"
        },
        "text": {
          "status": "generated",
          "div": "<div xmlns=\"http://www.w3.org/1999/xhtml\"><table class=\"hl7__eu__lab__report\"><tr><th>Specimen</th><th>Collection Date</th></tr><tr><td>Urine specimen</td><td><span class=\"nb\">28-Mar-2024</span></td></tr></table></div>"
        },
        "type": {
          "coding": [
            {
              "code": "122575003",
              "system": "http://snomed.info/sct",
              "display": "Urine specimen"
            }
          ]
        }
      }
    },
    {
      "fullUrl": "urn:uuid:30e70b49-94a4-4109-9dbe-fccf3aab12ad",
      "resource": {
        "resourceType": "Observation",
        "id": "30e70b49-94a4-4109-9dbe-fccf3aab12ad",
        "meta": {
          "profile": [
            "http://hl7.eu/fhir/laboratory/StructureDefinition/Observation-resultslab-eu-lab"
          ]
        },
        "performer": [
          {
            "display": "The Central European Lab"
          }
        ],
        "category": [
          {
            "coding": [
              {
                "system": "http://terminology.hl7.org/CodeSystem/observation-category",
                "code": "laboratory"
              }
            ]
          }
        ],
        "code": {
          "coding": [
            {
              "code": "2345-7",
              "system": "http://loinc.org",
              "display": "Glucose [Mass/volume] in Serum or Plasma"
            }
          ],
          "text": "Glucose [Mass/volume] in Serum or Plasma"
        },
        "valueQuantity": {
          "system": "http://unitsofmeasure.org",
          "value": 95.9,
          "unit": "mg/dL",
          "code": "mg/dL"
        },
        "referenceRange": [
          {
            "low": {
              "value": 70,
              "code": "mg/dL",
              "system": "http://unitsofmeasure.org"
            }
          },
          {
            "high": {
              "value": 140,
              "code": "mg/dL",
              "system": "http://unitsofmeasure.org"
            }
          }
        ],
        "text": {
          "status": "generated",
          "div": "<div xmlns=\"http://www.w3.org/1999/xhtml\"><table class=\"hl7__eu__lab__report\"><tr><th>Test</th><th>28-Mar-2024</th><th>Reference&#xA0;Range</th><th>Unit</th></tr><tr><td>Glucose [Mass/volume] in Serum or Plasma</td><td>95.9</td><td>70 - 140</td><td></td><td>mg/dL</td></tr></table></div>"
        },
        "status": "final",
        "subject": {
          "reference": "urn:uuid:b03c7862-39d0-49d2-a007-1f8af11c3181",
          "display": "Marthe Gallet"
        },
        "effectiveDateTime": "2024-03-28T19:05:43Z",
        "specimen": {
          "reference": "urn:uuid:eb4a8af8-1163-45c3-8600-d4cf5feeb587"
        }
      }
    },
    {
      "fullUrl": "urn:uuid:9ea0971e-abe5-4a1d-ad80-643305fb495e",
      "resource": {
        "resourceType": "Observation",
        "id": "9ea0971e-abe5-4a1d-ad80-643305fb495e",
        "meta": {
          "profile": [
            "http://hl7.eu/fhir/laboratory/StructureDefinition/Observation-resultslab-eu-lab"
          ]
        },
        "performer": [
          {
            "display": "The Central European Lab"
          }
        ],
        "category": [
          {
            "coding": [
              {
                "system": "http://terminology.hl7.org/CodeSystem/observation-category",
                "code": "laboratory"
              }
            ]
          }
        ],
        "code": {
          "coding": [
            {
              "code": "3094-0",
              "system": "http://loinc.org",
              "display": "Urea nitrogen [Mass/volume] in Serum or Plasma"
            }
          ],
          "text": "Urea nitrogen [Mass/volume] in Serum or Plasma"
        },
        "valueQuantity": {
          "system": "http://unitsofmeasure.org",
          "value": 10.7,
          "unit": "mg/dL",
          "code": "mg/dL"
        },
        "referenceRange": [
          {
            "low": {
              "value": 7,
              "code": "mg/dL",
              "system": "http://unitsofmeasure.org"
            }
          },
          {
            "high": {
              "value": 50,
              "code": "mg/dL",
              "system": "http://unitsofmeasure.org"
            }
          }
        ],
        "text": {
          "status": "generated",
          "div": "<div xmlns=\"http://www.w3.org/1999/xhtml\"><table class=\"hl7__eu__lab__report\"><tr><th>Test</th><th>28-Mar-2024</th><th>Reference&#xA0;Range</th><th>Unit</th></tr><tr><td>Urea nitrogen [Mass/volume] in Serum or Plasma</td><td>10.7</td><td>7 - 50</td><td></td><td>mg/dL</td></tr></table></div>"
        },
        "status": "final",
        "subject": {
          "reference": "urn:uuid:b03c7862-39d0-49d2-a007-1f8af11c3181",
          "display": "Marthe Gallet"
        },
        "effectiveDateTime": "2024-03-28T19:05:43Z",
        "specimen": {
          "reference": "urn:uuid:eb4a8af8-1163-45c3-8600-d4cf5feeb587"
        }
      }
    },
    {
      "fullUrl": "urn:uuid:fd508247-acbe-4f92-aec7-1277392c1faf",
      "resource": {
        "resourceType": "Observation",
        "id": "fd508247-acbe-4f92-aec7-1277392c1faf",
        "meta": {
          "profile": [
            "http://hl7.eu/fhir/laboratory/StructureDefinition/Observation-resultslab-eu-lab"
          ]
        },
        "performer": [
          {
            "display": "The Central European Lab"
          }
        ],
        "category": [
          {
            "coding": [
              {
                "system": "http://terminology.hl7.org/CodeSystem/observation-category",
                "code": "laboratory"
              }
            ]
          }
        ],
        "code": {
          "coding": [
            {
              "code": "2160-0",
              "system": "http://loinc.org",
              "display": "Creatinine [Mass/volume] in Serum or Plasma"
            }
          ],
          "text": "Creatinine [Mass/volume] in Serum or Plasma"
        },
        "valueQuantity": {
          "system": "http://unitsofmeasure.org",
          "value": 2.1,
          "unit": "mg/dL",
          "code": "mg/dL"
        },
        "referenceRange": [
          {
            "low": {
              "value": 0.6,
              "code": "mg/dL",
              "system": "http://unitsofmeasure.org"
            }
          },
          {
            "high": {
              "value": 1.1,
              "code": "mg/dL",
              "system": "http://unitsofmeasure.org"
            }
          }
        ],
        "interpretation": [
          {
            "coding": [
              {
                "code": "H",
                "system": "http://terminology.hl7.org/CodeSystem/v3-ObservationInterpretation",
                "display": "High"
              }
            ]
          }
        ],
        "text": {
          "status": "generated",
          "div": "<div xmlns=\"http://www.w3.org/1999/xhtml\"><table class=\"hl7__eu__lab__report\"><tr><th>Test</th><th>28-Mar-2024</th><th>Reference&#xA0;Range</th><th>Unit</th></tr><tr><td>Creatinine [Mass/volume] in Serum or Plasma</td><td>2.1</td><td>0.6 - 1.1</td><td>H</td><td>mg/dL</td></tr></table></div>"
        },
        "status": "final",
        "subject": {
          "reference": "urn:uuid:b03c7862-39d0-49d2-a007-1f8af11c3181",
          "display": "Marthe Gallet"
        },
        "effectiveDateTime": "2024-03-28T19:05:43Z",
        "specimen": {
          "reference": "urn:uuid:eb4a8af8-1163-45c3-8600-d4cf5feeb587"
        }
      }
    },
    {
      "fullUrl": "urn:uuid:5b0e1377-be71-4a84-8318-782948921e39",
      "resource": {
        "resourceType": "Observation",
        "id": "5b0e1377-be71-4a84-8318-782948921e39",
        "meta": {
          "profile": [
            "http://hl7.eu/fhir/laboratory/StructureDefinition/Observation-resultslab-eu-lab"
          ]
        },
        "performer": [
          {
            "display": "The Central European Lab"
          }
        ],
        "category": [
          {
            "coding": [
              {
                "system": "http://terminology.hl7.org/CodeSystem/observation-category",
                "code": "laboratory"
              }
            ]
          }
        ],
        "code": {
          "coding": [
            {
              "code": "17861-6",
              "system": "http://loinc.org",
              "display": "Calcium [Mass/volume] in Serum or Plasma"
            }
          ],
          "text": "Calcium [Mass/volume] in Serum or Plasma"
        },
        "valueQuantity": {
          "system": "http://unitsofmeasure.org",
          "value": 9.4,
          "unit": "mg/dL",
          "code": "mg/dL"
        },
        "referenceRange": [
          {
            "low": {
              "value": 8.5,
              "code": "mg/dL",
              "system": "http://unitsofmeasure.org"
            }
          },
          {
            "high": {
              "value": 10.5,
              "code": "mg/dL",
              "system": "http://unitsofmeasure.org"
            }
          }
        ],
        "text": {
          "status": "generated",
          "div": "<div xmlns=\"http://www.w3.org/1999/xhtml\"><table class=\"hl7__eu__lab__report\"><tr><th>Test</th><th>28-Mar-2024</th><th>Reference&#xA0;Range</th><th>Unit</th></tr><tr><td>Calcium [Mass/volume] in Serum or Plasma</td><td>9.4</td><td>8.5 - 10.5</td><td></td><td>mg/dL</td></tr></table></div>"
        },
        "status": "final",
        "subject": {
          "reference": "urn:uuid:b03c7862-39d0-49d2-a007-1f8af11c3181",
          "display": "Marthe Gallet"
        },
        "effectiveDateTime": "2024-03-28T19:05:43Z",
        "specimen": {
          "reference": "urn:uuid:eb4a8af8-1163-45c3-8600-d4cf5feeb587"
        }
      }
    },
    {
      "fullUrl": "urn:uuid:ca4ddea1-6dac-4b7e-ad23-db83f29f5103",
      "resource": {
        "resourceType": "Observation",
        "id": "ca4ddea1-6dac-4b7e-ad23-db83f29f5103",
        "meta": {
          "profile": [
            "http://hl7.eu/fhir/laboratory/StructureDefinition/Observation-resultslab-eu-lab"
          ]
        },
        "performer": [
          {
            "display": "The Central European Lab"
          }
        ],
        "category": [
          {
            "coding": [
              {
                "system": "http://terminology.hl7.org/CodeSystem/observation-category",
                "code": "laboratory"
              }
            ]
          }
        ],
        "code": {
          "coding": [
            {
              "code": "2951-2",
              "system": "http://loinc.org",
              "display": "Sodium [Moles/volume] in Serum or Plasma"
            }
          ],
          "text": "Sodium [Moles/volume] in Serum or Plasma"
        },
        "valueQuantity": {
          "system": "http://unitsofmeasure.org",
          "value": 141.6,
          "unit": "mmol/L",
          "code": "mmol/L"
        },
        "referenceRange": [
          {
            "low": {
              "value": 135,
              "code": "mmol/L",
              "system": "http://unitsofmeasure.org"
            }
          },
          {
            "high": {
              "value": 145,
              "code": "mmol/L",
              "system": "http://unitsofmeasure.org"
            }
          }
        ],
        "text": {
          "status": "generated",
          "div": "<div xmlns=\"http://www.w3.org/1999/xhtml\"><table class=\"hl7__eu__lab__report\"><tr><th>Test</th><th>28-Mar-2024</th><th>Reference&#xA0;Range</th><th>Unit</th></tr><tr><td>Sodium [Moles/volume] in Serum or Plasma</td><td>141.6</td><td>135 - 145</td><td></td><td>mmol/L</td></tr></table></div>"
        },
        "status": "final",
        "subject": {
          "reference": "urn:uuid:b03c7862-39d0-49d2-a007-1f8af11c3181",
          "display": "Marthe Gallet"
        },
        "effectiveDateTime": "2024-03-28T19:05:43Z",
        "specimen": {
          "reference": "urn:uuid:eb4a8af8-1163-45c3-8600-d4cf5feeb587"
        }
      }
    },
    {
      "fullUrl": "urn:uuid:a1841576-88ab-4d9f-bd1d-393c310fc161",
      "resource": {
        "resourceType": "Observation",
        "id": "a1841576-88ab-4d9f-bd1d-393c310fc161",
        "meta": {
          "profile": [
            "http://hl7.eu/fhir/laboratory/StructureDefinition/Observation-resultslab-eu-lab"
          ]
        },
        "performer": [
          {
            "display": "The Central European Lab"
          }
        ],
        "category": [
          {
            "coding": [
              {
                "system": "http://terminology.hl7.org/CodeSystem/observation-category",
                "code": "laboratory"
              }
            ]
          }
        ],
        "code": {
          "coding": [
            {
              "code": "2823-3",
              "system": "http://loinc.org",
              "display": "Potassium [Moles/volume] in Serum or Plasma"
            }
          ],
          "text": "Potassium [Moles/volume] in Serum or Plasma"
        },
        "valueQuantity": {
          "system": "http://unitsofmeasure.org",
          "value": 4.5,
          "unit": "mmol/L",
          "code": "mmol/L"
        },
        "referenceRange": [
          {
            "low": {
              "value": 3.5,
              "code": "mmol/L",
              "system": "http://unitsofmeasure.org"
            }
          },
          {
            "high": {
              "value": 5.1,
              "code": "mmol/L",
              "system": "http://unitsofmeasure.org"
            }
          }
        ],
        "text": {
          "status": "generated",
          "div": "<div xmlns=\"http://www.w3.org/1999/xhtml\"><table class=\"hl7__eu__lab__report\"><tr><th>Test</th><th>28-Mar-2024</th><th>Reference&#xA0;Range</th><th>Unit</th></tr><tr><td>Potassium [Moles/volume] in Serum or Plasma</td><td>4.5</td><td>3.5 - 5.1</td><td></td><td>mmol/L</td></tr></table></div>"
        },
        "status": "final",
        "subject": {
          "reference": "urn:uuid:b03c7862-39d0-49d2-a007-1f8af11c3181",
          "display": "Marthe Gallet"
        },
        "effectiveDateTime": "2024-03-28T19:05:43Z",
        "specimen": {
          "reference": "urn:uuid:eb4a8af8-1163-45c3-8600-d4cf5feeb587"
        }
      }
    },
    {
      "fullUrl": "urn:uuid:86d31d99-f460-4c9c-a6a0-c13c79da5dba",
      "resource": {
        "resourceType": "Observation",
        "id": "86d31d99-f460-4c9c-a6a0-c13c79da5dba",
        "meta": {
          "profile": [
            "http://hl7.eu/fhir/laboratory/StructureDefinition/Observation-resultslab-eu-lab"
          ]
        },
        "performer": [
          {
            "display": "The Central European Lab"
          }
        ],
        "category": [
          {
            "coding": [
              {
                "system": "http://terminology.hl7.org/CodeSystem/observation-category",
                "code": "laboratory"
              }
            ]
          }
        ],
        "code": {
          "coding": [
            {
              "code": "2075-0",
              "system": "http://loinc.org",
              "display": "Chloride [Moles/volume] in Serum or Plasma"
            }
          ],
          "text": "Chloride [Moles/volume] in Serum or Plasma"
        },
        "valueQuantity": {
          "system": "http://unitsofmeasure.org",
          "value": 106,
          "unit": "mmol/L",
          "code": "mmol/L"
        },
        "referenceRange": [
          {
            "low": {
              "value": 98,
              "code": "mmol/L",
              "system": "http://unitsofmeasure.org"
            }
          },
          {
            "high": {
              "value": 108,
              "code": "mmol/L",
              "system": "http://unitsofmeasure.org"
            }
          }
        ],
        "text": {
          "status": "generated",
          "div": "<div xmlns=\"http://www.w3.org/1999/xhtml\"><table class=\"hl7__eu__lab__report\"><tr><th>Test</th><th>28-Mar-2024</th><th>Reference&#xA0;Range</th><th>Unit</th></tr><tr><td>Chloride [Moles/volume] in Serum or Plasma</td><td>106.0</td><td>98 - 108</td><td></td><td>mmol/L</td></tr></table></div>"
        },
        "status": "final",
        "subject": {
          "reference": "urn:uuid:b03c7862-39d0-49d2-a007-1f8af11c3181",
          "display": "Marthe Gallet"
        },
        "effectiveDateTime": "2024-03-28T19:05:43Z",
        "specimen": {
          "reference": "urn:uuid:eb4a8af8-1163-45c3-8600-d4cf5feeb587"
        }
      }
    },
    {
      "fullUrl": "urn:uuid:e1982d8e-7d73-42b9-96d7-69d188718cc5",
      "resource": {
        "resourceType": "Observation",
        "id": "e1982d8e-7d73-42b9-96d7-69d188718cc5",
        "meta": {
          "profile": [
            "http://hl7.eu/fhir/laboratory/StructureDefinition/Observation-resultslab-eu-lab"
          ]
        },
        "performer": [
          {
            "display": "The Central European Lab"
          }
        ],
        "category": [
          {
            "coding": [
              {
                "system": "http://terminology.hl7.org/CodeSystem/observation-category",
                "code": "laboratory"
              }
            ]
          }
        ],
        "code": {
          "coding": [
            {
              "code": "2028-9",
              "system": "http://loinc.org",
              "display": "Carbon dioxide, total [Moles/volume] in Serum or Plasma"
            }
          ],
          "text": "Carbon dioxide, total [Moles/volume] in Serum or Plasma"
        },
        "valueQuantity": {
          "system": "http://unitsofmeasure.org",
          "value": 20.2,
          "unit": "mmol/L",
          "code": "mmol/L"
        },
        "referenceRange": [
          {
            "low": {
              "value": 22,
              "code": "mmol/L",
              "system": "http://unitsofmeasure.org"
            }
          },
          {
            "high": {
              "value": 32,
              "code": "mmol/L",
              "system": "http://unitsofmeasure.org"
            }
          }
        ],
        "interpretation": [
          {
            "coding": [
              {
                "code": "L",
                "system": "http://terminology.hl7.org/CodeSystem/v3-ObservationInterpretation",
                "display": "Low"
              }
            ]
          }
        ],
        "text": {
          "status": "generated",
          "div": "<div xmlns=\"http://www.w3.org/1999/xhtml\"><table class=\"hl7__eu__lab__report\"><tr><th>Test</th><th>28-Mar-2024</th><th>Reference&#xA0;Range</th><th>Unit</th></tr><tr><td>Carbon dioxide, total [Moles/volume] in Serum or Plasma</td><td>20.2</td><td>22 - 32</td><td>L</td><td>mmol/L</td></tr></table></div>"
        },
        "status": "final",
        "subject": {
          "reference": "urn:uuid:b03c7862-39d0-49d2-a007-1f8af11c3181",
          "display": "Marthe Gallet"
        },
        "effectiveDateTime": "2024-03-28T19:05:43Z",
        "specimen": {
          "reference": "urn:uuid:eb4a8af8-1163-45c3-8600-d4cf5feeb587"
        }
      }
    },
    {
      "fullUrl": "urn:uuid:20d49f50-e6e6-42fc-954d-38c446f074c1",
      "resource": {
        "resourceType": "Observation",
        "id": "20d49f50-e6e6-42fc-954d-38c446f074c1",
        "meta": {
          "profile": [
            "http://hl7.eu/fhir/laboratory/StructureDefinition/Observation-resultslab-eu-lab"
          ]
        },
        "performer": [
          {
            "display": "The Central European Lab"
          }
        ],
        "category": [
          {
            "coding": [
              {
                "system": "http://terminology.hl7.org/CodeSystem/observation-category",
                "code": "laboratory"
              }
            ]
          }
        ],
        "code": {
          "coding": [
            {
              "code": "5767-9",
              "system": "http://loinc.org",
              "display": "Appearance of Urine"
            }
          ],
          "text": "Appearance of Urine"
        },
        "text": {
          "status": "generated",
          "div": "<div xmlns=\"http://www.w3.org/1999/xhtml\"><table class=\"hl7__eu__lab__report\"><tr><th>Test</th><th>28-Mar-2024</th><th>Reference&#xA0;Range</th><th>Unit</th></tr><tr><td>Appearance of Urine</td></tr></table></div>"
        },
        "status": "final",
        "subject": {
          "reference": "urn:uuid:b03c7862-39d0-49d2-a007-1f8af11c3181",
          "display": "Marthe Gallet"
        },
        "effectiveDateTime": "2024-03-28T19:05:43Z",
        "specimen": {
          "reference": "urn:uuid:2faeb2c3-c034-4add-8e02-183641469797"
        }
      }
    },
    {
      "fullUrl": "urn:uuid:db0e379e-c1f7-407d-9e3e-78198741e598",
      "resource": {
        "resourceType": "Observation",
        "id": "db0e379e-c1f7-407d-9e3e-78198741e598",
        "meta": {
          "profile": [
            "http://hl7.eu/fhir/laboratory/StructureDefinition/Observation-resultslab-eu-lab"
          ]
        },
        "performer": [
          {
            "display": "The Central European Lab"
          }
        ],
        "category": [
          {
            "coding": [
              {
                "system": "http://terminology.hl7.org/CodeSystem/observation-category",
                "code": "laboratory"
              }
            ]
          }
        ],
        "code": {
          "coding": [
            {
              "code": "34533-0",
              "system": "http://loinc.org",
              "display": "Odor of Urine"
            }
          ],
          "text": "Odor of Urine"
        },
        "text": {
          "status": "generated",
          "div": "<div xmlns=\"http://www.w3.org/1999/xhtml\"><table class=\"hl7__eu__lab__report\"><tr><th>Test</th><th>28-Mar-2024</th><th>Reference&#xA0;Range</th><th>Unit</th></tr><tr><td>Odor of Urine</td></tr></table></div>"
        },
        "status": "final",
        "subject": {
          "reference": "urn:uuid:b03c7862-39d0-49d2-a007-1f8af11c3181",
          "display": "Marthe Gallet"
        },
        "effectiveDateTime": "2024-03-28T19:05:43Z",
        "specimen": {
          "reference": "urn:uuid:2faeb2c3-c034-4add-8e02-183641469797"
        }
      }
    },
    {
      "fullUrl": "urn:uuid:060fc539-05bf-48a2-9067-7bc8a716f695",
      "resource": {
        "resourceType": "Observation",
        "id": "060fc539-05bf-48a2-9067-7bc8a716f695",
        "meta": {
          "profile": [
            "http://hl7.eu/fhir/laboratory/StructureDefinition/Observation-resultslab-eu-lab"
          ]
        },
        "performer": [
          {
            "display": "The Central European Lab"
          }
        ],
        "category": [
          {
            "coding": [
              {
                "system": "http://terminology.hl7.org/CodeSystem/observation-category",
                "code": "laboratory"
              }
            ]
          }
        ],
        "code": {
          "coding": [
            {
              "code": "32167-9",
              "system": "http://loinc.org",
              "display": "Clarity of Urine"
            }
          ],
          "text": "Clarity of Urine"
        },
        "text": {
          "status": "generated",
          "div": "<div xmlns=\"http://www.w3.org/1999/xhtml\"><table class=\"hl7__eu__lab__report\"><tr><th>Test</th><th>28-Mar-2024</th><th>Reference&#xA0;Range</th><th>Unit</th></tr><tr><td>Clarity of Urine</td></tr></table></div>"
        },
        "status": "final",
        "subject": {
          "reference": "urn:uuid:b03c7862-39d0-49d2-a007-1f8af11c3181",
          "display": "Marthe Gallet"
        },
        "effectiveDateTime": "2024-03-28T19:05:43Z",
        "specimen": {
          "reference": "urn:uuid:2faeb2c3-c034-4add-8e02-183641469797"
        }
      }
    },
    {
      "fullUrl": "urn:uuid:aeb8e98c-e4ba-4cef-ae45-cbadf768e62d",
      "resource": {
        "resourceType": "Observation",
        "id": "aeb8e98c-e4ba-4cef-ae45-cbadf768e62d",
        "meta": {
          "profile": [
            "http://hl7.eu/fhir/laboratory/StructureDefinition/Observation-resultslab-eu-lab"
          ]
        },
        "performer": [
          {
            "display": "The Central European Lab"
          }
        ],
        "category": [
          {
            "coding": [
              {
                "system": "http://terminology.hl7.org/CodeSystem/observation-category",
                "code": "laboratory"
              }
            ]
          }
        ],
        "code": {
          "coding": [
            {
              "code": "5778-6",
              "system": "http://loinc.org",
              "display": "Color of Urine"
            }
          ],
          "text": "Color of Urine"
        },
        "text": {
          "status": "generated",
          "div": "<div xmlns=\"http://www.w3.org/1999/xhtml\"><table class=\"hl7__eu__lab__report\"><tr><th>Test</th><th>28-Mar-2024</th><th>Reference&#xA0;Range</th><th>Unit</th></tr><tr><td>Color of Urine</td></tr></table></div>"
        },
        "status": "final",
        "subject": {
          "reference": "urn:uuid:b03c7862-39d0-49d2-a007-1f8af11c3181",
          "display": "Marthe Gallet"
        },
        "effectiveDateTime": "2024-03-28T19:05:43Z",
        "specimen": {
          "reference": "urn:uuid:2faeb2c3-c034-4add-8e02-183641469797"
        }
      }
    },
    {
      "fullUrl": "urn:uuid:e4bb850d-6b65-4267-be51-6c16e4becb4b",
      "resource": {
        "resourceType": "Observation",
        "id": "e4bb850d-6b65-4267-be51-6c16e4becb4b",
        "meta": {
          "profile": [
            "http://hl7.eu/fhir/laboratory/StructureDefinition/Observation-resultslab-eu-lab"
          ]
        },
        "performer": [
          {
            "display": "The Central European Lab"
          }
        ],
        "category": [
          {
            "coding": [
              {
                "system": "http://terminology.hl7.org/CodeSystem/observation-category",
                "code": "laboratory"
              }
            ]
          }
        ],
        "code": {
          "coding": [
            {
              "code": "5792-7",
              "system": "http://loinc.org",
              "display": "Glucose [Mass/volume] in Urine by Test strip"
            }
          ],
          "text": "Glucose [Mass/volume] in Urine by Test strip"
        },
        "valueQuantity": {
          "system": "http://unitsofmeasure.org",
          "value": 2.2,
          "unit": "mg/dL",
          "code": "mg/dL"
        },
        "referenceRange": [
          {
            "low": {
              "value": 0.8,
              "code": "mg/dL",
              "system": "http://unitsofmeasure.org"
            }
          },
          {
            "high": {
              "value": 0,
              "code": "mg/dL",
              "system": "http://unitsofmeasure.org"
            }
          }
        ],
        "interpretation": [
          {
            "coding": [
              {
                "code": "H",
                "system": "http://terminology.hl7.org/CodeSystem/v3-ObservationInterpretation",
                "display": "High"
              }
            ]
          }
        ],
        "text": {
          "status": "generated",
          "div": "<div xmlns=\"http://www.w3.org/1999/xhtml\"><table class=\"hl7__eu__lab__report\"><tr><th>Test</th><th>28-Mar-2024</th><th>Reference&#xA0;Range</th><th>Unit</th></tr><tr><td>Glucose [Mass/volume] in Urine by Test strip</td><td>2.2</td><td>0.8 - 0</td><td>H</td><td>mg/dL</td></tr></table></div>"
        },
        "status": "final",
        "subject": {
          "reference": "urn:uuid:b03c7862-39d0-49d2-a007-1f8af11c3181",
          "display": "Marthe Gallet"
        },
        "effectiveDateTime": "2024-03-28T19:05:43Z",
        "specimen": {
          "reference": "urn:uuid:2faeb2c3-c034-4add-8e02-183641469797"
        }
      }
    },
    {
      "fullUrl": "urn:uuid:69291898-6225-43a0-9a91-41313d20dcc2",
      "resource": {
        "resourceType": "Observation",
        "id": "69291898-6225-43a0-9a91-41313d20dcc2",
        "meta": {
          "profile": [
            "http://hl7.eu/fhir/laboratory/StructureDefinition/Observation-resultslab-eu-lab"
          ]
        },
        "performer": [
          {
            "display": "The Central European Lab"
          }
        ],
        "category": [
          {
            "coding": [
              {
                "system": "http://terminology.hl7.org/CodeSystem/observation-category",
                "code": "laboratory"
              }
            ]
          }
        ],
        "code": {
          "coding": [
            {
              "code": "25428-4",
              "system": "http://loinc.org",
              "display": "Glucose [Presence] in Urine by Test strip"
            }
          ],
          "text": "Glucose [Presence] in Urine by Test strip"
        },
        "text": {
          "status": "generated",
          "div": "<div xmlns=\"http://www.w3.org/1999/xhtml\"><table class=\"hl7__eu__lab__report\"><tr><th>Test</th><th>28-Mar-2024</th><th>Reference&#xA0;Range</th><th>Unit</th></tr><tr><td>Glucose [Presence] in Urine by Test strip</td></tr></table></div>"
        },
        "status": "final",
        "subject": {
          "reference": "urn:uuid:b03c7862-39d0-49d2-a007-1f8af11c3181",
          "display": "Marthe Gallet"
        },
        "effectiveDateTime": "2024-03-28T19:05:43Z",
        "specimen": {
          "reference": "urn:uuid:2faeb2c3-c034-4add-8e02-183641469797"
        }
      }
    },
    {
      "fullUrl": "urn:uuid:faeb6f19-e15f-4844-8956-32ff2a752296",
      "resource": {
        "resourceType": "Observation",
        "id": "faeb6f19-e15f-4844-8956-32ff2a752296",
        "meta": {
          "profile": [
            "http://hl7.eu/fhir/laboratory/StructureDefinition/Observation-resultslab-eu-lab"
          ]
        },
        "performer": [
          {
            "display": "The Central European Lab"
          }
        ],
        "category": [
          {
            "coding": [
              {
                "system": "http://terminology.hl7.org/CodeSystem/observation-category",
                "code": "laboratory"
              }
            ]
          }
        ],
        "code": {
          "coding": [
            {
              "code": "20505-4",
              "system": "http://loinc.org",
              "display": "Bilirubin.total [Mass/volume] in Urine by Test strip"
            }
          ],
          "text": "Bilirubin.total [Mass/volume] in Urine by Test strip"
        },
        "valueQuantity": {
          "system": "http://unitsofmeasure.org",
          "value": 0.5,
          "unit": "mg/dL",
          "code": "mg/dL"
        },
        "referenceRange": [
          {
            "low": {
              "value": 0,
              "code": "mg/dL",
              "system": "http://unitsofmeasure.org"
            }
          },
          {
            "high": {
              "value": 1,
              "code": "mg/dL",
              "system": "http://unitsofmeasure.org"
            }
          }
        ],
        "text": {
          "status": "generated",
          "div": "<div xmlns=\"http://www.w3.org/1999/xhtml\"><table class=\"hl7__eu__lab__report\"><tr><th>Test</th><th>28-Mar-2024</th><th>Reference&#xA0;Range</th><th>Unit</th></tr><tr><td>Bilirubin.total [Mass/volume] in Urine by Test strip</td><td>0.5</td><td>0 - 1</td><td></td><td>mg/dL</td></tr></table></div>"
        },
        "status": "final",
        "subject": {
          "reference": "urn:uuid:b03c7862-39d0-49d2-a007-1f8af11c3181",
          "display": "Marthe Gallet"
        },
        "effectiveDateTime": "2024-03-28T19:05:43Z",
        "specimen": {
          "reference": "urn:uuid:2faeb2c3-c034-4add-8e02-183641469797"
        }
      }
    },
    {
      "fullUrl": "urn:uuid:04239cba-af2f-4783-91cf-40ff3bae13a2",
      "resource": {
        "resourceType": "Observation",
        "id": "04239cba-af2f-4783-91cf-40ff3bae13a2",
        "meta": {
          "profile": [
            "http://hl7.eu/fhir/laboratory/StructureDefinition/Observation-resultslab-eu-lab"
          ]
        },
        "performer": [
          {
            "display": "The Central European Lab"
          }
        ],
        "category": [
          {
            "coding": [
              {
                "system": "http://terminology.hl7.org/CodeSystem/observation-category",
                "code": "laboratory"
              }
            ]
          }
        ],
        "code": {
          "coding": [
            {
              "code": "5770-3",
              "system": "http://loinc.org",
              "display": "Bilirubin.total [Presence] in Urine by Test strip"
            }
          ],
          "text": "Bilirubin.total [Presence] in Urine by Test strip"
        },
        "text": {
          "status": "generated",
          "div": "<div xmlns=\"http://www.w3.org/1999/xhtml\"><table class=\"hl7__eu__lab__report\"><tr><th>Test</th><th>28-Mar-2024</th><th>Reference&#xA0;Range</th><th>Unit</th></tr><tr><td>Bilirubin.total [Presence] in Urine by Test strip</td></tr></table></div>"
        },
        "status": "final",
        "subject": {
          "reference": "urn:uuid:b03c7862-39d0-49d2-a007-1f8af11c3181",
          "display": "Marthe Gallet"
        },
        "effectiveDateTime": "2024-03-28T19:05:43Z",
        "specimen": {
          "reference": "urn:uuid:2faeb2c3-c034-4add-8e02-183641469797"
        }
      }
    },
    {
      "fullUrl": "urn:uuid:d8078171-7223-4e88-9dd1-6fd8e8fa7ec7",
      "resource": {
        "resourceType": "Observation",
        "id": "d8078171-7223-4e88-9dd1-6fd8e8fa7ec7",
        "meta": {
          "profile": [
            "http://hl7.eu/fhir/laboratory/StructureDefinition/Observation-resultslab-eu-lab"
          ]
        },
        "performer": [
          {
            "display": "The Central European Lab"
          }
        ],
        "category": [
          {
            "coding": [
              {
                "system": "http://terminology.hl7.org/CodeSystem/observation-category",
                "code": "laboratory"
              }
            ]
          }
        ],
        "code": {
          "coding": [
            {
              "code": "5797-6",
              "system": "http://loinc.org",
              "display": "Ketones [Mass/volume] in Urine by Test strip"
            }
          ],
          "text": "Ketones [Mass/volume] in Urine by Test strip"
        },
        "valueQuantity": {
          "system": "http://unitsofmeasure.org",
          "value": 3.8,
          "unit": "mg/dL",
          "code": "mg/dL"
        },
        "referenceRange": [
          {
            "low": {
              "value": 0,
              "code": "mg/dL",
              "system": "http://unitsofmeasure.org"
            }
          },
          {
            "high": {
              "value": 20,
              "code": "mg/dL",
              "system": "http://unitsofmeasure.org"
            }
          }
        ],
        "text": {
          "status": "generated",
          "div": "<div xmlns=\"http://www.w3.org/1999/xhtml\"><table class=\"hl7__eu__lab__report\"><tr><th>Test</th><th>28-Mar-2024</th><th>Reference&#xA0;Range</th><th>Unit</th></tr><tr><td>Ketones [Mass/volume] in Urine by Test strip</td><td>3.8</td><td>0 - 20</td><td></td><td>mg/dL</td></tr></table></div>"
        },
        "status": "final",
        "subject": {
          "reference": "urn:uuid:b03c7862-39d0-49d2-a007-1f8af11c3181",
          "display": "Marthe Gallet"
        },
        "effectiveDateTime": "2024-03-28T19:05:43Z",
        "specimen": {
          "reference": "urn:uuid:2faeb2c3-c034-4add-8e02-183641469797"
        }
      }
    },
    {
      "fullUrl": "urn:uuid:de2ead3a-5549-477a-bc29-e51cdf2e1354",
      "resource": {
        "resourceType": "Observation",
        "id": "de2ead3a-5549-477a-bc29-e51cdf2e1354",
        "meta": {
          "profile": [
            "http://hl7.eu/fhir/laboratory/StructureDefinition/Observation-resultslab-eu-lab"
          ]
        },
        "performer": [
          {
            "display": "The Central European Lab"
          }
        ],
        "category": [
          {
            "coding": [
              {
                "system": "http://terminology.hl7.org/CodeSystem/observation-category",
                "code": "laboratory"
              }
            ]
          }
        ],
        "code": {
          "coding": [
            {
              "code": "2514-8",
              "system": "http://loinc.org",
              "display": "Ketones [Presence] in Urine by Test strip"
            }
          ],
          "text": "Ketones [Presence] in Urine by Test strip"
        },
        "text": {
          "status": "generated",
          "div": "<div xmlns=\"http://www.w3.org/1999/xhtml\"><table class=\"hl7__eu__lab__report\"><tr><th>Test</th><th>28-Mar-2024</th><th>Reference&#xA0;Range</th><th>Unit</th></tr><tr><td>Ketones [Presence] in Urine by Test strip</td></tr></table></div>"
        },
        "status": "final",
        "subject": {
          "reference": "urn:uuid:b03c7862-39d0-49d2-a007-1f8af11c3181",
          "display": "Marthe Gallet"
        },
        "effectiveDateTime": "2024-03-28T19:05:43Z",
        "specimen": {
          "reference": "urn:uuid:2faeb2c3-c034-4add-8e02-183641469797"
        }
      }
    },
    {
      "fullUrl": "urn:uuid:22392410-dda2-4f64-b1b1-83899865b91f",
      "resource": {
        "resourceType": "Observation",
        "id": "22392410-dda2-4f64-b1b1-83899865b91f",
        "meta": {
          "profile": [
            "http://hl7.eu/fhir/laboratory/StructureDefinition/Observation-resultslab-eu-lab"
          ]
        },
        "performer": [
          {
            "display": "The Central European Lab"
          }
        ],
        "category": [
          {
            "coding": [
              {
                "system": "http://terminology.hl7.org/CodeSystem/observation-category",
                "code": "laboratory"
              }
            ]
          }
        ],
        "code": {
          "coding": [
            {
              "code": "5811-5",
              "system": "http://loinc.org",
              "display": "Specific gravity of Urine by Test strip"
            }
          ],
          "text": "Specific gravity of Urine by Test strip"
        },
        "valueQuantity": {
          "system": "http://unitsofmeasure.org",
          "value": 1,
          "unit": "{nominal}",
          "code": "{nominal}"
        },
        "referenceRange": [
          {
            "low": {
              "value": 1.01,
              "code": "g/mL",
              "system": "http://unitsofmeasure.org"
            }
          },
          {
            "high": {
              "value": 1.03,
              "code": "g/mL",
              "system": "http://unitsofmeasure.org"
            }
          }
        ],
        "interpretation": [
          {
            "coding": [
              {
                "code": "L",
                "system": "http://terminology.hl7.org/CodeSystem/v3-ObservationInterpretation",
                "display": "Low"
              }
            ]
          }
        ],
        "text": {
          "status": "generated",
          "div": "<div xmlns=\"http://www.w3.org/1999/xhtml\"><table class=\"hl7__eu__lab__report\"><tr><th>Test</th><th>28-Mar-2024</th><th>Reference&#xA0;Range</th><th>Unit</th></tr><tr><td>Specific gravity of Urine by Test strip</td><td>1.0</td><td>1.01 - 1.03</td><td>L</td><td>{nominal}</td></tr></table></div>"
        },
        "status": "final",
        "subject": {
          "reference": "urn:uuid:b03c7862-39d0-49d2-a007-1f8af11c3181",
          "display": "Marthe Gallet"
        },
        "effectiveDateTime": "2024-03-28T19:05:43Z",
        "specimen": {
          "reference": "urn:uuid:2faeb2c3-c034-4add-8e02-183641469797"
        }
      }
    },
    {
      "fullUrl": "urn:uuid:52cb0616-df52-4a83-add4-e48e95a64bec",
      "resource": {
        "resourceType": "Observation",
        "id": "52cb0616-df52-4a83-add4-e48e95a64bec",
        "meta": {
          "profile": [
            "http://hl7.eu/fhir/laboratory/StructureDefinition/Observation-resultslab-eu-lab"
          ]
        },
        "performer": [
          {
            "display": "The Central European Lab"
          }
        ],
        "category": [
          {
            "coding": [
              {
                "system": "http://terminology.hl7.org/CodeSystem/observation-category",
                "code": "laboratory"
              }
            ]
          }
        ],
        "code": {
          "coding": [
            {
              "code": "5803-2",
              "system": "http://loinc.org",
              "display": "pH of Urine by Test strip"
            }
          ],
          "text": "pH of Urine by Test strip"
        },
        "valueQuantity": {
          "system": "http://unitsofmeasure.org",
          "value": 6.9,
          "unit": "pH",
          "code": "pH"
        },
        "referenceRange": [
          {
            "low": {
              "value": 4.6,
              "code": "pH",
              "system": "http://unitsofmeasure.org"
            }
          },
          {
            "high": {
              "value": 7,
              "code": "pH",
              "system": "http://unitsofmeasure.org"
            }
          }
        ],
        "text": {
          "status": "generated",
          "div": "<div xmlns=\"http://www.w3.org/1999/xhtml\"><table class=\"hl7__eu__lab__report\"><tr><th>Test</th><th>28-Mar-2024</th><th>Reference&#xA0;Range</th><th>Unit</th></tr><tr><td>pH of Urine by Test strip</td><td>6.9</td><td>4.6 - 7</td><td></td><td>pH</td></tr></table></div>"
        },
        "status": "final",
        "subject": {
          "reference": "urn:uuid:b03c7862-39d0-49d2-a007-1f8af11c3181",
          "display": "Marthe Gallet"
        },
        "effectiveDateTime": "2024-03-28T19:05:43Z",
        "specimen": {
          "reference": "urn:uuid:2faeb2c3-c034-4add-8e02-183641469797"
        }
      }
    },
    {
      "fullUrl": "urn:uuid:1641afb1-29a0-471d-95b3-7299fad12708",
      "resource": {
        "resourceType": "Observation",
        "id": "1641afb1-29a0-471d-95b3-7299fad12708",
        "meta": {
          "profile": [
            "http://hl7.eu/fhir/laboratory/StructureDefinition/Observation-resultslab-eu-lab"
          ]
        },
        "performer": [
          {
            "display": "The Central European Lab"
          }
        ],
        "category": [
          {
            "coding": [
              {
                "system": "http://terminology.hl7.org/CodeSystem/observation-category",
                "code": "laboratory"
              }
            ]
          }
        ],
        "code": {
          "coding": [
            {
              "code": "5804-0",
              "system": "http://loinc.org",
              "display": "Protein [Mass/volume] in Urine by Test strip"
            }
          ],
          "text": "Protein [Mass/volume] in Urine by Test strip"
        },
        "valueQuantity": {
          "system": "http://unitsofmeasure.org",
          "value": 243.9,
          "unit": "mg/dL",
          "code": "mg/dL"
        },
        "referenceRange": [
          {
            "low": {
              "value": 0,
              "code": "mg/dL",
              "system": "http://unitsofmeasure.org"
            }
          },
          {
            "high": {
              "value": 15,
              "code": "mg/dL",
              "system": "http://unitsofmeasure.org"
            }
          }
        ],
        "interpretation": [
          {
            "coding": [
              {
                "code": "H",
                "system": "http://terminology.hl7.org/CodeSystem/v3-ObservationInterpretation",
                "display": "High"
              }
            ]
          }
        ],
        "text": {
          "status": "generated",
          "div": "<div xmlns=\"http://www.w3.org/1999/xhtml\"><table class=\"hl7__eu__lab__report\"><tr><th>Test</th><th>28-Mar-2024</th><th>Reference&#xA0;Range</th><th>Unit</th></tr><tr><td>Protein [Mass/volume] in Urine by Test strip</td><td>243.9</td><td>0 - 15</td><td>H</td><td>mg/dL</td></tr></table></div>"
        },
        "status": "final",
        "subject": {
          "reference": "urn:uuid:b03c7862-39d0-49d2-a007-1f8af11c3181",
          "display": "Marthe Gallet"
        },
        "effectiveDateTime": "2024-03-28T19:05:43Z",
        "specimen": {
          "reference": "urn:uuid:2faeb2c3-c034-4add-8e02-183641469797"
        }
      }
    },
    {
      "fullUrl": "urn:uuid:c9a16d01-b35f-4329-9da7-4712f766518f",
      "resource": {
        "resourceType": "Observation",
        "id": "c9a16d01-b35f-4329-9da7-4712f766518f",
        "meta": {
          "profile": [
            "http://hl7.eu/fhir/laboratory/StructureDefinition/Observation-resultslab-eu-lab"
          ]
        },
        "performer": [
          {
            "display": "The Central European Lab"
          }
        ],
        "category": [
          {
            "coding": [
              {
                "system": "http://terminology.hl7.org/CodeSystem/observation-category",
                "code": "laboratory"
              }
            ]
          }
        ],
        "code": {
          "coding": [
            {
              "code": "20454-5",
              "system": "http://loinc.org",
              "display": "Protein [Presence] in Urine by Test strip"
            }
          ],
          "text": "Protein [Presence] in Urine by Test strip"
        },
        "text": {
          "status": "generated",
          "div": "<div xmlns=\"http://www.w3.org/1999/xhtml\"><table class=\"hl7__eu__lab__report\"><tr><th>Test</th><th>28-Mar-2024</th><th>Reference&#xA0;Range</th><th>Unit</th></tr><tr><td>Protein [Presence] in Urine by Test strip</td></tr></table></div>"
        },
        "status": "final",
        "subject": {
          "reference": "urn:uuid:b03c7862-39d0-49d2-a007-1f8af11c3181",
          "display": "Marthe Gallet"
        },
        "effectiveDateTime": "2024-03-28T19:05:43Z",
        "specimen": {
          "reference": "urn:uuid:2faeb2c3-c034-4add-8e02-183641469797"
        }
      }
    },
    {
      "fullUrl": "urn:uuid:ed01866b-0b7c-4663-9998-0150f8988707",
      "resource": {
        "resourceType": "Observation",
        "id": "ed01866b-0b7c-4663-9998-0150f8988707",
        "meta": {
          "profile": [
            "http://hl7.eu/fhir/laboratory/StructureDefinition/Observation-resultslab-eu-lab"
          ]
        },
        "performer": [
          {
            "display": "The Central European Lab"
          }
        ],
        "category": [
          {
            "coding": [
              {
                "system": "http://terminology.hl7.org/CodeSystem/observation-category",
                "code": "laboratory"
              }
            ]
          }
        ],
        "code": {
          "coding": [
            {
              "code": "5802-4",
              "system": "http://loinc.org",
              "display": "Nitrite [Presence] in Urine by Test strip"
            }
          ],
          "text": "Nitrite [Presence] in Urine by Test strip"
        },
        "text": {
          "status": "generated",
          "div": "<div xmlns=\"http://www.w3.org/1999/xhtml\"><table class=\"hl7__eu__lab__report\"><tr><th>Test</th><th>28-Mar-2024</th><th>Reference&#xA0;Range</th><th>Unit</th></tr><tr><td>Nitrite [Presence] in Urine by Test strip</td></tr></table></div>"
        },
        "status": "final",
        "subject": {
          "reference": "urn:uuid:b03c7862-39d0-49d2-a007-1f8af11c3181",
          "display": "Marthe Gallet"
        },
        "effectiveDateTime": "2024-03-28T19:05:43Z",
        "specimen": {
          "reference": "urn:uuid:2faeb2c3-c034-4add-8e02-183641469797"
        }
      }
    },
    {
      "fullUrl": "urn:uuid:16bc90ce-0c74-416c-9cc4-98ffa21dc022",
      "resource": {
        "resourceType": "Observation",
        "id": "16bc90ce-0c74-416c-9cc4-98ffa21dc022",
        "meta": {
          "profile": [
            "http://hl7.eu/fhir/laboratory/StructureDefinition/Observation-resultslab-eu-lab"
          ]
        },
        "performer": [
          {
            "display": "The Central European Lab"
          }
        ],
        "category": [
          {
            "coding": [
              {
                "system": "http://terminology.hl7.org/CodeSystem/observation-category",
                "code": "laboratory"
              }
            ]
          }
        ],
        "code": {
          "coding": [
            {
              "code": "5794-3",
              "system": "http://loinc.org",
              "display": "Hemoglobin [Presence] in Urine by Test strip"
            }
          ],
          "text": "Hemoglobin [Presence] in Urine by Test strip"
        },
        "text": {
          "status": "generated",
          "div": "<div xmlns=\"http://www.w3.org/1999/xhtml\"><table class=\"hl7__eu__lab__report\"><tr><th>Test</th><th>28-Mar-2024</th><th>Reference&#xA0;Range</th><th>Unit</th></tr><tr><td>Hemoglobin [Presence] in Urine by Test strip</td></tr></table></div>"
        },
        "status": "final",
        "subject": {
          "reference": "urn:uuid:b03c7862-39d0-49d2-a007-1f8af11c3181",
          "display": "Marthe Gallet"
        },
        "effectiveDateTime": "2024-03-28T19:05:43Z",
        "specimen": {
          "reference": "urn:uuid:2faeb2c3-c034-4add-8e02-183641469797"
        }
      }
    },
    {
      "fullUrl": "urn:uuid:979f9e1b-1c5c-41d3-bcfa-a0a84c7c688c",
      "resource": {
        "resourceType": "Observation",
        "id": "979f9e1b-1c5c-41d3-bcfa-a0a84c7c688c",
        "meta": {
          "profile": [
            "http://hl7.eu/fhir/laboratory/StructureDefinition/Observation-resultslab-eu-lab"
          ]
        },
        "performer": [
          {
            "display": "The Central European Lab"
          }
        ],
        "category": [
          {
            "coding": [
              {
                "system": "http://terminology.hl7.org/CodeSystem/observation-category",
                "code": "laboratory"
              }
            ]
          }
        ],
        "code": {
          "coding": [
            {
              "code": "5799-2",
              "system": "http://loinc.org",
              "display": "Leukocyte esterase [Presence] in Urine by Test strip"
            }
          ],
          "text": "Leukocyte esterase [Presence] in Urine by Test strip"
        },
        "text": {
          "status": "generated",
          "div": "<div xmlns=\"http://www.w3.org/1999/xhtml\"><table class=\"hl7__eu__lab__report\"><tr><th>Test</th><th>28-Mar-2024</th><th>Reference&#xA0;Range</th><th>Unit</th></tr><tr><td>Leukocyte esterase [Presence] in Urine by Test strip</td></tr></table></div>"
        },
        "status": "final",
        "subject": {
          "reference": "urn:uuid:b03c7862-39d0-49d2-a007-1f8af11c3181",
          "display": "Marthe Gallet"
        },
        "effectiveDateTime": "2024-03-28T19:05:43Z",
        "specimen": {
          "reference": "urn:uuid:2faeb2c3-c034-4add-8e02-183641469797"
        }
      }
    },
    {
      "fullUrl": "urn:uuid:3ed98e56-0477-4651-970e-9572ba6e0ae3",
      "resource": {
        "resourceType": "Device",
        "id": "3ed98e56-0477-4651-970e-9572ba6e0ae3",
        "deviceName": [
          {
            "name": "SYNDERAI Synthetic Generator",
            "type": "manufacturer-name"
          }
        ],
        "version": [
          {
            "value": "5.0"
          }
        ],
        "text": {
          "status": "generated",
          "div": "<div xmlns=\"http://www.w3.org/1999/xhtml\">SYNDERAI Synthetic Generator v5.0</div>"
        },
        "status": "active\"",
        "distinctIdentifier": "synderai-generator-50",
        "manufacturer": "SYNDERAI Project"
      }
    },
    {
      "fullUrl": "urn:uuid:5a430ab4-8217-4dcd-b4d0-4fd2b5f662dd",
      "resource": {
        "resourceType": "Provenance",
        "id": "5a430ab4-8217-4dcd-b4d0-4fd2b5f662dd",
        "target": [
          {
            "reference": "Patient/b03c7862-39d0-49d2-a007-1f8af11c3181"
          },
          {
            "reference": "Bundle/aa6f1b76-c99b-4efe-b859-e5453f95fa0a"
          },
          {
            "reference": "Composition/e01120fc-b156-4221-a9cf-64162763fd26"
          },
          {
            "reference": "PractitionerRole/bed5e0bc-cde7-47c7-9ad1-fdf3ed3e6b8a"
          },
          {
            "reference": "Practitioner/7c9cf1fe-dfd0-46ea-a687-b5a46f840d48"
          },
          {
            "reference": "PractitionerRole/08b9d0f0-9c29-4ef2-beef-8ce87496142a"
          },
          {
            "reference": "Organization/97bd36ac-ecc4-4383-80aa-40f152ddbba6"
          }
        ],
        "activity": {
          "text": "Synthetic Example Data Generation"
        },
        "policy": [
          "https://synderai.net/synderai-synthetic-data-policy"
        ],
        "agent": [
          {
            "type": {
              "text": "author"
            },
            "who": {
              "reference": "Device/3ed98e56-0477-4651-970e-9572ba6e0ae3"
            }
          }
        ],
        "reason": [
          {
            "text": "Interoperability Testing and Training (non-clinical use)"
          }
        ],
        "text": {
          "status": "generated",
          "div": "<div xmlns=\"http://www.w3.org/1999/xhtml\">Provenance for SYNDERAI Synthetic Example Data Resource</div>"
        },
        "recorded": "2024-03-28T20:05:43Z"
      }
    },
    {
      "fullUrl": "urn:uuid:bed5e0bc-cde7-47c7-9ad1-fdf3ed3e6b8a",
      "resource": {
        "resourceType": "PractitionerRole",
        "id": "bed5e0bc-cde7-47c7-9ad1-fdf3ed3e6b8a",
        "meta": {
          "profile": [
            "http://hl7.eu/fhir/base/StructureDefinition/practitionerRole-eu"
          ]
        },
        "text": {
          "status": "generated",
          "div": "<div xmlns=\"http://www.w3.org/1999/xhtml\">Laboratory Role Id: bed5e0bc-cde7-47c7-9ad1-fdf3ed3e6b8a</div>"
        },
        "practitioner": {
          "reference": "urn:uuid:7c9cf1fe-dfd0-46ea-a687-b5a46f840d48"
        }
      }
    },
    {
      "fullUrl": "urn:uuid:7c9cf1fe-dfd0-46ea-a687-b5a46f840d48",
      "resource": {
        "resourceType": "Practitioner",
        "id": "7c9cf1fe-dfd0-46ea-a687-b5a46f840d48",
        "meta": {
          "profile": [
            "http://hl7.eu/fhir/base/StructureDefinition/practitioner-eu"
          ]
        },
        "identifier": [
          {
            "assigner": {
              "display": "HL7 Europe"
            },
            "system": "urn:oid:2.16.840.1.113883.2.51.999",
            "value": "e9538642-c8d0-48a7-bb6a-62ecc9ae0995"
          }
        ],
        "name": [
          {
            "prefix": [
              "dr"
            ],
            "given": [
              "Ex"
            ],
            "family": "Ample"
          }
        ],
        "address": [
          {
            "line": [
              "Laboratoire Central Européenne",
              "Boulevard du Jardin Botanique 32"
            ],
            "postalCode": "1000",
            "city": "Brussels",
            "country": "Belgium"
          }
        ],
        "text": {
          "status": "generated",
          "div": "<div xmlns=\"http://www.w3.org/1999/xhtml\">Laboratory: Laboratoire Central Européenne, 1000 Brussels, Belgium</div>"
        }
      }
    }
  ],
  "type": "document",
  "timestamp": "2024-03-28T20:05:43Z"
}
