{
  "resourceType": "Bundle",
  "id": "4bf0ef54-ea46-4b98-894a-e83e72fe3dbb",
  "meta": {
    "profile": [
      "http://hl7.eu/fhir/laboratory/StructureDefinition/Bundle-eu-lab"
    ]
  },
  "identifier": {
    "assigner": {
      "display": "HL7 Europe"
    },
    "system": "urn:oid:2.16.840.1.113883.2.51.999",
    "value": "7ee66fa0-54ca-491a-9b5f-36a0a8cdbba8"
  },
  "entry": [
    {
      "fullUrl": "urn:uuid:8909b9b6-81e5-4c65-8881-92afbc0f1451",
      "resource": {
        "resourceType": "Composition",
        "id": "8909b9b6-81e5-4c65-8881-92afbc0f1451",
        "meta": {
          "profile": [
            "http://hl7.eu/fhir/laboratory/StructureDefinition/Composition-eu-lab"
          ]
        },
        "identifier": {
          "assigner": {
            "display": "HL7 Europe"
          },
          "system": "urn:oid:2.16.840.1.113883.2.51.999",
          "value": "4489ebb8-a1da-49c6-a734-63afe519bfbe"
        },
        "author": [
          {
            "reference": "urn:uuid:fe7c9404-e58a-416c-8c56-a9920ebbdd72"
          }
        ],
        "category": [
          {
            "coding": [
              {
                "code": "26436-6",
                "system": "http://loinc.org",
                "display": "Laboratory studies (set)"
              }
            ]
          }
        ],
        "type": {
          "coding": [
            {
              "code": "11502-2",
              "system": "http://loinc.org",
              "display": "Laboratory report"
            }
          ],
          "text": "Laboratory Report"
        },
        "section": [
          {
            "code": {
              "coding": [
                {
                  "code": "26436-6",
                  "system": "http://loinc.org",
                  "display": "Laboratory studies (set)"
                }
              ],
              "text": "Laboratory studies"
            },
            "section": [
              {
                "code": {
                  "coding": [
                    {
                      "code": "$18719-5",
                      "system": "http://loinc.org",
                      "display": "Chemistry studies (set)"
                    }
                  ],
                  "text": "Chemistry"
                },
                "entry": [
                  {
                    "reference": "urn:uuid:0ddca15b-b3bf-4501-910e-43cee3b6915e"
                  },
                  {
                    "reference": "urn:uuid:70d0a161-9d3b-4318-997b-73583d8d1d48"
                  },
                  {
                    "reference": "urn:uuid:c9b8fcff-0996-4739-9d6a-2d88d0c35422"
                  },
                  {
                    "reference": "urn:uuid:7374651e-bd68-4fac-9e69-616e7a3375eb"
                  },
                  {
                    "reference": "urn:uuid:05c853eb-7f85-4db3-a4eb-c2668bbdd634"
                  },
                  {
                    "reference": "urn:uuid:82986ca7-9a23-4f72-a838-3e2b6e69bb76"
                  },
                  {
                    "reference": "urn:uuid:97beb8ef-9a01-4f52-bb1a-4d588d4ea0a5"
                  },
                  {
                    "reference": "urn:uuid:bfc9a47a-6777-498f-89c3-20e0a02a9400"
                  },
                  {
                    "reference": "urn:uuid:66c10c8d-0bee-45b6-87df-71dfe57cbb14"
                  }
                ],
                "text": {
                  "status": "generated",
                  "div": "<div xmlns=\"http://www.w3.org/1999/xhtml\"><h3>Chemistry</h3><table class=\"hl7__eu__lab__report\"><thead><tr><th>Test</th><th>08-JUL-2017</th><th>Reference&#xA0;Range</th><th>Unit</th></tr></thead><tbody><tr><td>Hemoglobin A1c/Hemoglobin.total in Blood</td><td>5.9</td><td>4.3 - 6.4</td><td>%</td></tr><tr><td>Glucose [Mass/volume] in Blood</td><td>80.1</td><td>70 - 140</td><td>mg/dL</td></tr><tr><td>Urea nitrogen [Mass/volume] in Blood</td><td>10.4</td><td>7 - 20</td><td>mg/dL</td></tr><tr><td>Creatinine [Mass/volume] in Blood</td><td><strong>1.7 H</strong></td><td>0.6 - 1.3</td><td>mg/dL</td></tr><tr><td>Calcium [Mass/volume] in Blood</td><td>9.1</td><td>8.5 - 10.5</td><td>mg/dL</td></tr><tr><td>Sodium [Moles/volume] in Blood</td><td>139.8</td><td>135 - 145</td><td>mmol/L</td></tr><tr><td>Potassium [Moles/volume] in Blood</td><td>3.9</td><td>3.5 - 5.3</td><td>mmol/L</td></tr><tr><td>Chloride [Moles/volume] in Blood</td><td>101.2</td><td>98 - 110</td><td>mmol/L</td></tr><tr><td>Carbon dioxide, total [Moles/volume] in Blood</td><td>24.6</td><td>22 - 29</td><td>mmol/L</td></tr></tbody></table></div>"
                },
                "title": "Chemistry"
              }
            ],
            "title": "Laboratory Report"
          },
          {
            "text": {
              "status": "generated",
              "div": "<div xmlns=\"http://www.w3.org/1999/xhtml\"><h3>Annotation</h3><table class=\"hl7__eu__lab__report\"><tr><th>Conclusion and Recommendations based on this report and previous findings known to us</th></tr><tr><td>All measured parameters are within normal limits except for a mildly elevated creatinine, which may indicate reduced renal function. Glucose and HbA1c are within target ranges, suggesting good glycemic control. Electrolytes, urea, and calcium are normal. Recommend clinical correlation for renal function and consideration of repeat or further renal assessment if not previously evaluated.</td></tr></table></div>"
            },
            "code": {
              "coding": [
                {
                  "system": "http://loinc.org",
                  "code": "48767-8",
                  "display": "Annotation comment"
                }
              ]
            },
            "title": "Annotation comment"
          }
        ],
        "status": "final",
        "subject": {
          "reference": "urn:uuid:4bd30cd4-a723-4598-9ca5-48cd99628860",
          "display": "Andrzej Frydrychowicz"
        },
        "date": "2017-07-08T23:33:04Z",
        "title": "Laboratory Report",
        "confidentiality": "N"
      }
    },
    {
      "fullUrl": "urn:uuid:68f29fee-9716-4f6f-9e5f-33429bffc120",
      "resource": {
        "resourceType": "DiagnosticReport",
        "id": "68f29fee-9716-4f6f-9e5f-33429bffc120",
        "meta": {
          "profile": [
            "http://hl7.eu/fhir/laboratory/StructureDefinition/DiagnosticReport-eu-lab"
          ]
        },
        "identifier": [
          {
            "assigner": {
              "display": "HL7 Europe"
            },
            "system": "urn:oid:2.16.840.1.113883.2.51.999",
            "value": "760ca46a-c3c9-43e7-b292-cada35eec40c"
          }
        ],
        "extension": [
          {
            "url": "http://hl7.org/fhir/5.0/StructureDefinition/extension-DiagnosticReport.composition",
            "valueReference": {
              "reference": "urn:uuid:4489ebb8-a1da-49c6-a734-63afe519bfbe"
            }
          }
        ],
        "category": [
          {
            "coding": [
              {
                "code": "26436-6",
                "system": "http://loinc.org",
                "display": "Laboratory studies (set)"
              }
            ]
          }
        ],
        "specimen": [
          {
            "reference": "urn:uuid:74a1ee70-7bd2-42b2-b6c4-27c17df25e56"
          }
        ],
        "result": [
          {
            "reference": "urn:uuid:0ddca15b-b3bf-4501-910e-43cee3b6915e"
          },
          {
            "reference": "urn:uuid:70d0a161-9d3b-4318-997b-73583d8d1d48"
          },
          {
            "reference": "urn:uuid:c9b8fcff-0996-4739-9d6a-2d88d0c35422"
          },
          {
            "reference": "urn:uuid:7374651e-bd68-4fac-9e69-616e7a3375eb"
          },
          {
            "reference": "urn:uuid:05c853eb-7f85-4db3-a4eb-c2668bbdd634"
          },
          {
            "reference": "urn:uuid:82986ca7-9a23-4f72-a838-3e2b6e69bb76"
          },
          {
            "reference": "urn:uuid:97beb8ef-9a01-4f52-bb1a-4d588d4ea0a5"
          },
          {
            "reference": "urn:uuid:bfc9a47a-6777-498f-89c3-20e0a02a9400"
          },
          {
            "reference": "urn:uuid:66c10c8d-0bee-45b6-87df-71dfe57cbb14"
          }
        ],
        "status": "registered",
        "code": {
          "coding": [
            {
              "code": "11502-2",
              "system": "http://loinc.org",
              "display": "Laboratory report"
            }
          ]
        },
        "subject": {
          "reference": "urn:uuid:4bd30cd4-a723-4598-9ca5-48cd99628860",
          "display": "Andrzej Frydrychowicz"
        }
      }
    },
    {
      "fullUrl": "urn:uuid:4bd30cd4-a723-4598-9ca5-48cd99628860",
      "resource": {
        "resourceType": "Patient",
        "id": "4bd30cd4-a723-4598-9ca5-48cd99628860",
        "meta": {
          "security": [
            {
              "system": "http://terminology.hl7.org/CodeSystem/v3-ActReason",
              "code": "HTEST"
            },
            {
              "system": "http://terminology.hl7.org/CodeSystem/v3-ActReason",
              "code": "TRAIN"
            }
          ],
          "tag": [
            {
              "system": "https://synderai.net/fhir/CodeSystem/tags",
              "code": "synthetic",
              "display": "SYNDERAI Synthetic data"
            }
          ],
          "profile": [
            "http://hl7.eu/fhir/base/StructureDefinition/patient-eu-core"
          ]
        },
        "identifier": [
          {
            "type": {
              "coding": [
                {
                  "code": "PT",
                  "system": "http://terminology.hl7.org/CodeSystem/v2-0203"
                }
              ]
            },
            "system": "http://ec.europa.eu/identifier/eci",
            "value": "7036-931598-4"
          },
          {
            "type": {
              "coding": [
                {
                  "code": "MR",
                  "system": "http://terminology.hl7.org/CodeSystem/v2-0203"
                }
              ]
            },
            "system": "http://local.setting.eu/identifier",
            "value": "c84bd820-cdcf-9bc1-d9ba-aa083a5eb400"
          }
        ],
        "name": [
          {
            "family": "Frydrychowicz"
          },
          {
            "given": [
              "Andrzej"
            ]
          },
          {
            "text": "Andrzej Frydrychowicz"
          }
        ],
        "address": [
          {
            "line": [
              "aleja Tulipanowa 94"
            ],
            "use": "home",
            "type": "physical",
            "postalCode": "21-040",
            "city": "Świdnik",
            "country": "Poland"
          }
        ],
        "telecom": [
          {
            "system": "phone",
            "value": "516 092 560"
          }
        ],
        "extension": [
          {
            "url": "http://hl7.org/fhir/StructureDefinition/patient-nationality",
            "valueCodeableConcept": {
              "coding": [
                {
                  "code": "PL",
                  "system": "http://hl7.org/fhir/ValueSet/country"
                }
              ]
            }
          }
        ],
        "text": {
          "status": "generated",
          "div": "<div xmlns=\"http://www.w3.org/1999/xhtml\"><table class=\"hl7__ips\"><tr><td>Andrzej Frydrychowicz</td><td>male</td><td>12-Apr-1974</td></tr></table></div>"
        },
        "gender": "male",
        "birthDate": "1974-04-12"
      }
    },
    {
      "fullUrl": "urn:uuid:e0e040fa-4d31-41e2-a4bd-70b820b69ed3",
      "resource": {
        "resourceType": "ServiceRequest",
        "id": "e0e040fa-4d31-41e2-a4bd-70b820b69ed3",
        "meta": {
          "profile": [
            "http://hl7.eu/fhir/laboratory/StructureDefinition/ServiceRequest-eu-lab"
          ]
        },
        "identifier": [
          {
            "system": "http://example.org",
            "value": "eaf33c13-8022-4944-8a94-048f31013957"
          }
        ],
        "specimen": [
          {
            "reference": "urn:uuid:74a1ee70-7bd2-42b2-b6c4-27c17df25e56"
          }
        ],
        "reasonCode": [
          {
            "coding": [
              {
                "code": "414545008",
                "system": "http://snomed.info/sct",
                "display": "Ischemic heart disease"
              }
            ]
          },
          {
            "coding": [
              {
                "code": "239873007",
                "system": "http://snomed.info/sct",
                "display": "Osteoarthritis of knee"
              }
            ]
          },
          {
            "coding": [
              {
                "code": "15777000",
                "system": "http://snomed.info/sct",
                "display": "Prediabetes"
              }
            ]
          },
          {
            "coding": [
              {
                "code": "271737000",
                "system": "http://snomed.info/sct",
                "display": "Anemia"
              }
            ]
          }
        ],
        "status": "active",
        "intent": "order",
        "code": {
          "coding": [
            {
              "code": "108252007",
              "system": "http://snomed.info/sct",
              "display": "Laboratory procedure"
            }
          ]
        },
        "subject": {
          "reference": "urn:uuid:4bd30cd4-a723-4598-9ca5-48cd99628860",
          "display": "Andrzej Frydrychowicz"
        },
        "requester": {
          "reference": "urn:uuid:facc8ed7-0d2e-489a-b278-0fbb806c00b3"
        }
      }
    },
    {
      "fullUrl": "urn:uuid:facc8ed7-0d2e-489a-b278-0fbb806c00b3",
      "resource": {
        "resourceType": "PractitionerRole",
        "id": "facc8ed7-0d2e-489a-b278-0fbb806c00b3",
        "meta": {
          "profile": [
            "http://hl7.eu/fhir/base/StructureDefinition/practitionerRole-eu"
          ]
        },
        "text": {
          "status": "generated",
          "div": "<div xmlns=\"http://www.w3.org/1999/xhtml\">Provider Role Id: facc8ed7-0d2e-489a-b278-0fbb806c00b3</div>"
        },
        "organization": {
          "reference": "urn:uuid:22c29ac2-f7d7-40a0-927e-d7f93ed45f9a"
        }
      }
    },
    {
      "fullUrl": "urn:uuid:22c29ac2-f7d7-40a0-927e-d7f93ed45f9a",
      "resource": {
        "resourceType": "Organization",
        "id": "22c29ac2-f7d7-40a0-927e-d7f93ed45f9a",
        "meta": {
          "profile": [
            "http://hl7.eu/fhir/base/StructureDefinition/organization-eu"
          ]
        },
        "identifier": [
          {
            "assigner": {
              "display": "HL7 Europe"
            },
            "system": "urn:oid:2.16.840.1.113883.2.51.999",
            "value": "95eaddbb-9bea-45a8-8e7f-5a6dbbfab9a8"
          }
        ],
        "address": [
          {
            "line": [
              "Aleja Lotników Polskich 82"
            ],
            "city": "Świdnik",
            "postalCode": "21-040",
            "country": "Poland"
          }
        ],
        "text": {
          "status": "generated",
          "div": "<div xmlns=\"http://www.w3.org/1999/xhtml\">Provider Organization: Lubelskie Centrum Diagnostyczne</div>"
        },
        "name": "Lubelskie Centrum Diagnostyczne"
      }
    },
    {
      "fullUrl": "urn:uuid:74a1ee70-7bd2-42b2-b6c4-27c17df25e56",
      "resource": {
        "resourceType": "Specimen",
        "id": "74a1ee70-7bd2-42b2-b6c4-27c17df25e56",
        "meta": {
          "profile": [
            "http://hl7.eu/fhir/laboratory/StructureDefinition/Specimen-eu-lab"
          ]
        },
        "collection": {
          "collectedDateTime": "2017-07-08"
        },
        "text": {
          "status": "generated",
          "div": "<div xmlns=\"http://www.w3.org/1999/xhtml\"><table class=\"hl7__eu__lab__report\"><tr><th>Specimen</th><th>Collection Date</th></tr><tr><td>Whole blood specimen (specimen)</td><td><span class=\"nb\">08-Jul-2017</span></td></tr></table></div>"
        },
        "type": {
          "coding": [
            {
              "code": "258580003",
              "system": "http://snomed.info/sct",
              "display": "Whole blood specimen (specimen)"
            }
          ]
        }
      }
    },
    {
      "fullUrl": "urn:uuid:0ddca15b-b3bf-4501-910e-43cee3b6915e",
      "resource": {
        "resourceType": "Observation",
        "id": "0ddca15b-b3bf-4501-910e-43cee3b6915e",
        "meta": {
          "profile": [
            "http://hl7.eu/fhir/laboratory/StructureDefinition/Observation-resultslab-eu-lab"
          ]
        },
        "performer": [
          {
            "display": "The Central European Lab"
          }
        ],
        "category": [
          {
            "coding": [
              {
                "system": "http://terminology.hl7.org/CodeSystem/observation-category",
                "code": "laboratory"
              }
            ]
          }
        ],
        "code": {
          "coding": [
            {
              "code": "4548-4",
              "system": "http://loinc.org",
              "display": "Hemoglobin A1c/Hemoglobin.total in Blood"
            }
          ],
          "text": "Hemoglobin A1c/Hemoglobin.total in Blood"
        },
        "valueQuantity": {
          "system": "http://unitsofmeasure.org",
          "value": 5.9,
          "unit": "%",
          "code": "%"
        },
        "referenceRange": [
          {
            "low": {
              "value": 4.3,
              "code": "%",
              "system": "http://unitsofmeasure.org"
            }
          },
          {
            "high": {
              "value": 6.4,
              "code": "%",
              "system": "http://unitsofmeasure.org"
            }
          }
        ],
        "text": {
          "status": "generated",
          "div": "<div xmlns=\"http://www.w3.org/1999/xhtml\"><table class=\"hl7__eu__lab__report\"><tr><th>Test</th><th>08-Jul-2017</th><th>Reference&#xA0;Range</th><th>Unit</th></tr><tr><td>Hemoglobin A1c/Hemoglobin.total in Blood</td><td>5.9</td><td>4.3 - 6.4</td><td></td><td>%</td></tr></table></div>"
        },
        "status": "final",
        "subject": {
          "reference": "urn:uuid:4bd30cd4-a723-4598-9ca5-48cd99628860",
          "display": "Andrzej Frydrychowicz"
        },
        "effectiveDateTime": "2017-07-08T21:33:04Z",
        "specimen": {
          "reference": "urn:uuid:74a1ee70-7bd2-42b2-b6c4-27c17df25e56"
        }
      }
    },
    {
      "fullUrl": "urn:uuid:70d0a161-9d3b-4318-997b-73583d8d1d48",
      "resource": {
        "resourceType": "Observation",
        "id": "70d0a161-9d3b-4318-997b-73583d8d1d48",
        "meta": {
          "profile": [
            "http://hl7.eu/fhir/laboratory/StructureDefinition/Observation-resultslab-eu-lab"
          ]
        },
        "performer": [
          {
            "display": "The Central European Lab"
          }
        ],
        "category": [
          {
            "coding": [
              {
                "system": "http://terminology.hl7.org/CodeSystem/observation-category",
                "code": "laboratory"
              }
            ]
          }
        ],
        "code": {
          "coding": [
            {
              "code": "2339-0",
              "system": "http://loinc.org",
              "display": "Glucose [Mass/volume] in Blood"
            }
          ],
          "text": "Glucose [Mass/volume] in Blood"
        },
        "valueQuantity": {
          "system": "http://unitsofmeasure.org",
          "value": 80.1,
          "unit": "mg/dL",
          "code": "mg/dL"
        },
        "referenceRange": [
          {
            "low": {
              "value": 70,
              "code": "mg/dL",
              "system": "http://unitsofmeasure.org"
            }
          },
          {
            "high": {
              "value": 140,
              "code": "mg/dL",
              "system": "http://unitsofmeasure.org"
            }
          }
        ],
        "text": {
          "status": "generated",
          "div": "<div xmlns=\"http://www.w3.org/1999/xhtml\"><table class=\"hl7__eu__lab__report\"><tr><th>Test</th><th>08-Jul-2017</th><th>Reference&#xA0;Range</th><th>Unit</th></tr><tr><td>Glucose [Mass/volume] in Blood</td><td>80.1</td><td>70 - 140</td><td></td><td>mg/dL</td></tr></table></div>"
        },
        "status": "final",
        "subject": {
          "reference": "urn:uuid:4bd30cd4-a723-4598-9ca5-48cd99628860",
          "display": "Andrzej Frydrychowicz"
        },
        "effectiveDateTime": "2017-07-08T21:33:04Z",
        "specimen": {
          "reference": "urn:uuid:74a1ee70-7bd2-42b2-b6c4-27c17df25e56"
        }
      }
    },
    {
      "fullUrl": "urn:uuid:c9b8fcff-0996-4739-9d6a-2d88d0c35422",
      "resource": {
        "resourceType": "Observation",
        "id": "c9b8fcff-0996-4739-9d6a-2d88d0c35422",
        "meta": {
          "profile": [
            "http://hl7.eu/fhir/laboratory/StructureDefinition/Observation-resultslab-eu-lab"
          ]
        },
        "performer": [
          {
            "display": "The Central European Lab"
          }
        ],
        "category": [
          {
            "coding": [
              {
                "system": "http://terminology.hl7.org/CodeSystem/observation-category",
                "code": "laboratory"
              }
            ]
          }
        ],
        "code": {
          "coding": [
            {
              "code": "6299-2",
              "system": "http://loinc.org",
              "display": "Urea nitrogen [Mass/volume] in Blood"
            }
          ],
          "text": "Urea nitrogen [Mass/volume] in Blood"
        },
        "valueQuantity": {
          "system": "http://unitsofmeasure.org",
          "value": 10.4,
          "unit": "mg/dL",
          "code": "mg/dL"
        },
        "referenceRange": [
          {
            "low": {
              "value": 7,
              "code": "mg/dL",
              "system": "http://unitsofmeasure.org"
            }
          },
          {
            "high": {
              "value": 20,
              "code": "mg/dL",
              "system": "http://unitsofmeasure.org"
            }
          }
        ],
        "text": {
          "status": "generated",
          "div": "<div xmlns=\"http://www.w3.org/1999/xhtml\"><table class=\"hl7__eu__lab__report\"><tr><th>Test</th><th>08-Jul-2017</th><th>Reference&#xA0;Range</th><th>Unit</th></tr><tr><td>Urea nitrogen [Mass/volume] in Blood</td><td>10.4</td><td>7 - 20</td><td></td><td>mg/dL</td></tr></table></div>"
        },
        "status": "final",
        "subject": {
          "reference": "urn:uuid:4bd30cd4-a723-4598-9ca5-48cd99628860",
          "display": "Andrzej Frydrychowicz"
        },
        "effectiveDateTime": "2017-07-08T21:33:04Z",
        "specimen": {
          "reference": "urn:uuid:74a1ee70-7bd2-42b2-b6c4-27c17df25e56"
        }
      }
    },
    {
      "fullUrl": "urn:uuid:7374651e-bd68-4fac-9e69-616e7a3375eb",
      "resource": {
        "resourceType": "Observation",
        "id": "7374651e-bd68-4fac-9e69-616e7a3375eb",
        "meta": {
          "profile": [
            "http://hl7.eu/fhir/laboratory/StructureDefinition/Observation-resultslab-eu-lab"
          ]
        },
        "performer": [
          {
            "display": "The Central European Lab"
          }
        ],
        "category": [
          {
            "coding": [
              {
                "system": "http://terminology.hl7.org/CodeSystem/observation-category",
                "code": "laboratory"
              }
            ]
          }
        ],
        "code": {
          "coding": [
            {
              "code": "38483-4",
              "system": "http://loinc.org",
              "display": "Creatinine [Mass/volume] in Blood"
            }
          ],
          "text": "Creatinine [Mass/volume] in Blood"
        },
        "valueQuantity": {
          "system": "http://unitsofmeasure.org",
          "value": 1.7,
          "unit": "mg/dL",
          "code": "mg/dL"
        },
        "referenceRange": [
          {
            "low": {
              "value": 0.6,
              "code": "mg/dL",
              "system": "http://unitsofmeasure.org"
            }
          },
          {
            "high": {
              "value": 1.3,
              "code": "mg/dL",
              "system": "http://unitsofmeasure.org"
            }
          }
        ],
        "interpretation": [
          {
            "coding": [
              {
                "code": "H",
                "system": "http://terminology.hl7.org/CodeSystem/v3-ObservationInterpretation",
                "display": "High"
              }
            ]
          }
        ],
        "text": {
          "status": "generated",
          "div": "<div xmlns=\"http://www.w3.org/1999/xhtml\"><table class=\"hl7__eu__lab__report\"><tr><th>Test</th><th>08-Jul-2017</th><th>Reference&#xA0;Range</th><th>Unit</th></tr><tr><td>Creatinine [Mass/volume] in Blood</td><td>1.7</td><td>0.6 - 1.3</td><td>H</td><td>mg/dL</td></tr></table></div>"
        },
        "status": "final",
        "subject": {
          "reference": "urn:uuid:4bd30cd4-a723-4598-9ca5-48cd99628860",
          "display": "Andrzej Frydrychowicz"
        },
        "effectiveDateTime": "2017-07-08T21:33:04Z",
        "specimen": {
          "reference": "urn:uuid:74a1ee70-7bd2-42b2-b6c4-27c17df25e56"
        }
      }
    },
    {
      "fullUrl": "urn:uuid:05c853eb-7f85-4db3-a4eb-c2668bbdd634",
      "resource": {
        "resourceType": "Observation",
        "id": "05c853eb-7f85-4db3-a4eb-c2668bbdd634",
        "meta": {
          "profile": [
            "http://hl7.eu/fhir/laboratory/StructureDefinition/Observation-resultslab-eu-lab"
          ]
        },
        "performer": [
          {
            "display": "The Central European Lab"
          }
        ],
        "category": [
          {
            "coding": [
              {
                "system": "http://terminology.hl7.org/CodeSystem/observation-category",
                "code": "laboratory"
              }
            ]
          }
        ],
        "code": {
          "coding": [
            {
              "code": "49765-1",
              "system": "http://loinc.org",
              "display": "Calcium [Mass/volume] in Blood"
            }
          ],
          "text": "Calcium [Mass/volume] in Blood"
        },
        "valueQuantity": {
          "system": "http://unitsofmeasure.org",
          "value": 9.1,
          "unit": "mg/dL",
          "code": "mg/dL"
        },
        "referenceRange": [
          {
            "low": {
              "value": 8.5,
              "code": "mg/dL",
              "system": "http://unitsofmeasure.org"
            }
          },
          {
            "high": {
              "value": 10.5,
              "code": "mg/dL",
              "system": "http://unitsofmeasure.org"
            }
          }
        ],
        "text": {
          "status": "generated",
          "div": "<div xmlns=\"http://www.w3.org/1999/xhtml\"><table class=\"hl7__eu__lab__report\"><tr><th>Test</th><th>08-Jul-2017</th><th>Reference&#xA0;Range</th><th>Unit</th></tr><tr><td>Calcium [Mass/volume] in Blood</td><td>9.1</td><td>8.5 - 10.5</td><td></td><td>mg/dL</td></tr></table></div>"
        },
        "status": "final",
        "subject": {
          "reference": "urn:uuid:4bd30cd4-a723-4598-9ca5-48cd99628860",
          "display": "Andrzej Frydrychowicz"
        },
        "effectiveDateTime": "2017-07-08T21:33:04Z",
        "specimen": {
          "reference": "urn:uuid:74a1ee70-7bd2-42b2-b6c4-27c17df25e56"
        }
      }
    },
    {
      "fullUrl": "urn:uuid:82986ca7-9a23-4f72-a838-3e2b6e69bb76",
      "resource": {
        "resourceType": "Observation",
        "id": "82986ca7-9a23-4f72-a838-3e2b6e69bb76",
        "meta": {
          "profile": [
            "http://hl7.eu/fhir/laboratory/StructureDefinition/Observation-resultslab-eu-lab"
          ]
        },
        "performer": [
          {
            "display": "The Central European Lab"
          }
        ],
        "category": [
          {
            "coding": [
              {
                "system": "http://terminology.hl7.org/CodeSystem/observation-category",
                "code": "laboratory"
              }
            ]
          }
        ],
        "code": {
          "coding": [
            {
              "code": "2947-0",
              "system": "http://loinc.org",
              "display": "Sodium [Moles/volume] in Blood"
            }
          ],
          "text": "Sodium [Moles/volume] in Blood"
        },
        "valueQuantity": {
          "system": "http://unitsofmeasure.org",
          "value": 139.8,
          "unit": "mmol/L",
          "code": "mmol/L"
        },
        "referenceRange": [
          {
            "low": {
              "value": 135,
              "code": "mmol/L",
              "system": "http://unitsofmeasure.org"
            }
          },
          {
            "high": {
              "value": 145,
              "code": "mmol/L",
              "system": "http://unitsofmeasure.org"
            }
          }
        ],
        "text": {
          "status": "generated",
          "div": "<div xmlns=\"http://www.w3.org/1999/xhtml\"><table class=\"hl7__eu__lab__report\"><tr><th>Test</th><th>08-Jul-2017</th><th>Reference&#xA0;Range</th><th>Unit</th></tr><tr><td>Sodium [Moles/volume] in Blood</td><td>139.8</td><td>135 - 145</td><td></td><td>mmol/L</td></tr></table></div>"
        },
        "status": "final",
        "subject": {
          "reference": "urn:uuid:4bd30cd4-a723-4598-9ca5-48cd99628860",
          "display": "Andrzej Frydrychowicz"
        },
        "effectiveDateTime": "2017-07-08T21:33:04Z",
        "specimen": {
          "reference": "urn:uuid:74a1ee70-7bd2-42b2-b6c4-27c17df25e56"
        }
      }
    },
    {
      "fullUrl": "urn:uuid:97beb8ef-9a01-4f52-bb1a-4d588d4ea0a5",
      "resource": {
        "resourceType": "Observation",
        "id": "97beb8ef-9a01-4f52-bb1a-4d588d4ea0a5",
        "meta": {
          "profile": [
            "http://hl7.eu/fhir/laboratory/StructureDefinition/Observation-resultslab-eu-lab"
          ]
        },
        "performer": [
          {
            "display": "The Central European Lab"
          }
        ],
        "category": [
          {
            "coding": [
              {
                "system": "http://terminology.hl7.org/CodeSystem/observation-category",
                "code": "laboratory"
              }
            ]
          }
        ],
        "code": {
          "coding": [
            {
              "code": "6298-4",
              "system": "http://loinc.org",
              "display": "Potassium [Moles/volume] in Blood"
            }
          ],
          "text": "Potassium [Moles/volume] in Blood"
        },
        "valueQuantity": {
          "system": "http://unitsofmeasure.org",
          "value": 3.9,
          "unit": "mmol/L",
          "code": "mmol/L"
        },
        "referenceRange": [
          {
            "low": {
              "value": 3.5,
              "code": "mmol/L",
              "system": "http://unitsofmeasure.org"
            }
          },
          {
            "high": {
              "value": 5.3,
              "code": "mmol/L",
              "system": "http://unitsofmeasure.org"
            }
          }
        ],
        "text": {
          "status": "generated",
          "div": "<div xmlns=\"http://www.w3.org/1999/xhtml\"><table class=\"hl7__eu__lab__report\"><tr><th>Test</th><th>08-Jul-2017</th><th>Reference&#xA0;Range</th><th>Unit</th></tr><tr><td>Potassium [Moles/volume] in Blood</td><td>3.9</td><td>3.5 - 5.3</td><td></td><td>mmol/L</td></tr></table></div>"
        },
        "status": "final",
        "subject": {
          "reference": "urn:uuid:4bd30cd4-a723-4598-9ca5-48cd99628860",
          "display": "Andrzej Frydrychowicz"
        },
        "effectiveDateTime": "2017-07-08T21:33:04Z",
        "specimen": {
          "reference": "urn:uuid:74a1ee70-7bd2-42b2-b6c4-27c17df25e56"
        }
      }
    },
    {
      "fullUrl": "urn:uuid:bfc9a47a-6777-498f-89c3-20e0a02a9400",
      "resource": {
        "resourceType": "Observation",
        "id": "bfc9a47a-6777-498f-89c3-20e0a02a9400",
        "meta": {
          "profile": [
            "http://hl7.eu/fhir/laboratory/StructureDefinition/Observation-resultslab-eu-lab"
          ]
        },
        "performer": [
          {
            "display": "The Central European Lab"
          }
        ],
        "category": [
          {
            "coding": [
              {
                "system": "http://terminology.hl7.org/CodeSystem/observation-category",
                "code": "laboratory"
              }
            ]
          }
        ],
        "code": {
          "coding": [
            {
              "code": "2069-3",
              "system": "http://loinc.org",
              "display": "Chloride [Moles/volume] in Blood"
            }
          ],
          "text": "Chloride [Moles/volume] in Blood"
        },
        "valueQuantity": {
          "system": "http://unitsofmeasure.org",
          "value": 101.2,
          "unit": "mmol/L",
          "code": "mmol/L"
        },
        "referenceRange": [
          {
            "low": {
              "value": 98,
              "code": "mmol/L",
              "system": "http://unitsofmeasure.org"
            }
          },
          {
            "high": {
              "value": 110,
              "code": "mmol/L",
              "system": "http://unitsofmeasure.org"
            }
          }
        ],
        "text": {
          "status": "generated",
          "div": "<div xmlns=\"http://www.w3.org/1999/xhtml\"><table class=\"hl7__eu__lab__report\"><tr><th>Test</th><th>08-Jul-2017</th><th>Reference&#xA0;Range</th><th>Unit</th></tr><tr><td>Chloride [Moles/volume] in Blood</td><td>101.2</td><td>98 - 110</td><td></td><td>mmol/L</td></tr></table></div>"
        },
        "status": "final",
        "subject": {
          "reference": "urn:uuid:4bd30cd4-a723-4598-9ca5-48cd99628860",
          "display": "Andrzej Frydrychowicz"
        },
        "effectiveDateTime": "2017-07-08T21:33:04Z",
        "specimen": {
          "reference": "urn:uuid:74a1ee70-7bd2-42b2-b6c4-27c17df25e56"
        }
      }
    },
    {
      "fullUrl": "urn:uuid:66c10c8d-0bee-45b6-87df-71dfe57cbb14",
      "resource": {
        "resourceType": "Observation",
        "id": "66c10c8d-0bee-45b6-87df-71dfe57cbb14",
        "meta": {
          "profile": [
            "http://hl7.eu/fhir/laboratory/StructureDefinition/Observation-resultslab-eu-lab"
          ]
        },
        "performer": [
          {
            "display": "The Central European Lab"
          }
        ],
        "category": [
          {
            "coding": [
              {
                "system": "http://terminology.hl7.org/CodeSystem/observation-category",
                "code": "laboratory"
              }
            ]
          }
        ],
        "code": {
          "coding": [
            {
              "code": "20565-8",
              "system": "http://loinc.org",
              "display": "Carbon dioxide, total [Moles/volume] in Blood"
            }
          ],
          "text": "Carbon dioxide, total [Moles/volume] in Blood"
        },
        "valueQuantity": {
          "system": "http://unitsofmeasure.org",
          "value": 24.6,
          "unit": "mmol/L",
          "code": "mmol/L"
        },
        "referenceRange": [
          {
            "low": {
              "value": 22,
              "code": "mmol/L",
              "system": "http://unitsofmeasure.org"
            }
          },
          {
            "high": {
              "value": 29,
              "code": "mmol/L",
              "system": "http://unitsofmeasure.org"
            }
          }
        ],
        "text": {
          "status": "generated",
          "div": "<div xmlns=\"http://www.w3.org/1999/xhtml\"><table class=\"hl7__eu__lab__report\"><tr><th>Test</th><th>08-Jul-2017</th><th>Reference&#xA0;Range</th><th>Unit</th></tr><tr><td>Carbon dioxide, total [Moles/volume] in Blood</td><td>24.6</td><td>22 - 29</td><td></td><td>mmol/L</td></tr></table></div>"
        },
        "status": "final",
        "subject": {
          "reference": "urn:uuid:4bd30cd4-a723-4598-9ca5-48cd99628860",
          "display": "Andrzej Frydrychowicz"
        },
        "effectiveDateTime": "2017-07-08T21:33:04Z",
        "specimen": {
          "reference": "urn:uuid:74a1ee70-7bd2-42b2-b6c4-27c17df25e56"
        }
      }
    },
    {
      "fullUrl": "urn:uuid:e84f3683-47b3-4c53-890c-8b1b4103b25e",
      "resource": {
        "resourceType": "Device",
        "id": "e84f3683-47b3-4c53-890c-8b1b4103b25e",
        "deviceName": [
          {
            "name": "SYNDERAI Synthetic Generator",
            "type": "manufacturer-name"
          }
        ],
        "version": [
          {
            "value": "5.0"
          }
        ],
        "text": {
          "status": "generated",
          "div": "<div xmlns=\"http://www.w3.org/1999/xhtml\">SYNDERAI Synthetic Generator v5.0</div>"
        },
        "status": "active\"",
        "distinctIdentifier": "synderai-generator-50",
        "manufacturer": "SYNDERAI Project"
      }
    },
    {
      "fullUrl": "urn:uuid:8dd6b7fe-d138-430e-bde9-310849952813",
      "resource": {
        "resourceType": "Provenance",
        "id": "8dd6b7fe-d138-430e-bde9-310849952813",
        "target": [
          {
            "reference": "Patient/4bd30cd4-a723-4598-9ca5-48cd99628860"
          },
          {
            "reference": "Bundle/4bf0ef54-ea46-4b98-894a-e83e72fe3dbb"
          },
          {
            "reference": "Composition/8909b9b6-81e5-4c65-8881-92afbc0f1451"
          },
          {
            "reference": "PractitionerRole/fe7c9404-e58a-416c-8c56-a9920ebbdd72"
          },
          {
            "reference": "Practitioner/4b965dbb-9c48-40a0-a84e-57b1d0de9912"
          },
          {
            "reference": "PractitionerRole/facc8ed7-0d2e-489a-b278-0fbb806c00b3"
          },
          {
            "reference": "Organization/22c29ac2-f7d7-40a0-927e-d7f93ed45f9a"
          }
        ],
        "activity": {
          "text": "Synthetic Example Data Generation"
        },
        "policy": [
          "https://synderai.net/synderai-synthetic-data-policy"
        ],
        "agent": [
          {
            "type": {
              "text": "author"
            },
            "who": {
              "reference": "Device/e84f3683-47b3-4c53-890c-8b1b4103b25e"
            }
          }
        ],
        "reason": [
          {
            "text": "Interoperability Testing and Training (non-clinical use)"
          }
        ],
        "text": {
          "status": "generated",
          "div": "<div xmlns=\"http://www.w3.org/1999/xhtml\">Provenance for SYNDERAI Synthetic Example Data Resource</div>"
        },
        "recorded": "2017-07-08T23:33:04Z"
      }
    },
    {
      "fullUrl": "urn:uuid:fe7c9404-e58a-416c-8c56-a9920ebbdd72",
      "resource": {
        "resourceType": "PractitionerRole",
        "id": "fe7c9404-e58a-416c-8c56-a9920ebbdd72",
        "meta": {
          "profile": [
            "http://hl7.eu/fhir/base/StructureDefinition/practitionerRole-eu"
          ]
        },
        "text": {
          "status": "generated",
          "div": "<div xmlns=\"http://www.w3.org/1999/xhtml\">Laboratory Role Id: fe7c9404-e58a-416c-8c56-a9920ebbdd72</div>"
        },
        "practitioner": {
          "reference": "urn:uuid:4b965dbb-9c48-40a0-a84e-57b1d0de9912"
        }
      }
    },
    {
      "fullUrl": "urn:uuid:4b965dbb-9c48-40a0-a84e-57b1d0de9912",
      "resource": {
        "resourceType": "Practitioner",
        "id": "4b965dbb-9c48-40a0-a84e-57b1d0de9912",
        "meta": {
          "profile": [
            "http://hl7.eu/fhir/base/StructureDefinition/practitioner-eu"
          ]
        },
        "identifier": [
          {
            "assigner": {
              "display": "HL7 Europe"
            },
            "system": "urn:oid:2.16.840.1.113883.2.51.999",
            "value": "77657f1d-3cde-46a1-a726-4cdc797d5be9"
          }
        ],
        "name": [
          {
            "prefix": [
              "dr"
            ],
            "given": [
              "Ex"
            ],
            "family": "Ample"
          }
        ],
        "address": [
          {
            "line": [
              "Laboratoire Central Européenne",
              "Boulevard du Jardin Botanique 32"
            ],
            "postalCode": "1000",
            "city": "Brussels",
            "country": "Belgium"
          }
        ],
        "text": {
          "status": "generated",
          "div": "<div xmlns=\"http://www.w3.org/1999/xhtml\">Laboratory: Laboratoire Central Européenne, 1000 Brussels, Belgium</div>"
        }
      }
    }
  ],
  "type": "document",
  "timestamp": "2017-07-08T23:33:04Z"
}
