{
  "resourceType": "Bundle",
  "id": "c3439102-e56c-4100-87e1-2fc2d9b82b63",
  "meta": {
    "profile": [
      "http://hl7.eu/fhir/laboratory/StructureDefinition/Bundle-eu-lab"
    ]
  },
  "identifier": {
    "assigner": {
      "display": "HL7 Europe"
    },
    "system": "urn:oid:2.16.840.1.113883.2.51.999",
    "value": "fb23f951-9924-4713-86a3-379b8c1204fe"
  },
  "entry": [
    {
      "fullUrl": "urn:uuid:a80ec655-c2f4-497b-bac1-617f90586c96",
      "resource": {
        "resourceType": "Composition",
        "id": "a80ec655-c2f4-497b-bac1-617f90586c96",
        "meta": {
          "profile": [
            "http://hl7.eu/fhir/laboratory/StructureDefinition/Composition-eu-lab"
          ]
        },
        "identifier": {
          "assigner": {
            "display": "HL7 Europe"
          },
          "system": "urn:oid:2.16.840.1.113883.2.51.999",
          "value": "3c3e5480-82aa-4387-a620-fa475b6e1e49"
        },
        "author": [
          {
            "reference": "urn:uuid:9d2c3abb-082c-4b68-ab1c-2af29502e207"
          }
        ],
        "category": [
          {
            "coding": [
              {
                "code": "26436-6",
                "system": "http://loinc.org",
                "display": "Laboratory studies (set)"
              }
            ]
          }
        ],
        "type": {
          "coding": [
            {
              "code": "11502-2",
              "system": "http://loinc.org",
              "display": "Laboratory report"
            }
          ],
          "text": "Laboratory Report"
        },
        "section": [
          {
            "code": {
              "coding": [
                {
                  "code": "26436-6",
                  "system": "http://loinc.org",
                  "display": "Laboratory studies (set)"
                }
              ],
              "text": "Laboratory studies"
            },
            "section": [
              {
                "code": {
                  "coding": [
                    {
                      "code": "$18719-5",
                      "system": "http://loinc.org",
                      "display": "Chemistry studies (set)"
                    }
                  ],
                  "text": "Chemistry"
                },
                "entry": [
                  {
                    "reference": "urn:uuid:7ab41803-6a6d-42b1-b6ce-0b7acc985cc0"
                  },
                  {
                    "reference": "urn:uuid:7832a730-6657-40a3-ad6d-5c184810ad0a"
                  },
                  {
                    "reference": "urn:uuid:838c46d9-c185-464e-b532-cfdcde42e8b0"
                  },
                  {
                    "reference": "urn:uuid:35701bde-7105-491b-911a-3dc572297992"
                  },
                  {
                    "reference": "urn:uuid:c05e7feb-f21e-46cc-a249-19b626fa9c04"
                  },
                  {
                    "reference": "urn:uuid:5ceb1d33-191a-4bc0-a3ef-db4cdad22ea4"
                  },
                  {
                    "reference": "urn:uuid:df364a28-8402-4d3e-944a-0ed54b4d46b9"
                  },
                  {
                    "reference": "urn:uuid:f133abef-983e-419e-9d31-9ca4996c68dd"
                  },
                  {
                    "reference": "urn:uuid:cdd7007a-afa1-4ef6-852c-4a86f04816a8"
                  },
                  {
                    "reference": "urn:uuid:37f6d648-5ab0-4d14-a3c1-925ab6135cd8"
                  },
                  {
                    "reference": "urn:uuid:e21d56fc-2724-4815-8537-5e64063beeb7"
                  },
                  {
                    "reference": "urn:uuid:1b8c3ee6-1c8c-4855-8940-d14f8585db8e"
                  },
                  {
                    "reference": "urn:uuid:acc6a36b-b74b-42c1-b55f-26f98edcc22f"
                  },
                  {
                    "reference": "urn:uuid:5708039f-6aed-4ab2-801a-609e811f1e3f"
                  },
                  {
                    "reference": "urn:uuid:f5b06af7-9171-404a-ac0d-78ff8bd39c4c"
                  },
                  {
                    "reference": "urn:uuid:e6623af0-7349-4fd1-a296-517d41008365"
                  },
                  {
                    "reference": "urn:uuid:329f401c-56a4-4ed3-8733-5fc87eb38622"
                  },
                  {
                    "reference": "urn:uuid:88def69b-296d-4085-9435-3f1c5c3c30b3"
                  },
                  {
                    "reference": "urn:uuid:b51a379c-a772-4676-bee8-3bc344727643"
                  }
                ],
                "text": {
                  "status": "generated",
                  "div": "<div xmlns=\"http://www.w3.org/1999/xhtml\"><h3>Chemistry</h3><table class=\"hl7__eu__lab__report\"><thead><tr><th>Test</th><th>11-JAN-2021</th><th>Reference&#xA0;Range</th><th>Unit</th></tr></thead><tbody><tr><td>Glucose [Mass/volume] in Blood</td><td>127.2</td><td>70 - 140</td><td>mg/dL</td></tr><tr><td>Urea nitrogen [Mass/volume] in Blood</td><td>16.6</td><td>7 - 25</td><td>mg/dL</td></tr><tr><td>Creatinine [Mass/volume] in Blood</td><td><strong>2.6 H</strong></td><td>0.6 - 1.3</td><td>mg/dL</td></tr><tr><td>Calcium [Mass/volume] in Blood</td><td>9.1</td><td>8.5 - 10.5</td><td>mg/dL</td></tr><tr><td>Sodium [Moles/volume] in Blood</td><td>139.5</td><td>135 - 145</td><td>mmol/L</td></tr><tr><td>Potassium [Moles/volume] in Blood</td><td>3.8</td><td>3.5 - 5.1</td><td>mmol/L</td></tr><tr><td>Chloride [Moles/volume] in Blood</td><td><strong>110.5 H</strong></td><td>98 - 107</td><td>mmol/L</td></tr><tr><td>Carbon dioxide, total [Moles/volume] in Blood</td><td>25.7</td><td>22 - 29</td><td>mmol/L</td></tr><tr><td>Protein [Mass/volume] in Serum or Plasma</td><td>7.3</td><td>6 - 8.3</td><td>g/dL</td></tr><tr><td>Albumin [Mass/volume] in Serum or Plasma</td><td>5.5</td><td>3.5 - 5.5</td><td>g/dL</td></tr><tr><td>Globulin [Mass/volume] in Serum by calculation</td><td>3.0</td><td>2 - 3.5</td><td>g/L</td></tr><tr><td>Bilirubin.total [Mass/volume] in Serum or Plasma</td><td>1.0</td><td>0.3 - 1.2</td><td>mg/dL</td></tr><tr><td>Alkaline phosphatase [Enzymatic activity/volume] in Serum or Plasma</td><td>95.3</td><td>40 - 117</td><td>U/L</td></tr><tr><td>Alanine aminotransferase [Enzymatic activity/volume] in Serum or Plasma</td><td>28.9</td><td>10 - 66</td><td>U/L</td></tr><tr><td>Aspartate aminotransferase [Enzymatic activity/volume] in Serum or Plasma</td><td>16.1</td><td>10 - 40</td><td>U/L</td></tr><tr><td>Cholesterol [Mass/volume] in Serum or Plasma</td><td>157.8</td><td>0 - 200</td><td>mg/dL</td></tr><tr><td>Triglyceride [Mass/volume] in Serum or Plasma</td><td>114.7</td><td>0 - 199</td><td>mg/dL</td></tr><tr><td>Cholesterol in LDL [Mass/volume] in Serum or Plasma by Direct assay</td><td><strong>134.0 H</strong></td><td>0 - 130</td><td>mg/dL</td></tr><tr><td>Cholesterol in HDL [Mass/volume] in Serum or Plasma</td><td>54.5</td><td>40 - 100</td><td>mg/dL</td></tr></tbody></table></div>"
                },
                "title": "Chemistry"
              }
            ],
            "title": "Laboratory Report"
          },
          {
            "text": {
              "status": "generated",
              "div": "<div xmlns=\"http://www.w3.org/1999/xhtml\"><h3>Annotation</h3><table class=\"hl7__eu__lab__report\"><tr><th>Conclusion and Recommendations based on this report and previous findings known to us</th></tr><tr><td>The patient shows elevated creatinine, suggesting impaired renal function, and mild hyperchloremia. LDL cholesterol is slightly above the recommended range, indicating increased cardiovascular risk. Other parameters, including glucose, liver enzymes, and electrolytes, are within normal limits. Renal function and lipid profile should be monitored and managed as clinically indicated.</td></tr></table></div>"
            },
            "code": {
              "coding": [
                {
                  "system": "http://loinc.org",
                  "code": "48767-8",
                  "display": "Annotation comment"
                }
              ]
            },
            "title": "Annotation comment"
          }
        ],
        "status": "final",
        "subject": {
          "reference": "urn:uuid:81be6cd2-456c-4cad-9c06-2dd1e15bb06b",
          "display": "Timothy Smith"
        },
        "date": "2021-01-11T16:48:21Z",
        "title": "Laboratory Report",
        "confidentiality": "N"
      }
    },
    {
      "fullUrl": "urn:uuid:b29cbd62-77ac-44f8-bfca-977e7443049a",
      "resource": {
        "resourceType": "DiagnosticReport",
        "id": "b29cbd62-77ac-44f8-bfca-977e7443049a",
        "meta": {
          "profile": [
            "http://hl7.eu/fhir/laboratory/StructureDefinition/DiagnosticReport-eu-lab"
          ]
        },
        "identifier": [
          {
            "assigner": {
              "display": "HL7 Europe"
            },
            "system": "urn:oid:2.16.840.1.113883.2.51.999",
            "value": "49ea761a-3325-49cc-a1c6-38d2077594ea"
          }
        ],
        "extension": [
          {
            "url": "http://hl7.org/fhir/5.0/StructureDefinition/extension-DiagnosticReport.composition",
            "valueReference": {
              "reference": "urn:uuid:3c3e5480-82aa-4387-a620-fa475b6e1e49"
            }
          }
        ],
        "category": [
          {
            "coding": [
              {
                "code": "26436-6",
                "system": "http://loinc.org",
                "display": "Laboratory studies (set)"
              }
            ]
          }
        ],
        "specimen": [
          {
            "reference": "urn:uuid:15879f02-06c2-49ab-9814-5e607853016e"
          },
          {
            "reference": "urn:uuid:49e1361a-b660-4442-b73f-f23ba2b9df05"
          },
          {
            "reference": "urn:uuid:108bc325-ad91-4fd9-8d6a-a0157f5ea2c1"
          }
        ],
        "result": [
          {
            "reference": "urn:uuid:7ab41803-6a6d-42b1-b6ce-0b7acc985cc0"
          },
          {
            "reference": "urn:uuid:7832a730-6657-40a3-ad6d-5c184810ad0a"
          },
          {
            "reference": "urn:uuid:838c46d9-c185-464e-b532-cfdcde42e8b0"
          },
          {
            "reference": "urn:uuid:35701bde-7105-491b-911a-3dc572297992"
          },
          {
            "reference": "urn:uuid:c05e7feb-f21e-46cc-a249-19b626fa9c04"
          },
          {
            "reference": "urn:uuid:5ceb1d33-191a-4bc0-a3ef-db4cdad22ea4"
          },
          {
            "reference": "urn:uuid:df364a28-8402-4d3e-944a-0ed54b4d46b9"
          },
          {
            "reference": "urn:uuid:f133abef-983e-419e-9d31-9ca4996c68dd"
          },
          {
            "reference": "urn:uuid:cdd7007a-afa1-4ef6-852c-4a86f04816a8"
          },
          {
            "reference": "urn:uuid:37f6d648-5ab0-4d14-a3c1-925ab6135cd8"
          },
          {
            "reference": "urn:uuid:e21d56fc-2724-4815-8537-5e64063beeb7"
          },
          {
            "reference": "urn:uuid:1b8c3ee6-1c8c-4855-8940-d14f8585db8e"
          },
          {
            "reference": "urn:uuid:acc6a36b-b74b-42c1-b55f-26f98edcc22f"
          },
          {
            "reference": "urn:uuid:5708039f-6aed-4ab2-801a-609e811f1e3f"
          },
          {
            "reference": "urn:uuid:f5b06af7-9171-404a-ac0d-78ff8bd39c4c"
          },
          {
            "reference": "urn:uuid:e6623af0-7349-4fd1-a296-517d41008365"
          },
          {
            "reference": "urn:uuid:329f401c-56a4-4ed3-8733-5fc87eb38622"
          },
          {
            "reference": "urn:uuid:88def69b-296d-4085-9435-3f1c5c3c30b3"
          },
          {
            "reference": "urn:uuid:b51a379c-a772-4676-bee8-3bc344727643"
          }
        ],
        "status": "registered",
        "code": {
          "coding": [
            {
              "code": "11502-2",
              "system": "http://loinc.org",
              "display": "Laboratory report"
            }
          ]
        },
        "subject": {
          "reference": "urn:uuid:81be6cd2-456c-4cad-9c06-2dd1e15bb06b",
          "display": "Timothy Smith"
        }
      }
    },
    {
      "fullUrl": "urn:uuid:81be6cd2-456c-4cad-9c06-2dd1e15bb06b",
      "resource": {
        "resourceType": "Patient",
        "id": "81be6cd2-456c-4cad-9c06-2dd1e15bb06b",
        "meta": {
          "security": [
            {
              "system": "http://terminology.hl7.org/CodeSystem/v3-ActReason",
              "code": "HTEST"
            },
            {
              "system": "http://terminology.hl7.org/CodeSystem/v3-ActReason",
              "code": "TRAIN"
            }
          ],
          "tag": [
            {
              "system": "https://synderai.net/fhir/CodeSystem/tags",
              "code": "synthetic",
              "display": "SYNDERAI Synthetic data"
            }
          ],
          "profile": [
            "http://hl7.eu/fhir/base/StructureDefinition/patient-eu-core"
          ]
        },
        "identifier": [
          {
            "type": {
              "coding": [
                {
                  "code": "PT",
                  "system": "http://terminology.hl7.org/CodeSystem/v2-0203"
                }
              ]
            },
            "system": "http://ec.europa.eu/identifier/eci",
            "value": "8029-862360-6"
          },
          {
            "type": {
              "coding": [
                {
                  "code": "MR",
                  "system": "http://terminology.hl7.org/CodeSystem/v2-0203"
                }
              ]
            },
            "system": "http://local.setting.eu/identifier",
            "value": "1fe71aa8-fb8e-4622-d398-65f6235c4fef"
          }
        ],
        "name": [
          {
            "family": "Smith"
          },
          {
            "given": [
              "Timothy"
            ]
          },
          {
            "text": "Timothy Smith"
          }
        ],
        "address": [
          {
            "line": [
              "9 Jeffrey orchard"
            ],
            "use": "home",
            "type": "physical",
            "postalCode": "NW1",
            "city": "North Joshuaville",
            "country": "United Kingdom"
          }
        ],
        "telecom": [
          {
            "system": "phone",
            "value": "+44(0)28 9018592"
          }
        ],
        "extension": [
          {
            "url": "http://hl7.org/fhir/StructureDefinition/patient-nationality",
            "valueCodeableConcept": {
              "coding": [
                {
                  "code": "GB",
                  "system": "http://hl7.org/fhir/ValueSet/country"
                }
              ]
            }
          }
        ],
        "text": {
          "status": "generated",
          "div": "<div xmlns=\"http://www.w3.org/1999/xhtml\"><table class=\"hl7__ips\"><tr><td>Timothy Smith</td><td>male</td><td>10-Sep-1941</td></tr></table></div>"
        },
        "gender": "male",
        "birthDate": "1941-09-10"
      }
    },
    {
      "fullUrl": "urn:uuid:a6ddb366-974d-469c-8df4-74f31f4a2d97",
      "resource": {
        "resourceType": "ServiceRequest",
        "id": "a6ddb366-974d-469c-8df4-74f31f4a2d97",
        "meta": {
          "profile": [
            "http://hl7.eu/fhir/laboratory/StructureDefinition/ServiceRequest-eu-lab"
          ]
        },
        "identifier": [
          {
            "system": "http://example.org",
            "value": "74392dd5-c4b3-4496-92e1-18e2e6fc18bc"
          }
        ],
        "specimen": [
          {
            "reference": "urn:uuid:15879f02-06c2-49ab-9814-5e607853016e"
          },
          {
            "reference": "urn:uuid:49e1361a-b660-4442-b73f-f23ba2b9df05"
          },
          {
            "reference": "urn:uuid:108bc325-ad91-4fd9-8d6a-a0157f5ea2c1"
          }
        ],
        "reasonCode": [
          {
            "coding": [
              {
                "code": "88805009",
                "system": "http://snomed.info/sct",
                "display": "Chronic congestive heart failure"
              }
            ]
          },
          {
            "coding": [
              {
                "code": "60573004",
                "system": "http://snomed.info/sct",
                "display": "Aortic valve stenosis"
              }
            ]
          },
          {
            "coding": [
              {
                "code": "414545008",
                "system": "http://snomed.info/sct",
                "display": "Ischemic heart disease"
              }
            ]
          },
          {
            "coding": [
              {
                "code": "64859006",
                "system": "http://snomed.info/sct",
                "display": "Osteoporosis"
              }
            ]
          },
          {
            "coding": [
              {
                "code": "6525002",
                "system": "http://snomed.info/sct",
                "display": "Dependent drug abuse"
              }
            ]
          },
          {
            "coding": [
              {
                "code": "55822004",
                "system": "http://snomed.info/sct",
                "display": "Hyperlipidemia"
              }
            ]
          },
          {
            "coding": [
              {
                "code": "78275009",
                "system": "http://snomed.info/sct",
                "display": "Obstructive sleep apnea syndrome"
              }
            ]
          },
          {
            "coding": [
              {
                "code": "39898005",
                "system": "http://snomed.info/sct",
                "display": "Sleep disorder"
              }
            ]
          },
          {
            "coding": [
              {
                "code": "401314000",
                "system": "http://snomed.info/sct",
                "display": "Acute non-ST segment elevation myocardial infarction"
              }
            ]
          },
          {
            "coding": [
              {
                "code": "124171000119105",
                "system": "http://snomed.info/sct",
                "display": "Chronic intractable migraine without aura"
              }
            ]
          },
          {
            "coding": [
              {
                "code": "196416002",
                "system": "http://snomed.info/sct",
                "display": "Impacted molars"
              }
            ]
          },
          {
            "coding": [
              {
                "code": "59621000",
                "system": "http://snomed.info/sct",
                "display": "Essential hypertension"
              }
            ]
          },
          {
            "coding": [
              {
                "code": "80394007",
                "system": "http://snomed.info/sct",
                "display": "Hyperglycemia"
              }
            ]
          },
          {
            "coding": [
              {
                "code": "237602007",
                "system": "http://snomed.info/sct",
                "display": "Metabolic syndrome X"
              }
            ]
          },
          {
            "coding": [
              {
                "code": "302870006",
                "system": "http://snomed.info/sct",
                "display": "Hypertriglyceridemia"
              }
            ]
          },
          {
            "coding": [
              {
                "code": "44054006",
                "system": "http://snomed.info/sct",
                "display": "Type 2 diabetes mellitus"
              }
            ]
          },
          {
            "coding": [
              {
                "code": "271737000",
                "system": "http://snomed.info/sct",
                "display": "Anemia"
              }
            ]
          },
          {
            "coding": [
              {
                "code": "15777000",
                "system": "http://snomed.info/sct",
                "display": "Prediabetes"
              }
            ]
          }
        ],
        "status": "active",
        "intent": "order",
        "code": {
          "coding": [
            {
              "code": "108252007",
              "system": "http://snomed.info/sct",
              "display": "Laboratory procedure"
            }
          ]
        },
        "subject": {
          "reference": "urn:uuid:81be6cd2-456c-4cad-9c06-2dd1e15bb06b",
          "display": "Timothy Smith"
        },
        "requester": {
          "reference": "urn:uuid:e6338dda-5f1c-4cc3-8374-0b60a031d9f0"
        }
      }
    },
    {
      "fullUrl": "urn:uuid:e6338dda-5f1c-4cc3-8374-0b60a031d9f0",
      "resource": {
        "resourceType": "PractitionerRole",
        "id": "e6338dda-5f1c-4cc3-8374-0b60a031d9f0",
        "meta": {
          "profile": [
            "http://hl7.eu/fhir/base/StructureDefinition/practitionerRole-eu"
          ]
        },
        "text": {
          "status": "generated",
          "div": "<div xmlns=\"http://www.w3.org/1999/xhtml\">Provider Role Id: e6338dda-5f1c-4cc3-8374-0b60a031d9f0</div>"
        },
        "organization": {
          "reference": "urn:uuid:3eef6acd-75fc-45ae-b21f-5f9969a8be9e"
        }
      }
    },
    {
      "fullUrl": "urn:uuid:3eef6acd-75fc-45ae-b21f-5f9969a8be9e",
      "resource": {
        "resourceType": "Organization",
        "id": "3eef6acd-75fc-45ae-b21f-5f9969a8be9e",
        "meta": {
          "profile": [
            "http://hl7.eu/fhir/base/StructureDefinition/organization-eu"
          ]
        },
        "identifier": [
          {
            "assigner": {
              "display": "HL7 Europe"
            },
            "system": "urn:oid:2.16.840.1.113883.2.51.999",
            "value": "4a4ee4a9-e914-4487-80f8-074ff708d8bf"
          }
        ],
        "address": [
          {
            "city": "London",
            "postalCode": "SE1 7",
            "country": "United Kingdom"
          }
        ],
        "text": {
          "status": "generated",
          "div": "<div xmlns=\"http://www.w3.org/1999/xhtml\">Provider Organization: Evelina Children&#039;s Hospital</div>"
        },
        "name": "Evelina Children&#039;s Hospital"
      }
    },
    {
      "fullUrl": "urn:uuid:15879f02-06c2-49ab-9814-5e607853016e",
      "resource": {
        "resourceType": "Specimen",
        "id": "15879f02-06c2-49ab-9814-5e607853016e",
        "meta": {
          "profile": [
            "http://hl7.eu/fhir/laboratory/StructureDefinition/Specimen-eu-lab"
          ]
        },
        "collection": {
          "collectedDateTime": "2021-01-11"
        },
        "text": {
          "status": "generated",
          "div": "<div xmlns=\"http://www.w3.org/1999/xhtml\"><table class=\"hl7__eu__lab__report\"><tr><th>Specimen</th><th>Collection Date</th></tr><tr><td>Whole blood specimen (specimen)</td><td><span class=\"nb\">11-Jan-2021</span></td></tr></table></div>"
        },
        "type": {
          "coding": [
            {
              "code": "258580003",
              "system": "http://snomed.info/sct",
              "display": "Whole blood specimen (specimen)"
            }
          ]
        }
      }
    },
    {
      "fullUrl": "urn:uuid:49e1361a-b660-4442-b73f-f23ba2b9df05",
      "resource": {
        "resourceType": "Specimen",
        "id": "49e1361a-b660-4442-b73f-f23ba2b9df05",
        "meta": {
          "profile": [
            "http://hl7.eu/fhir/laboratory/StructureDefinition/Specimen-eu-lab"
          ]
        },
        "collection": {
          "collectedDateTime": "2021-01-11"
        },
        "text": {
          "status": "generated",
          "div": "<div xmlns=\"http://www.w3.org/1999/xhtml\"><table class=\"hl7__eu__lab__report\"><tr><th>Specimen</th><th>Collection Date</th></tr><tr><td>Acellular blood (serum or plasma) specimen</td><td><span class=\"nb\">11-Jan-2021</span></td></tr></table></div>"
        },
        "type": {
          "coding": [
            {
              "code": "122592007",
              "system": "http://snomed.info/sct",
              "display": "Acellular blood (serum or plasma) specimen"
            }
          ]
        }
      }
    },
    {
      "fullUrl": "urn:uuid:108bc325-ad91-4fd9-8d6a-a0157f5ea2c1",
      "resource": {
        "resourceType": "Specimen",
        "id": "108bc325-ad91-4fd9-8d6a-a0157f5ea2c1",
        "meta": {
          "profile": [
            "http://hl7.eu/fhir/laboratory/StructureDefinition/Specimen-eu-lab"
          ]
        },
        "collection": {
          "collectedDateTime": "2021-01-11"
        },
        "text": {
          "status": "generated",
          "div": "<div xmlns=\"http://www.w3.org/1999/xhtml\"><table class=\"hl7__eu__lab__report\"><tr><th>Specimen</th><th>Collection Date</th></tr><tr><td>Serum specimen</td><td><span class=\"nb\">11-Jan-2021</span></td></tr></table></div>"
        },
        "type": {
          "coding": [
            {
              "code": "119364003",
              "system": "http://snomed.info/sct",
              "display": "Serum specimen"
            }
          ]
        }
      }
    },
    {
      "fullUrl": "urn:uuid:7ab41803-6a6d-42b1-b6ce-0b7acc985cc0",
      "resource": {
        "resourceType": "Observation",
        "id": "7ab41803-6a6d-42b1-b6ce-0b7acc985cc0",
        "meta": {
          "profile": [
            "http://hl7.eu/fhir/laboratory/StructureDefinition/Observation-resultslab-eu-lab"
          ]
        },
        "performer": [
          {
            "display": "The Central European Lab"
          }
        ],
        "category": [
          {
            "coding": [
              {
                "system": "http://terminology.hl7.org/CodeSystem/observation-category",
                "code": "laboratory"
              }
            ]
          }
        ],
        "code": {
          "coding": [
            {
              "code": "2339-0",
              "system": "http://loinc.org",
              "display": "Glucose [Mass/volume] in Blood"
            }
          ],
          "text": "Glucose [Mass/volume] in Blood"
        },
        "valueQuantity": {
          "system": "http://unitsofmeasure.org",
          "value": 127.2,
          "unit": "mg/dL",
          "code": "mg/dL"
        },
        "referenceRange": [
          {
            "low": {
              "value": 70,
              "code": "mg/dL",
              "system": "http://unitsofmeasure.org"
            }
          },
          {
            "high": {
              "value": 140,
              "code": "mg/dL",
              "system": "http://unitsofmeasure.org"
            }
          }
        ],
        "text": {
          "status": "generated",
          "div": "<div xmlns=\"http://www.w3.org/1999/xhtml\"><table class=\"hl7__eu__lab__report\"><tr><th>Test</th><th>11-Jan-2021</th><th>Reference&#xA0;Range</th><th>Unit</th></tr><tr><td>Glucose [Mass/volume] in Blood</td><td>127.2</td><td>70 - 140</td><td></td><td>mg/dL</td></tr></table></div>"
        },
        "status": "final",
        "subject": {
          "reference": "urn:uuid:81be6cd2-456c-4cad-9c06-2dd1e15bb06b",
          "display": "Timothy Smith"
        },
        "effectiveDateTime": "2021-01-11T15:48:21Z",
        "specimen": {
          "reference": "urn:uuid:15879f02-06c2-49ab-9814-5e607853016e"
        }
      }
    },
    {
      "fullUrl": "urn:uuid:7832a730-6657-40a3-ad6d-5c184810ad0a",
      "resource": {
        "resourceType": "Observation",
        "id": "7832a730-6657-40a3-ad6d-5c184810ad0a",
        "meta": {
          "profile": [
            "http://hl7.eu/fhir/laboratory/StructureDefinition/Observation-resultslab-eu-lab"
          ]
        },
        "performer": [
          {
            "display": "The Central European Lab"
          }
        ],
        "category": [
          {
            "coding": [
              {
                "system": "http://terminology.hl7.org/CodeSystem/observation-category",
                "code": "laboratory"
              }
            ]
          }
        ],
        "code": {
          "coding": [
            {
              "code": "6299-2",
              "system": "http://loinc.org",
              "display": "Urea nitrogen [Mass/volume] in Blood"
            }
          ],
          "text": "Urea nitrogen [Mass/volume] in Blood"
        },
        "valueQuantity": {
          "system": "http://unitsofmeasure.org",
          "value": 16.6,
          "unit": "mg/dL",
          "code": "mg/dL"
        },
        "referenceRange": [
          {
            "low": {
              "value": 7,
              "code": "mg/dL",
              "system": "http://unitsofmeasure.org"
            }
          },
          {
            "high": {
              "value": 25,
              "code": "mg/dL",
              "system": "http://unitsofmeasure.org"
            }
          }
        ],
        "text": {
          "status": "generated",
          "div": "<div xmlns=\"http://www.w3.org/1999/xhtml\"><table class=\"hl7__eu__lab__report\"><tr><th>Test</th><th>11-Jan-2021</th><th>Reference&#xA0;Range</th><th>Unit</th></tr><tr><td>Urea nitrogen [Mass/volume] in Blood</td><td>16.6</td><td>7 - 25</td><td></td><td>mg/dL</td></tr></table></div>"
        },
        "status": "final",
        "subject": {
          "reference": "urn:uuid:81be6cd2-456c-4cad-9c06-2dd1e15bb06b",
          "display": "Timothy Smith"
        },
        "effectiveDateTime": "2021-01-11T15:48:21Z",
        "specimen": {
          "reference": "urn:uuid:15879f02-06c2-49ab-9814-5e607853016e"
        }
      }
    },
    {
      "fullUrl": "urn:uuid:838c46d9-c185-464e-b532-cfdcde42e8b0",
      "resource": {
        "resourceType": "Observation",
        "id": "838c46d9-c185-464e-b532-cfdcde42e8b0",
        "meta": {
          "profile": [
            "http://hl7.eu/fhir/laboratory/StructureDefinition/Observation-resultslab-eu-lab"
          ]
        },
        "performer": [
          {
            "display": "The Central European Lab"
          }
        ],
        "category": [
          {
            "coding": [
              {
                "system": "http://terminology.hl7.org/CodeSystem/observation-category",
                "code": "laboratory"
              }
            ]
          }
        ],
        "code": {
          "coding": [
            {
              "code": "38483-4",
              "system": "http://loinc.org",
              "display": "Creatinine [Mass/volume] in Blood"
            }
          ],
          "text": "Creatinine [Mass/volume] in Blood"
        },
        "valueQuantity": {
          "system": "http://unitsofmeasure.org",
          "value": 2.6,
          "unit": "mg/dL",
          "code": "mg/dL"
        },
        "referenceRange": [
          {
            "low": {
              "value": 0.6,
              "code": "mg/dL",
              "system": "http://unitsofmeasure.org"
            }
          },
          {
            "high": {
              "value": 1.3,
              "code": "mg/dL",
              "system": "http://unitsofmeasure.org"
            }
          }
        ],
        "interpretation": [
          {
            "coding": [
              {
                "code": "H",
                "system": "http://terminology.hl7.org/CodeSystem/v3-ObservationInterpretation",
                "display": "High"
              }
            ]
          }
        ],
        "text": {
          "status": "generated",
          "div": "<div xmlns=\"http://www.w3.org/1999/xhtml\"><table class=\"hl7__eu__lab__report\"><tr><th>Test</th><th>11-Jan-2021</th><th>Reference&#xA0;Range</th><th>Unit</th></tr><tr><td>Creatinine [Mass/volume] in Blood</td><td>2.6</td><td>0.6 - 1.3</td><td>H</td><td>mg/dL</td></tr></table></div>"
        },
        "status": "final",
        "subject": {
          "reference": "urn:uuid:81be6cd2-456c-4cad-9c06-2dd1e15bb06b",
          "display": "Timothy Smith"
        },
        "effectiveDateTime": "2021-01-11T15:48:21Z",
        "specimen": {
          "reference": "urn:uuid:15879f02-06c2-49ab-9814-5e607853016e"
        }
      }
    },
    {
      "fullUrl": "urn:uuid:35701bde-7105-491b-911a-3dc572297992",
      "resource": {
        "resourceType": "Observation",
        "id": "35701bde-7105-491b-911a-3dc572297992",
        "meta": {
          "profile": [
            "http://hl7.eu/fhir/laboratory/StructureDefinition/Observation-resultslab-eu-lab"
          ]
        },
        "performer": [
          {
            "display": "The Central European Lab"
          }
        ],
        "category": [
          {
            "coding": [
              {
                "system": "http://terminology.hl7.org/CodeSystem/observation-category",
                "code": "laboratory"
              }
            ]
          }
        ],
        "code": {
          "coding": [
            {
              "code": "49765-1",
              "system": "http://loinc.org",
              "display": "Calcium [Mass/volume] in Blood"
            }
          ],
          "text": "Calcium [Mass/volume] in Blood"
        },
        "valueQuantity": {
          "system": "http://unitsofmeasure.org",
          "value": 9.1,
          "unit": "mg/dL",
          "code": "mg/dL"
        },
        "referenceRange": [
          {
            "low": {
              "value": 8.5,
              "code": "mg/dL",
              "system": "http://unitsofmeasure.org"
            }
          },
          {
            "high": {
              "value": 10.5,
              "code": "mg/dL",
              "system": "http://unitsofmeasure.org"
            }
          }
        ],
        "text": {
          "status": "generated",
          "div": "<div xmlns=\"http://www.w3.org/1999/xhtml\"><table class=\"hl7__eu__lab__report\"><tr><th>Test</th><th>11-Jan-2021</th><th>Reference&#xA0;Range</th><th>Unit</th></tr><tr><td>Calcium [Mass/volume] in Blood</td><td>9.1</td><td>8.5 - 10.5</td><td></td><td>mg/dL</td></tr></table></div>"
        },
        "status": "final",
        "subject": {
          "reference": "urn:uuid:81be6cd2-456c-4cad-9c06-2dd1e15bb06b",
          "display": "Timothy Smith"
        },
        "effectiveDateTime": "2021-01-11T15:48:21Z",
        "specimen": {
          "reference": "urn:uuid:15879f02-06c2-49ab-9814-5e607853016e"
        }
      }
    },
    {
      "fullUrl": "urn:uuid:c05e7feb-f21e-46cc-a249-19b626fa9c04",
      "resource": {
        "resourceType": "Observation",
        "id": "c05e7feb-f21e-46cc-a249-19b626fa9c04",
        "meta": {
          "profile": [
            "http://hl7.eu/fhir/laboratory/StructureDefinition/Observation-resultslab-eu-lab"
          ]
        },
        "performer": [
          {
            "display": "The Central European Lab"
          }
        ],
        "category": [
          {
            "coding": [
              {
                "system": "http://terminology.hl7.org/CodeSystem/observation-category",
                "code": "laboratory"
              }
            ]
          }
        ],
        "code": {
          "coding": [
            {
              "code": "2947-0",
              "system": "http://loinc.org",
              "display": "Sodium [Moles/volume] in Blood"
            }
          ],
          "text": "Sodium [Moles/volume] in Blood"
        },
        "valueQuantity": {
          "system": "http://unitsofmeasure.org",
          "value": 139.5,
          "unit": "mmol/L",
          "code": "mmol/L"
        },
        "referenceRange": [
          {
            "low": {
              "value": 135,
              "code": "mmol/L",
              "system": "http://unitsofmeasure.org"
            }
          },
          {
            "high": {
              "value": 145,
              "code": "mmol/L",
              "system": "http://unitsofmeasure.org"
            }
          }
        ],
        "text": {
          "status": "generated",
          "div": "<div xmlns=\"http://www.w3.org/1999/xhtml\"><table class=\"hl7__eu__lab__report\"><tr><th>Test</th><th>11-Jan-2021</th><th>Reference&#xA0;Range</th><th>Unit</th></tr><tr><td>Sodium [Moles/volume] in Blood</td><td>139.5</td><td>135 - 145</td><td></td><td>mmol/L</td></tr></table></div>"
        },
        "status": "final",
        "subject": {
          "reference": "urn:uuid:81be6cd2-456c-4cad-9c06-2dd1e15bb06b",
          "display": "Timothy Smith"
        },
        "effectiveDateTime": "2021-01-11T15:48:21Z",
        "specimen": {
          "reference": "urn:uuid:15879f02-06c2-49ab-9814-5e607853016e"
        }
      }
    },
    {
      "fullUrl": "urn:uuid:5ceb1d33-191a-4bc0-a3ef-db4cdad22ea4",
      "resource": {
        "resourceType": "Observation",
        "id": "5ceb1d33-191a-4bc0-a3ef-db4cdad22ea4",
        "meta": {
          "profile": [
            "http://hl7.eu/fhir/laboratory/StructureDefinition/Observation-resultslab-eu-lab"
          ]
        },
        "performer": [
          {
            "display": "The Central European Lab"
          }
        ],
        "category": [
          {
            "coding": [
              {
                "system": "http://terminology.hl7.org/CodeSystem/observation-category",
                "code": "laboratory"
              }
            ]
          }
        ],
        "code": {
          "coding": [
            {
              "code": "6298-4",
              "system": "http://loinc.org",
              "display": "Potassium [Moles/volume] in Blood"
            }
          ],
          "text": "Potassium [Moles/volume] in Blood"
        },
        "valueQuantity": {
          "system": "http://unitsofmeasure.org",
          "value": 3.8,
          "unit": "mmol/L",
          "code": "mmol/L"
        },
        "referenceRange": [
          {
            "low": {
              "value": 3.5,
              "code": "mmol/L",
              "system": "http://unitsofmeasure.org"
            }
          },
          {
            "high": {
              "value": 5.1,
              "code": "mmol/L",
              "system": "http://unitsofmeasure.org"
            }
          }
        ],
        "text": {
          "status": "generated",
          "div": "<div xmlns=\"http://www.w3.org/1999/xhtml\"><table class=\"hl7__eu__lab__report\"><tr><th>Test</th><th>11-Jan-2021</th><th>Reference&#xA0;Range</th><th>Unit</th></tr><tr><td>Potassium [Moles/volume] in Blood</td><td>3.8</td><td>3.5 - 5.1</td><td></td><td>mmol/L</td></tr></table></div>"
        },
        "status": "final",
        "subject": {
          "reference": "urn:uuid:81be6cd2-456c-4cad-9c06-2dd1e15bb06b",
          "display": "Timothy Smith"
        },
        "effectiveDateTime": "2021-01-11T15:48:21Z",
        "specimen": {
          "reference": "urn:uuid:15879f02-06c2-49ab-9814-5e607853016e"
        }
      }
    },
    {
      "fullUrl": "urn:uuid:df364a28-8402-4d3e-944a-0ed54b4d46b9",
      "resource": {
        "resourceType": "Observation",
        "id": "df364a28-8402-4d3e-944a-0ed54b4d46b9",
        "meta": {
          "profile": [
            "http://hl7.eu/fhir/laboratory/StructureDefinition/Observation-resultslab-eu-lab"
          ]
        },
        "performer": [
          {
            "display": "The Central European Lab"
          }
        ],
        "category": [
          {
            "coding": [
              {
                "system": "http://terminology.hl7.org/CodeSystem/observation-category",
                "code": "laboratory"
              }
            ]
          }
        ],
        "code": {
          "coding": [
            {
              "code": "2069-3",
              "system": "http://loinc.org",
              "display": "Chloride [Moles/volume] in Blood"
            }
          ],
          "text": "Chloride [Moles/volume] in Blood"
        },
        "valueQuantity": {
          "system": "http://unitsofmeasure.org",
          "value": 110.5,
          "unit": "mmol/L",
          "code": "mmol/L"
        },
        "referenceRange": [
          {
            "low": {
              "value": 98,
              "code": "mmol/L",
              "system": "http://unitsofmeasure.org"
            }
          },
          {
            "high": {
              "value": 107,
              "code": "mmol/L",
              "system": "http://unitsofmeasure.org"
            }
          }
        ],
        "interpretation": [
          {
            "coding": [
              {
                "code": "H",
                "system": "http://terminology.hl7.org/CodeSystem/v3-ObservationInterpretation",
                "display": "High"
              }
            ]
          }
        ],
        "text": {
          "status": "generated",
          "div": "<div xmlns=\"http://www.w3.org/1999/xhtml\"><table class=\"hl7__eu__lab__report\"><tr><th>Test</th><th>11-Jan-2021</th><th>Reference&#xA0;Range</th><th>Unit</th></tr><tr><td>Chloride [Moles/volume] in Blood</td><td>110.5</td><td>98 - 107</td><td>H</td><td>mmol/L</td></tr></table></div>"
        },
        "status": "final",
        "subject": {
          "reference": "urn:uuid:81be6cd2-456c-4cad-9c06-2dd1e15bb06b",
          "display": "Timothy Smith"
        },
        "effectiveDateTime": "2021-01-11T15:48:21Z",
        "specimen": {
          "reference": "urn:uuid:15879f02-06c2-49ab-9814-5e607853016e"
        }
      }
    },
    {
      "fullUrl": "urn:uuid:f133abef-983e-419e-9d31-9ca4996c68dd",
      "resource": {
        "resourceType": "Observation",
        "id": "f133abef-983e-419e-9d31-9ca4996c68dd",
        "meta": {
          "profile": [
            "http://hl7.eu/fhir/laboratory/StructureDefinition/Observation-resultslab-eu-lab"
          ]
        },
        "performer": [
          {
            "display": "The Central European Lab"
          }
        ],
        "category": [
          {
            "coding": [
              {
                "system": "http://terminology.hl7.org/CodeSystem/observation-category",
                "code": "laboratory"
              }
            ]
          }
        ],
        "code": {
          "coding": [
            {
              "code": "20565-8",
              "system": "http://loinc.org",
              "display": "Carbon dioxide, total [Moles/volume] in Blood"
            }
          ],
          "text": "Carbon dioxide, total [Moles/volume] in Blood"
        },
        "valueQuantity": {
          "system": "http://unitsofmeasure.org",
          "value": 25.7,
          "unit": "mmol/L",
          "code": "mmol/L"
        },
        "referenceRange": [
          {
            "low": {
              "value": 22,
              "code": "mmol/L",
              "system": "http://unitsofmeasure.org"
            }
          },
          {
            "high": {
              "value": 29,
              "code": "mmol/L",
              "system": "http://unitsofmeasure.org"
            }
          }
        ],
        "text": {
          "status": "generated",
          "div": "<div xmlns=\"http://www.w3.org/1999/xhtml\"><table class=\"hl7__eu__lab__report\"><tr><th>Test</th><th>11-Jan-2021</th><th>Reference&#xA0;Range</th><th>Unit</th></tr><tr><td>Carbon dioxide, total [Moles/volume] in Blood</td><td>25.7</td><td>22 - 29</td><td></td><td>mmol/L</td></tr></table></div>"
        },
        "status": "final",
        "subject": {
          "reference": "urn:uuid:81be6cd2-456c-4cad-9c06-2dd1e15bb06b",
          "display": "Timothy Smith"
        },
        "effectiveDateTime": "2021-01-11T15:48:21Z",
        "specimen": {
          "reference": "urn:uuid:15879f02-06c2-49ab-9814-5e607853016e"
        }
      }
    },
    {
      "fullUrl": "urn:uuid:cdd7007a-afa1-4ef6-852c-4a86f04816a8",
      "resource": {
        "resourceType": "Observation",
        "id": "cdd7007a-afa1-4ef6-852c-4a86f04816a8",
        "meta": {
          "profile": [
            "http://hl7.eu/fhir/laboratory/StructureDefinition/Observation-resultslab-eu-lab"
          ]
        },
        "performer": [
          {
            "display": "The Central European Lab"
          }
        ],
        "category": [
          {
            "coding": [
              {
                "system": "http://terminology.hl7.org/CodeSystem/observation-category",
                "code": "laboratory"
              }
            ]
          }
        ],
        "code": {
          "coding": [
            {
              "code": "2885-2",
              "system": "http://loinc.org",
              "display": "Protein [Mass/volume] in Serum or Plasma"
            }
          ],
          "text": "Protein [Mass/volume] in Serum or Plasma"
        },
        "valueQuantity": {
          "system": "http://unitsofmeasure.org",
          "value": 7.3,
          "unit": "g/dL",
          "code": "g/dL"
        },
        "referenceRange": [
          {
            "low": {
              "value": 6,
              "code": "g/dL",
              "system": "http://unitsofmeasure.org"
            }
          },
          {
            "high": {
              "value": 8.3,
              "code": "g/dL",
              "system": "http://unitsofmeasure.org"
            }
          }
        ],
        "text": {
          "status": "generated",
          "div": "<div xmlns=\"http://www.w3.org/1999/xhtml\"><table class=\"hl7__eu__lab__report\"><tr><th>Test</th><th>11-Jan-2021</th><th>Reference&#xA0;Range</th><th>Unit</th></tr><tr><td>Protein [Mass/volume] in Serum or Plasma</td><td>7.3</td><td>6 - 8.3</td><td></td><td>g/dL</td></tr></table></div>"
        },
        "status": "final",
        "subject": {
          "reference": "urn:uuid:81be6cd2-456c-4cad-9c06-2dd1e15bb06b",
          "display": "Timothy Smith"
        },
        "effectiveDateTime": "2021-01-11T15:48:21Z",
        "specimen": {
          "reference": "urn:uuid:49e1361a-b660-4442-b73f-f23ba2b9df05"
        }
      }
    },
    {
      "fullUrl": "urn:uuid:37f6d648-5ab0-4d14-a3c1-925ab6135cd8",
      "resource": {
        "resourceType": "Observation",
        "id": "37f6d648-5ab0-4d14-a3c1-925ab6135cd8",
        "meta": {
          "profile": [
            "http://hl7.eu/fhir/laboratory/StructureDefinition/Observation-resultslab-eu-lab"
          ]
        },
        "performer": [
          {
            "display": "The Central European Lab"
          }
        ],
        "category": [
          {
            "coding": [
              {
                "system": "http://terminology.hl7.org/CodeSystem/observation-category",
                "code": "laboratory"
              }
            ]
          }
        ],
        "code": {
          "coding": [
            {
              "code": "1751-7",
              "system": "http://loinc.org",
              "display": "Albumin [Mass/volume] in Serum or Plasma"
            }
          ],
          "text": "Albumin [Mass/volume] in Serum or Plasma"
        },
        "valueQuantity": {
          "system": "http://unitsofmeasure.org",
          "value": 5.5,
          "unit": "g/dL",
          "code": "g/dL"
        },
        "referenceRange": [
          {
            "low": {
              "value": 3.5,
              "code": "g/dL",
              "system": "http://unitsofmeasure.org"
            }
          },
          {
            "high": {
              "value": 5.5,
              "code": "g/dL",
              "system": "http://unitsofmeasure.org"
            }
          }
        ],
        "text": {
          "status": "generated",
          "div": "<div xmlns=\"http://www.w3.org/1999/xhtml\"><table class=\"hl7__eu__lab__report\"><tr><th>Test</th><th>11-Jan-2021</th><th>Reference&#xA0;Range</th><th>Unit</th></tr><tr><td>Albumin [Mass/volume] in Serum or Plasma</td><td>5.5</td><td>3.5 - 5.5</td><td></td><td>g/dL</td></tr></table></div>"
        },
        "status": "final",
        "subject": {
          "reference": "urn:uuid:81be6cd2-456c-4cad-9c06-2dd1e15bb06b",
          "display": "Timothy Smith"
        },
        "effectiveDateTime": "2021-01-11T15:48:21Z",
        "specimen": {
          "reference": "urn:uuid:49e1361a-b660-4442-b73f-f23ba2b9df05"
        }
      }
    },
    {
      "fullUrl": "urn:uuid:e21d56fc-2724-4815-8537-5e64063beeb7",
      "resource": {
        "resourceType": "Observation",
        "id": "e21d56fc-2724-4815-8537-5e64063beeb7",
        "meta": {
          "profile": [
            "http://hl7.eu/fhir/laboratory/StructureDefinition/Observation-resultslab-eu-lab"
          ]
        },
        "performer": [
          {
            "display": "The Central European Lab"
          }
        ],
        "category": [
          {
            "coding": [
              {
                "system": "http://terminology.hl7.org/CodeSystem/observation-category",
                "code": "laboratory"
              }
            ]
          }
        ],
        "code": {
          "coding": [
            {
              "code": "10834-0",
              "system": "http://loinc.org",
              "display": "Globulin [Mass/volume] in Serum by calculation"
            }
          ],
          "text": "Globulin [Mass/volume] in Serum by calculation"
        },
        "valueQuantity": {
          "system": "http://unitsofmeasure.org",
          "value": 3,
          "unit": "g/L",
          "code": "g/L"
        },
        "referenceRange": [
          {
            "low": {
              "value": 2,
              "code": "g/L",
              "system": "http://unitsofmeasure.org"
            }
          },
          {
            "high": {
              "value": 3.5,
              "code": "g/L",
              "system": "http://unitsofmeasure.org"
            }
          }
        ],
        "text": {
          "status": "generated",
          "div": "<div xmlns=\"http://www.w3.org/1999/xhtml\"><table class=\"hl7__eu__lab__report\"><tr><th>Test</th><th>11-Jan-2021</th><th>Reference&#xA0;Range</th><th>Unit</th></tr><tr><td>Globulin [Mass/volume] in Serum by calculation</td><td>3.0</td><td>2 - 3.5</td><td></td><td>g/L</td></tr></table></div>"
        },
        "status": "final",
        "subject": {
          "reference": "urn:uuid:81be6cd2-456c-4cad-9c06-2dd1e15bb06b",
          "display": "Timothy Smith"
        },
        "effectiveDateTime": "2021-01-11T15:48:21Z",
        "specimen": {
          "reference": "urn:uuid:108bc325-ad91-4fd9-8d6a-a0157f5ea2c1"
        }
      }
    },
    {
      "fullUrl": "urn:uuid:1b8c3ee6-1c8c-4855-8940-d14f8585db8e",
      "resource": {
        "resourceType": "Observation",
        "id": "1b8c3ee6-1c8c-4855-8940-d14f8585db8e",
        "meta": {
          "profile": [
            "http://hl7.eu/fhir/laboratory/StructureDefinition/Observation-resultslab-eu-lab"
          ]
        },
        "performer": [
          {
            "display": "The Central European Lab"
          }
        ],
        "category": [
          {
            "coding": [
              {
                "system": "http://terminology.hl7.org/CodeSystem/observation-category",
                "code": "laboratory"
              }
            ]
          }
        ],
        "code": {
          "coding": [
            {
              "code": "1975-2",
              "system": "http://loinc.org",
              "display": "Bilirubin.total [Mass/volume] in Serum or Plasma"
            }
          ],
          "text": "Bilirubin.total [Mass/volume] in Serum or Plasma"
        },
        "valueQuantity": {
          "system": "http://unitsofmeasure.org",
          "value": 1,
          "unit": "mg/dL",
          "code": "mg/dL"
        },
        "referenceRange": [
          {
            "low": {
              "value": 0.3,
              "code": "mg/dL",
              "system": "http://unitsofmeasure.org"
            }
          },
          {
            "high": {
              "value": 1.2,
              "code": "mg/dL",
              "system": "http://unitsofmeasure.org"
            }
          }
        ],
        "text": {
          "status": "generated",
          "div": "<div xmlns=\"http://www.w3.org/1999/xhtml\"><table class=\"hl7__eu__lab__report\"><tr><th>Test</th><th>11-Jan-2021</th><th>Reference&#xA0;Range</th><th>Unit</th></tr><tr><td>Bilirubin.total [Mass/volume] in Serum or Plasma</td><td>1.0</td><td>0.3 - 1.2</td><td></td><td>mg/dL</td></tr></table></div>"
        },
        "status": "final",
        "subject": {
          "reference": "urn:uuid:81be6cd2-456c-4cad-9c06-2dd1e15bb06b",
          "display": "Timothy Smith"
        },
        "effectiveDateTime": "2021-01-11T15:48:21Z",
        "specimen": {
          "reference": "urn:uuid:49e1361a-b660-4442-b73f-f23ba2b9df05"
        }
      }
    },
    {
      "fullUrl": "urn:uuid:acc6a36b-b74b-42c1-b55f-26f98edcc22f",
      "resource": {
        "resourceType": "Observation",
        "id": "acc6a36b-b74b-42c1-b55f-26f98edcc22f",
        "meta": {
          "profile": [
            "http://hl7.eu/fhir/laboratory/StructureDefinition/Observation-resultslab-eu-lab"
          ]
        },
        "performer": [
          {
            "display": "The Central European Lab"
          }
        ],
        "category": [
          {
            "coding": [
              {
                "system": "http://terminology.hl7.org/CodeSystem/observation-category",
                "code": "laboratory"
              }
            ]
          }
        ],
        "code": {
          "coding": [
            {
              "code": "6768-6",
              "system": "http://loinc.org",
              "display": "Alkaline phosphatase [Enzymatic activity/volume] in Serum or Plasma"
            }
          ],
          "text": "Alkaline phosphatase [Enzymatic activity/volume] in Serum or Plasma"
        },
        "valueQuantity": {
          "system": "http://unitsofmeasure.org",
          "value": 95.3,
          "unit": "U/L",
          "code": "U/L"
        },
        "referenceRange": [
          {
            "low": {
              "value": 40,
              "code": "U/L",
              "system": "http://unitsofmeasure.org"
            }
          },
          {
            "high": {
              "value": 117,
              "code": "U/L",
              "system": "http://unitsofmeasure.org"
            }
          }
        ],
        "text": {
          "status": "generated",
          "div": "<div xmlns=\"http://www.w3.org/1999/xhtml\"><table class=\"hl7__eu__lab__report\"><tr><th>Test</th><th>11-Jan-2021</th><th>Reference&#xA0;Range</th><th>Unit</th></tr><tr><td>Alkaline phosphatase [Enzymatic activity/volume] in Serum or Plasma</td><td>95.3</td><td>40 - 117</td><td></td><td>U/L</td></tr></table></div>"
        },
        "status": "final",
        "subject": {
          "reference": "urn:uuid:81be6cd2-456c-4cad-9c06-2dd1e15bb06b",
          "display": "Timothy Smith"
        },
        "effectiveDateTime": "2021-01-11T15:48:21Z",
        "specimen": {
          "reference": "urn:uuid:49e1361a-b660-4442-b73f-f23ba2b9df05"
        }
      }
    },
    {
      "fullUrl": "urn:uuid:5708039f-6aed-4ab2-801a-609e811f1e3f",
      "resource": {
        "resourceType": "Observation",
        "id": "5708039f-6aed-4ab2-801a-609e811f1e3f",
        "meta": {
          "profile": [
            "http://hl7.eu/fhir/laboratory/StructureDefinition/Observation-resultslab-eu-lab"
          ]
        },
        "performer": [
          {
            "display": "The Central European Lab"
          }
        ],
        "category": [
          {
            "coding": [
              {
                "system": "http://terminology.hl7.org/CodeSystem/observation-category",
                "code": "laboratory"
              }
            ]
          }
        ],
        "code": {
          "coding": [
            {
              "code": "1742-6",
              "system": "http://loinc.org",
              "display": "Alanine aminotransferase [Enzymatic activity/volume] in Serum or Plasma"
            }
          ],
          "text": "Alanine aminotransferase [Enzymatic activity/volume] in Serum or Plasma"
        },
        "valueQuantity": {
          "system": "http://unitsofmeasure.org",
          "value": 28.9,
          "unit": "U/L",
          "code": "U/L"
        },
        "referenceRange": [
          {
            "low": {
              "value": 10,
              "code": "U/L",
              "system": "http://unitsofmeasure.org"
            }
          },
          {
            "high": {
              "value": 66,
              "code": "U/L",
              "system": "http://unitsofmeasure.org"
            }
          }
        ],
        "text": {
          "status": "generated",
          "div": "<div xmlns=\"http://www.w3.org/1999/xhtml\"><table class=\"hl7__eu__lab__report\"><tr><th>Test</th><th>11-Jan-2021</th><th>Reference&#xA0;Range</th><th>Unit</th></tr><tr><td>Alanine aminotransferase [Enzymatic activity/volume] in Serum or Plasma</td><td>28.9</td><td>10 - 66</td><td></td><td>U/L</td></tr></table></div>"
        },
        "status": "final",
        "subject": {
          "reference": "urn:uuid:81be6cd2-456c-4cad-9c06-2dd1e15bb06b",
          "display": "Timothy Smith"
        },
        "effectiveDateTime": "2021-01-11T15:48:21Z",
        "specimen": {
          "reference": "urn:uuid:49e1361a-b660-4442-b73f-f23ba2b9df05"
        }
      }
    },
    {
      "fullUrl": "urn:uuid:f5b06af7-9171-404a-ac0d-78ff8bd39c4c",
      "resource": {
        "resourceType": "Observation",
        "id": "f5b06af7-9171-404a-ac0d-78ff8bd39c4c",
        "meta": {
          "profile": [
            "http://hl7.eu/fhir/laboratory/StructureDefinition/Observation-resultslab-eu-lab"
          ]
        },
        "performer": [
          {
            "display": "The Central European Lab"
          }
        ],
        "category": [
          {
            "coding": [
              {
                "system": "http://terminology.hl7.org/CodeSystem/observation-category",
                "code": "laboratory"
              }
            ]
          }
        ],
        "code": {
          "coding": [
            {
              "code": "1920-8",
              "system": "http://loinc.org",
              "display": "Aspartate aminotransferase [Enzymatic activity/volume] in Serum or Plasma"
            }
          ],
          "text": "Aspartate aminotransferase [Enzymatic activity/volume] in Serum or Plasma"
        },
        "valueQuantity": {
          "system": "http://unitsofmeasure.org",
          "value": 16.1,
          "unit": "U/L",
          "code": "U/L"
        },
        "referenceRange": [
          {
            "low": {
              "value": 10,
              "code": "U/L",
              "system": "http://unitsofmeasure.org"
            }
          },
          {
            "high": {
              "value": 40,
              "code": "U/L",
              "system": "http://unitsofmeasure.org"
            }
          }
        ],
        "text": {
          "status": "generated",
          "div": "<div xmlns=\"http://www.w3.org/1999/xhtml\"><table class=\"hl7__eu__lab__report\"><tr><th>Test</th><th>11-Jan-2021</th><th>Reference&#xA0;Range</th><th>Unit</th></tr><tr><td>Aspartate aminotransferase [Enzymatic activity/volume] in Serum or Plasma</td><td>16.1</td><td>10 - 40</td><td></td><td>U/L</td></tr></table></div>"
        },
        "status": "final",
        "subject": {
          "reference": "urn:uuid:81be6cd2-456c-4cad-9c06-2dd1e15bb06b",
          "display": "Timothy Smith"
        },
        "effectiveDateTime": "2021-01-11T15:48:21Z",
        "specimen": {
          "reference": "urn:uuid:49e1361a-b660-4442-b73f-f23ba2b9df05"
        }
      }
    },
    {
      "fullUrl": "urn:uuid:e6623af0-7349-4fd1-a296-517d41008365",
      "resource": {
        "resourceType": "Observation",
        "id": "e6623af0-7349-4fd1-a296-517d41008365",
        "meta": {
          "profile": [
            "http://hl7.eu/fhir/laboratory/StructureDefinition/Observation-resultslab-eu-lab"
          ]
        },
        "performer": [
          {
            "display": "The Central European Lab"
          }
        ],
        "category": [
          {
            "coding": [
              {
                "system": "http://terminology.hl7.org/CodeSystem/observation-category",
                "code": "laboratory"
              }
            ]
          }
        ],
        "code": {
          "coding": [
            {
              "code": "2093-3",
              "system": "http://loinc.org",
              "display": "Cholesterol [Mass/volume] in Serum or Plasma"
            }
          ],
          "text": "Cholesterol [Mass/volume] in Serum or Plasma"
        },
        "valueQuantity": {
          "system": "http://unitsofmeasure.org",
          "value": 157.8,
          "unit": "mg/dL",
          "code": "mg/dL"
        },
        "referenceRange": [
          {
            "low": {
              "value": 0,
              "code": "mg/dL",
              "system": "http://unitsofmeasure.org"
            }
          },
          {
            "high": {
              "value": 200,
              "code": "mg/dL",
              "system": "http://unitsofmeasure.org"
            }
          }
        ],
        "text": {
          "status": "generated",
          "div": "<div xmlns=\"http://www.w3.org/1999/xhtml\"><table class=\"hl7__eu__lab__report\"><tr><th>Test</th><th>11-Jan-2021</th><th>Reference&#xA0;Range</th><th>Unit</th></tr><tr><td>Cholesterol [Mass/volume] in Serum or Plasma</td><td>157.8</td><td>0 - 200</td><td></td><td>mg/dL</td></tr></table></div>"
        },
        "status": "final",
        "subject": {
          "reference": "urn:uuid:81be6cd2-456c-4cad-9c06-2dd1e15bb06b",
          "display": "Timothy Smith"
        },
        "effectiveDateTime": "2021-01-11T15:48:21Z",
        "specimen": {
          "reference": "urn:uuid:49e1361a-b660-4442-b73f-f23ba2b9df05"
        }
      }
    },
    {
      "fullUrl": "urn:uuid:329f401c-56a4-4ed3-8733-5fc87eb38622",
      "resource": {
        "resourceType": "Observation",
        "id": "329f401c-56a4-4ed3-8733-5fc87eb38622",
        "meta": {
          "profile": [
            "http://hl7.eu/fhir/laboratory/StructureDefinition/Observation-resultslab-eu-lab"
          ]
        },
        "performer": [
          {
            "display": "The Central European Lab"
          }
        ],
        "category": [
          {
            "coding": [
              {
                "system": "http://terminology.hl7.org/CodeSystem/observation-category",
                "code": "laboratory"
              }
            ]
          }
        ],
        "code": {
          "coding": [
            {
              "code": "2571-8",
              "system": "http://loinc.org",
              "display": "Triglyceride [Mass/volume] in Serum or Plasma"
            }
          ],
          "text": "Triglyceride [Mass/volume] in Serum or Plasma"
        },
        "valueQuantity": {
          "system": "http://unitsofmeasure.org",
          "value": 114.7,
          "unit": "mg/dL",
          "code": "mg/dL"
        },
        "referenceRange": [
          {
            "low": {
              "value": 0,
              "code": "mg/dL",
              "system": "http://unitsofmeasure.org"
            }
          },
          {
            "high": {
              "value": 199,
              "code": "mg/dL",
              "system": "http://unitsofmeasure.org"
            }
          }
        ],
        "text": {
          "status": "generated",
          "div": "<div xmlns=\"http://www.w3.org/1999/xhtml\"><table class=\"hl7__eu__lab__report\"><tr><th>Test</th><th>11-Jan-2021</th><th>Reference&#xA0;Range</th><th>Unit</th></tr><tr><td>Triglyceride [Mass/volume] in Serum or Plasma</td><td>114.7</td><td>0 - 199</td><td></td><td>mg/dL</td></tr></table></div>"
        },
        "status": "final",
        "subject": {
          "reference": "urn:uuid:81be6cd2-456c-4cad-9c06-2dd1e15bb06b",
          "display": "Timothy Smith"
        },
        "effectiveDateTime": "2021-01-11T15:48:21Z",
        "specimen": {
          "reference": "urn:uuid:49e1361a-b660-4442-b73f-f23ba2b9df05"
        }
      }
    },
    {
      "fullUrl": "urn:uuid:88def69b-296d-4085-9435-3f1c5c3c30b3",
      "resource": {
        "resourceType": "Observation",
        "id": "88def69b-296d-4085-9435-3f1c5c3c30b3",
        "meta": {
          "profile": [
            "http://hl7.eu/fhir/laboratory/StructureDefinition/Observation-resultslab-eu-lab"
          ]
        },
        "performer": [
          {
            "display": "The Central European Lab"
          }
        ],
        "category": [
          {
            "coding": [
              {
                "system": "http://terminology.hl7.org/CodeSystem/observation-category",
                "code": "laboratory"
              }
            ]
          }
        ],
        "code": {
          "coding": [
            {
              "code": "18262-6",
              "system": "http://loinc.org",
              "display": "Cholesterol in LDL [Mass/volume] in Serum or Plasma by Direct assay"
            }
          ],
          "text": "Cholesterol in LDL [Mass/volume] in Serum or Plasma by Direct assay"
        },
        "valueQuantity": {
          "system": "http://unitsofmeasure.org",
          "value": 134,
          "unit": "mg/dL",
          "code": "mg/dL"
        },
        "referenceRange": [
          {
            "low": {
              "value": 0,
              "code": "mg/dL",
              "system": "http://unitsofmeasure.org"
            }
          },
          {
            "high": {
              "value": 130,
              "code": "mg/dL",
              "system": "http://unitsofmeasure.org"
            }
          }
        ],
        "interpretation": [
          {
            "coding": [
              {
                "code": "H",
                "system": "http://terminology.hl7.org/CodeSystem/v3-ObservationInterpretation",
                "display": "High"
              }
            ]
          }
        ],
        "text": {
          "status": "generated",
          "div": "<div xmlns=\"http://www.w3.org/1999/xhtml\"><table class=\"hl7__eu__lab__report\"><tr><th>Test</th><th>11-Jan-2021</th><th>Reference&#xA0;Range</th><th>Unit</th></tr><tr><td>Cholesterol in LDL [Mass/volume] in Serum or Plasma by Direct assay</td><td>134.0</td><td>0 - 130</td><td>H</td><td>mg/dL</td></tr></table></div>"
        },
        "status": "final",
        "subject": {
          "reference": "urn:uuid:81be6cd2-456c-4cad-9c06-2dd1e15bb06b",
          "display": "Timothy Smith"
        },
        "effectiveDateTime": "2021-01-11T15:48:21Z",
        "specimen": {
          "reference": "urn:uuid:49e1361a-b660-4442-b73f-f23ba2b9df05"
        }
      }
    },
    {
      "fullUrl": "urn:uuid:b51a379c-a772-4676-bee8-3bc344727643",
      "resource": {
        "resourceType": "Observation",
        "id": "b51a379c-a772-4676-bee8-3bc344727643",
        "meta": {
          "profile": [
            "http://hl7.eu/fhir/laboratory/StructureDefinition/Observation-resultslab-eu-lab"
          ]
        },
        "performer": [
          {
            "display": "The Central European Lab"
          }
        ],
        "category": [
          {
            "coding": [
              {
                "system": "http://terminology.hl7.org/CodeSystem/observation-category",
                "code": "laboratory"
              }
            ]
          }
        ],
        "code": {
          "coding": [
            {
              "code": "2085-9",
              "system": "http://loinc.org",
              "display": "Cholesterol in HDL [Mass/volume] in Serum or Plasma"
            }
          ],
          "text": "Cholesterol in HDL [Mass/volume] in Serum or Plasma"
        },
        "valueQuantity": {
          "system": "http://unitsofmeasure.org",
          "value": 54.5,
          "unit": "mg/dL",
          "code": "mg/dL"
        },
        "referenceRange": [
          {
            "low": {
              "value": 40,
              "code": "mg/dL",
              "system": "http://unitsofmeasure.org"
            }
          },
          {
            "high": {
              "value": 100,
              "code": "mg/dL",
              "system": "http://unitsofmeasure.org"
            }
          }
        ],
        "text": {
          "status": "generated",
          "div": "<div xmlns=\"http://www.w3.org/1999/xhtml\"><table class=\"hl7__eu__lab__report\"><tr><th>Test</th><th>11-Jan-2021</th><th>Reference&#xA0;Range</th><th>Unit</th></tr><tr><td>Cholesterol in HDL [Mass/volume] in Serum or Plasma</td><td>54.5</td><td>40 - 100</td><td></td><td>mg/dL</td></tr></table></div>"
        },
        "status": "final",
        "subject": {
          "reference": "urn:uuid:81be6cd2-456c-4cad-9c06-2dd1e15bb06b",
          "display": "Timothy Smith"
        },
        "effectiveDateTime": "2021-01-11T15:48:21Z",
        "specimen": {
          "reference": "urn:uuid:49e1361a-b660-4442-b73f-f23ba2b9df05"
        }
      }
    },
    {
      "fullUrl": "urn:uuid:bf20d369-d6b1-489f-9a03-d10974fbdb3f",
      "resource": {
        "resourceType": "Device",
        "id": "bf20d369-d6b1-489f-9a03-d10974fbdb3f",
        "deviceName": [
          {
            "name": "SYNDERAI Synthetic Generator",
            "type": "manufacturer-name"
          }
        ],
        "version": [
          {
            "value": "5.0"
          }
        ],
        "text": {
          "status": "generated",
          "div": "<div xmlns=\"http://www.w3.org/1999/xhtml\">SYNDERAI Synthetic Generator v5.0</div>"
        },
        "status": "active\"",
        "distinctIdentifier": "synderai-generator-50",
        "manufacturer": "SYNDERAI Project"
      }
    },
    {
      "fullUrl": "urn:uuid:5ca7f60c-1d22-4f43-be08-ab08c586da30",
      "resource": {
        "resourceType": "Provenance",
        "id": "5ca7f60c-1d22-4f43-be08-ab08c586da30",
        "target": [
          {
            "reference": "Patient/81be6cd2-456c-4cad-9c06-2dd1e15bb06b"
          },
          {
            "reference": "Bundle/c3439102-e56c-4100-87e1-2fc2d9b82b63"
          },
          {
            "reference": "Composition/a80ec655-c2f4-497b-bac1-617f90586c96"
          },
          {
            "reference": "PractitionerRole/9d2c3abb-082c-4b68-ab1c-2af29502e207"
          },
          {
            "reference": "Practitioner/04076795-3969-4504-b8b2-e60450b8638b"
          },
          {
            "reference": "PractitionerRole/e6338dda-5f1c-4cc3-8374-0b60a031d9f0"
          },
          {
            "reference": "Organization/3eef6acd-75fc-45ae-b21f-5f9969a8be9e"
          }
        ],
        "activity": {
          "text": "Synthetic Example Data Generation"
        },
        "policy": [
          "https://synderai.net/synderai-synthetic-data-policy"
        ],
        "agent": [
          {
            "type": {
              "text": "author"
            },
            "who": {
              "reference": "Device/bf20d369-d6b1-489f-9a03-d10974fbdb3f"
            }
          }
        ],
        "reason": [
          {
            "text": "Interoperability Testing and Training (non-clinical use)"
          }
        ],
        "text": {
          "status": "generated",
          "div": "<div xmlns=\"http://www.w3.org/1999/xhtml\">Provenance for SYNDERAI Synthetic Example Data Resource</div>"
        },
        "recorded": "2021-01-11T16:48:21Z"
      }
    },
    {
      "fullUrl": "urn:uuid:9d2c3abb-082c-4b68-ab1c-2af29502e207",
      "resource": {
        "resourceType": "PractitionerRole",
        "id": "9d2c3abb-082c-4b68-ab1c-2af29502e207",
        "meta": {
          "profile": [
            "http://hl7.eu/fhir/base/StructureDefinition/practitionerRole-eu"
          ]
        },
        "text": {
          "status": "generated",
          "div": "<div xmlns=\"http://www.w3.org/1999/xhtml\">Laboratory Role Id: 9d2c3abb-082c-4b68-ab1c-2af29502e207</div>"
        },
        "practitioner": {
          "reference": "urn:uuid:04076795-3969-4504-b8b2-e60450b8638b"
        }
      }
    },
    {
      "fullUrl": "urn:uuid:04076795-3969-4504-b8b2-e60450b8638b",
      "resource": {
        "resourceType": "Practitioner",
        "id": "04076795-3969-4504-b8b2-e60450b8638b",
        "meta": {
          "profile": [
            "http://hl7.eu/fhir/base/StructureDefinition/practitioner-eu"
          ]
        },
        "identifier": [
          {
            "assigner": {
              "display": "HL7 Europe"
            },
            "system": "urn:oid:2.16.840.1.113883.2.51.999",
            "value": "4ffb2a5f-2150-4017-b39b-dada1ac79276"
          }
        ],
        "name": [
          {
            "prefix": [
              "dr"
            ],
            "given": [
              "Ex"
            ],
            "family": "Ample"
          }
        ],
        "address": [
          {
            "line": [
              "Laboratoire Central Européenne",
              "Boulevard du Jardin Botanique 32"
            ],
            "postalCode": "1000",
            "city": "Brussels",
            "country": "Belgium"
          }
        ],
        "text": {
          "status": "generated",
          "div": "<div xmlns=\"http://www.w3.org/1999/xhtml\">Laboratory: Laboratoire Central Européenne, 1000 Brussels, Belgium</div>"
        }
      }
    }
  ],
  "type": "document",
  "timestamp": "2021-01-11T16:48:21Z"
}
