{
  "resourceType": "Bundle",
  "id": "58ce1d57-a17c-4665-9c4d-5ae695f7f9e8",
  "meta": {
    "profile": [
      "http://hl7.eu/fhir/laboratory/StructureDefinition/Bundle-eu-lab"
    ]
  },
  "identifier": {
    "assigner": {
      "display": "HL7 Europe"
    },
    "system": "urn:oid:2.16.840.1.113883.2.51.999",
    "value": "74ef5c54-fa59-4e97-99b9-f1d06a86e8ae"
  },
  "entry": [
    {
      "fullUrl": "urn:uuid:ad35699b-61b9-4118-929e-452da9962872",
      "resource": {
        "resourceType": "Composition",
        "id": "ad35699b-61b9-4118-929e-452da9962872",
        "meta": {
          "profile": [
            "http://hl7.eu/fhir/laboratory/StructureDefinition/Composition-eu-lab"
          ]
        },
        "identifier": {
          "assigner": {
            "display": "HL7 Europe"
          },
          "system": "urn:oid:2.16.840.1.113883.2.51.999",
          "value": "b7af8e54-f0cd-428a-aebb-d8f260cb3141"
        },
        "author": [
          {
            "reference": "urn:uuid:79887eee-81ad-47c1-b24b-6fc4d60c8cbf"
          }
        ],
        "category": [
          {
            "coding": [
              {
                "code": "26436-6",
                "system": "http://loinc.org",
                "display": "Laboratory studies (set)"
              }
            ]
          }
        ],
        "type": {
          "coding": [
            {
              "code": "11502-2",
              "system": "http://loinc.org",
              "display": "Laboratory report"
            }
          ],
          "text": "Laboratory Report"
        },
        "section": [
          {
            "code": {
              "coding": [
                {
                  "code": "26436-6",
                  "system": "http://loinc.org",
                  "display": "Laboratory studies (set)"
                }
              ],
              "text": "Laboratory studies"
            },
            "section": [
              {
                "code": {
                  "coding": [
                    {
                      "code": "$18723-7",
                      "system": "http://loinc.org",
                      "display": "Hematology studies (set)"
                    }
                  ],
                  "text": "Hematology"
                },
                "entry": [
                  {
                    "reference": "urn:uuid:1fb0f6c5-eff2-427b-95a6-9f7314b4227e"
                  },
                  {
                    "reference": "urn:uuid:18373c9a-104a-4e02-b628-6f482265763b"
                  },
                  {
                    "reference": "urn:uuid:f0270653-355e-4ea2-9201-3b615a4b5473"
                  },
                  {
                    "reference": "urn:uuid:90272353-27c9-489f-a844-ce31711e6f71"
                  },
                  {
                    "reference": "urn:uuid:7b57bba3-5c13-4faf-86d5-26aeb25ee822"
                  },
                  {
                    "reference": "urn:uuid:d9f8ce72-da20-4d12-a926-a3a707bb10d0"
                  },
                  {
                    "reference": "urn:uuid:8673e7a3-6983-4b91-a021-5f4c8fb8b646"
                  },
                  {
                    "reference": "urn:uuid:e179f748-60ae-4cba-8cb2-add2eb1f955e"
                  },
                  {
                    "reference": "urn:uuid:b4b9fd73-2f8d-46c7-a969-0459c9aaf7c6"
                  },
                  {
                    "reference": "urn:uuid:b4573e6e-1475-4208-97b0-9315883f564e"
                  },
                  {
                    "reference": "urn:uuid:7c081e66-b90e-4fa7-80ec-03daa3bd2b4b"
                  }
                ],
                "text": {
                  "status": "generated",
                  "div": "<div xmlns=\"http://www.w3.org/1999/xhtml\"><h3>Hematology</h3><table class=\"hl7__eu__lab__report\"><thead><tr><th>Test</th><th>31-MAY-2016</th><th>Reference&#xA0;Range</th><th>Unit</th></tr></thead><tbody><tr><td>Leukocytes [#/volume] in Blood by Automated count</td><td>8.0</td><td>3.4 - 10.6</td><td>10*3/uL</td></tr><tr><td>Erythrocytes [#/volume] in Blood by Automated count</td><td><strong>5.4 H</strong></td><td>4.2 - 5.2</td><td>10*6/uL</td></tr><tr><td>Hemoglobin [Mass/volume] in Blood</td><td>16.0</td><td>12 - 16</td><td>g/dL</td></tr><tr><td>Hematocrit [Volume Fraction] of Blood by Automated count</td><td>44.4</td><td>36 - 48</td><td>%</td></tr><tr><td>MCV [Entitic volume] by Automated count</td><td>94.6</td><td>82 - 98</td><td>fL</td></tr><tr><td>MCH [Entitic mass] by Automated count</td><td>29.2</td><td>27 - 33</td><td>pg</td></tr><tr><td>MCHC [Mass/volume] by Automated count</td><td>35.9</td><td>32 - 37</td><td>g/dL</td></tr><tr><td>Erythrocyte distribution width [Entitic volume] by Automated count</td><td>45.0</td><td>36 - 46</td><td>fL</td></tr><tr><td>Platelets [#/volume] in Blood by Automated count</td><td>427.7</td><td>150 - 450</td><td>10*3/uL</td></tr><tr><td>Platelet distribution width [Entitic volume] in Blood by Automated count</td><td><strong>250.4 H</strong></td><td>11.6 - 17.4</td><td>fL</td></tr><tr><td>Platelet mean volume [Entitic volume] in Blood by Automated count</td><td>12.0</td><td>7.4 - 12</td><td>fL</td></tr></tbody></table></div>"
                },
                "title": "Hematology"
              },
              {
                "code": {
                  "coding": [
                    {
                      "code": "$18719-5",
                      "system": "http://loinc.org",
                      "display": "Chemistry studies (set)"
                    }
                  ],
                  "text": "Chemistry"
                },
                "entry": [
                  {
                    "reference": "urn:uuid:9d2c5605-baa9-4cc9-b762-8c83dbd8d7e7"
                  },
                  {
                    "reference": "urn:uuid:4e922f41-5e39-4187-bcfc-f95f7ca9a5d6"
                  },
                  {
                    "reference": "urn:uuid:937c3a7a-16e3-4331-87d3-027b37f31273"
                  },
                  {
                    "reference": "urn:uuid:7b73a154-075c-4519-9218-24ecb8e73d54"
                  },
                  {
                    "reference": "urn:uuid:3891e369-eac3-417b-ab9a-bfee776f2ddf"
                  },
                  {
                    "reference": "urn:uuid:7df6f76c-0f78-4420-bfd8-a173346bcc0a"
                  },
                  {
                    "reference": "urn:uuid:325b3517-f88c-4a58-b76b-158e5b43a2dc"
                  },
                  {
                    "reference": "urn:uuid:1dd4a22b-3f25-4375-847a-22031fe7bf24"
                  },
                  {
                    "reference": "urn:uuid:4e117995-6107-4fef-af77-e543e2940ce3"
                  }
                ],
                "text": {
                  "status": "generated",
                  "div": "<div xmlns=\"http://www.w3.org/1999/xhtml\"><h3>Chemistry</h3><table class=\"hl7__eu__lab__report\"><thead><tr><th>Test</th><th>31-MAY-2016</th><th>Reference&#xA0;Range</th><th>Unit</th></tr></thead><tbody><tr><td>Glucose [Mass/volume] in Blood</td><td>74.9</td><td>70 - 140</td><td>mg/dL</td></tr><tr><td>Urea nitrogen [Mass/volume] in Blood</td><td>8.9</td><td>7 - 25</td><td>mg/dL</td></tr><tr><td>Creatinine [Mass/volume] in Blood</td><td>1.1</td><td>0.6 - 1.1</td><td>mg/dL</td></tr><tr><td>Calcium [Mass/volume] in Blood</td><td>8.8</td><td>8.6 - 10.4</td><td>mg/dL</td></tr><tr><td>Sodium [Moles/volume] in Blood</td><td>140.1</td><td>135 - 145</td><td>mmol/L</td></tr><tr><td>Potassium [Moles/volume] in Blood</td><td>3.9</td><td>3.5 - 5.1</td><td>mmol/L</td></tr><tr><td>Chloride [Moles/volume] in Blood</td><td>105.0</td><td>98 - 110</td><td>mmol/L</td></tr><tr><td>Carbon dioxide, total [Moles/volume] in Blood</td><td><strong>21.9 L</strong></td><td>22 - 29</td><td>mmol/L</td></tr><tr><td>Ketones [Presence] in Urine by Test strip</td><td>0.0</td><td>0 - 0</td><td>{presence}</td></tr></tbody></table></div>"
                },
                "title": "Chemistry"
              },
              {
                "code": {
                  "coding": [
                    {
                      "code": "$18729-4",
                      "system": "http://loinc.org",
                      "display": "Urinalysis studies (set)"
                    }
                  ],
                  "text": "Urinalysis"
                },
                "entry": [
                  {
                    "reference": "urn:uuid:773f73e0-a0fd-4701-a3c4-778d0cf5070c"
                  },
                  {
                    "reference": "urn:uuid:c522fbb6-6ff4-4081-93ca-f3a3f8240c7f"
                  },
                  {
                    "reference": "urn:uuid:d32fa148-ecc2-4218-8813-3432fa09372b"
                  },
                  {
                    "reference": "urn:uuid:498c2e18-5de6-4de6-b7bf-6d7d8ac65b90"
                  },
                  {
                    "reference": "urn:uuid:865d8066-8670-43d0-82fc-b63b36215ac3"
                  },
                  {
                    "reference": "urn:uuid:b0391fa4-5eca-42ea-809e-0fc3614f9f77"
                  },
                  {
                    "reference": "urn:uuid:9658290c-9e84-46ea-9449-fe6d3096bbc1"
                  },
                  {
                    "reference": "urn:uuid:911eb6b7-ef11-447f-ad5a-d042cad5dd9a"
                  }
                ],
                "text": {
                  "status": "generated",
                  "div": "<div xmlns=\"http://www.w3.org/1999/xhtml\"><h3>Urinalysis</h3><table class=\"hl7__eu__lab__report\"><thead><tr><th>Test</th><th>31-MAY-2016</th><th>Reference&#xA0;Range</th><th>Unit</th></tr></thead><tbody><tr><td>Glucose [Presence] in Urine by Test strip</td><td>0.0</td><td>0 - 0.8</td><td>{presence}</td></tr><tr><td>Bilirubin.total [Presence] in Urine by Test strip</td><td>0.0</td><td>0 - 0</td><td>{presence}</td></tr><tr><td>Specific gravity of Urine by Test strip</td><td><strong>1.0 L</strong></td><td>1.005 - 1.03</td><td>{SG}</td></tr><tr><td>pH of Urine by Test strip</td><td>6.9</td><td>4.5 - 8</td><td>[pH]</td></tr><tr><td>Protein [Presence] in Urine by Test strip</td><td>0.0</td><td>0 - 0</td><td>{presence}</td></tr><tr><td>Nitrite [Presence] in Urine by Test strip</td><td>0.0</td><td>0 - 0</td><td>{presence}</td></tr><tr><td>Hemoglobin [Presence] in Urine by Test strip</td><td>0.0</td><td>0 - 0</td><td>{presence}</td></tr><tr><td>Leukocyte esterase [Presence] in Urine by Test strip</td><td>0.0</td><td>0 - 0</td><td>{presence}</td></tr></tbody></table></div>"
                },
                "title": "Urinalysis"
              }
            ],
            "title": "Laboratory Report"
          },
          {
            "text": {
              "status": "generated",
              "div": "<div xmlns=\"http://www.w3.org/1999/xhtml\"><h3>Annotation</h3><table class=\"hl7__eu__lab__report\"><tr><th>Conclusion and Recommendations based on this report and previous findings known to us</th></tr><tr><td>Most parameters are within normal limits. Mildly low total CO₂ may suggest a tendency toward metabolic acidosis, and elevated erythrocyte count could indicate relative polycythemia or dehydration. Platelet distribution width is markedly high, which may reflect platelet anisocytosis but should be correlated clinically. Urine specific gravity is low, possibly indicating dilute urine. No evidence of infection or proteinuria in urine. Clinical correlation is recommended.</td></tr></table></div>"
            },
            "code": {
              "coding": [
                {
                  "system": "http://loinc.org",
                  "code": "48767-8",
                  "display": "Annotation comment"
                }
              ]
            },
            "title": "Annotation comment"
          }
        ],
        "status": "final",
        "subject": {
          "reference": "urn:uuid:e39cf4ae-77c4-402b-aaba-1c26774429b3",
          "display": "Iva Kratochvílová"
        },
        "date": "2016-05-31T02:28:20Z",
        "title": "Laboratory Report",
        "confidentiality": "N"
      }
    },
    {
      "fullUrl": "urn:uuid:e482bdd1-3352-4a36-9cc0-5297650d7cd3",
      "resource": {
        "resourceType": "DiagnosticReport",
        "id": "e482bdd1-3352-4a36-9cc0-5297650d7cd3",
        "meta": {
          "profile": [
            "http://hl7.eu/fhir/laboratory/StructureDefinition/DiagnosticReport-eu-lab"
          ]
        },
        "identifier": [
          {
            "assigner": {
              "display": "HL7 Europe"
            },
            "system": "urn:oid:2.16.840.1.113883.2.51.999",
            "value": "b8e5a0f0-7323-4403-a7b2-050ca44cd962"
          }
        ],
        "extension": [
          {
            "url": "http://hl7.org/fhir/5.0/StructureDefinition/extension-DiagnosticReport.composition",
            "valueReference": {
              "reference": "urn:uuid:b7af8e54-f0cd-428a-aebb-d8f260cb3141"
            }
          }
        ],
        "category": [
          {
            "coding": [
              {
                "code": "26436-6",
                "system": "http://loinc.org",
                "display": "Laboratory studies (set)"
              }
            ]
          }
        ],
        "specimen": [
          {
            "reference": "urn:uuid:8f388ba7-a14e-47a1-a416-7a8b683a465b"
          },
          {
            "reference": "urn:uuid:8f388ba7-a14e-47a1-a416-7a8b683a465b"
          },
          {
            "reference": "urn:uuid:20a260ed-ccfe-4add-b838-6fcbf3c962cb"
          }
        ],
        "result": [
          {
            "reference": "urn:uuid:9d2c5605-baa9-4cc9-b762-8c83dbd8d7e7"
          },
          {
            "reference": "urn:uuid:4e922f41-5e39-4187-bcfc-f95f7ca9a5d6"
          },
          {
            "reference": "urn:uuid:937c3a7a-16e3-4331-87d3-027b37f31273"
          },
          {
            "reference": "urn:uuid:7b73a154-075c-4519-9218-24ecb8e73d54"
          },
          {
            "reference": "urn:uuid:3891e369-eac3-417b-ab9a-bfee776f2ddf"
          },
          {
            "reference": "urn:uuid:7df6f76c-0f78-4420-bfd8-a173346bcc0a"
          },
          {
            "reference": "urn:uuid:325b3517-f88c-4a58-b76b-158e5b43a2dc"
          },
          {
            "reference": "urn:uuid:1dd4a22b-3f25-4375-847a-22031fe7bf24"
          },
          {
            "reference": "urn:uuid:1fb0f6c5-eff2-427b-95a6-9f7314b4227e"
          },
          {
            "reference": "urn:uuid:18373c9a-104a-4e02-b628-6f482265763b"
          },
          {
            "reference": "urn:uuid:f0270653-355e-4ea2-9201-3b615a4b5473"
          },
          {
            "reference": "urn:uuid:90272353-27c9-489f-a844-ce31711e6f71"
          },
          {
            "reference": "urn:uuid:7b57bba3-5c13-4faf-86d5-26aeb25ee822"
          },
          {
            "reference": "urn:uuid:d9f8ce72-da20-4d12-a926-a3a707bb10d0"
          },
          {
            "reference": "urn:uuid:8673e7a3-6983-4b91-a021-5f4c8fb8b646"
          },
          {
            "reference": "urn:uuid:e179f748-60ae-4cba-8cb2-add2eb1f955e"
          },
          {
            "reference": "urn:uuid:b4b9fd73-2f8d-46c7-a969-0459c9aaf7c6"
          },
          {
            "reference": "urn:uuid:b4573e6e-1475-4208-97b0-9315883f564e"
          },
          {
            "reference": "urn:uuid:7c081e66-b90e-4fa7-80ec-03daa3bd2b4b"
          },
          {
            "reference": "urn:uuid:773f73e0-a0fd-4701-a3c4-778d0cf5070c"
          },
          {
            "reference": "urn:uuid:c522fbb6-6ff4-4081-93ca-f3a3f8240c7f"
          },
          {
            "reference": "urn:uuid:4e117995-6107-4fef-af77-e543e2940ce3"
          },
          {
            "reference": "urn:uuid:d32fa148-ecc2-4218-8813-3432fa09372b"
          },
          {
            "reference": "urn:uuid:498c2e18-5de6-4de6-b7bf-6d7d8ac65b90"
          },
          {
            "reference": "urn:uuid:865d8066-8670-43d0-82fc-b63b36215ac3"
          },
          {
            "reference": "urn:uuid:b0391fa4-5eca-42ea-809e-0fc3614f9f77"
          },
          {
            "reference": "urn:uuid:9658290c-9e84-46ea-9449-fe6d3096bbc1"
          },
          {
            "reference": "urn:uuid:911eb6b7-ef11-447f-ad5a-d042cad5dd9a"
          }
        ],
        "status": "registered",
        "code": {
          "coding": [
            {
              "code": "11502-2",
              "system": "http://loinc.org",
              "display": "Laboratory report"
            }
          ]
        },
        "subject": {
          "reference": "urn:uuid:e39cf4ae-77c4-402b-aaba-1c26774429b3",
          "display": "Iva Kratochvílová"
        }
      }
    },
    {
      "fullUrl": "urn:uuid:e39cf4ae-77c4-402b-aaba-1c26774429b3",
      "resource": {
        "resourceType": "Patient",
        "id": "e39cf4ae-77c4-402b-aaba-1c26774429b3",
        "meta": {
          "security": [
            {
              "system": "http://terminology.hl7.org/CodeSystem/v3-ActReason",
              "code": "HTEST"
            },
            {
              "system": "http://terminology.hl7.org/CodeSystem/v3-ActReason",
              "code": "TRAIN"
            }
          ],
          "tag": [
            {
              "system": "https://synderai.net/fhir/CodeSystem/tags",
              "code": "synthetic",
              "display": "SYNDERAI Synthetic data"
            }
          ],
          "profile": [
            "http://hl7.eu/fhir/base/StructureDefinition/patient-eu-core"
          ]
        },
        "identifier": [
          {
            "type": {
              "coding": [
                {
                  "code": "PT",
                  "system": "http://terminology.hl7.org/CodeSystem/v2-0203"
                }
              ]
            },
            "system": "http://ec.europa.eu/identifier/eci",
            "value": "4380-389488-0"
          },
          {
            "type": {
              "coding": [
                {
                  "code": "MR",
                  "system": "http://terminology.hl7.org/CodeSystem/v2-0203"
                }
              ]
            },
            "system": "http://local.setting.eu/identifier",
            "value": "f8f9ebdc-03dd-2fc0-819c-affa4ffd7f67"
          }
        ],
        "name": [
          {
            "family": "Kratochvílová"
          },
          {
            "given": [
              "Iva"
            ]
          },
          {
            "text": "Iva Kratochvílová"
          }
        ],
        "address": [
          {
            "line": [
              "Žofie Podlipské 4"
            ],
            "use": "home",
            "type": "physical",
            "postalCode": "27324",
            "city": "Postoloprty",
            "country": "Czechia"
          }
        ],
        "telecom": [
          {
            "system": "phone",
            "value": "00420 607 985 072"
          }
        ],
        "extension": [
          {
            "url": "http://hl7.org/fhir/StructureDefinition/patient-nationality",
            "valueCodeableConcept": {
              "coding": [
                {
                  "code": "CZ",
                  "system": "http://hl7.org/fhir/ValueSet/country"
                }
              ]
            }
          }
        ],
        "text": {
          "status": "generated",
          "div": "<div xmlns=\"http://www.w3.org/1999/xhtml\"><table class=\"hl7__ips\"><tr><td>Iva Kratochvílová</td><td>female</td><td>17-Sep-1964</td></tr></table></div>"
        },
        "gender": "female",
        "birthDate": "1964-09-17"
      }
    },
    {
      "fullUrl": "urn:uuid:bfdd0f99-635d-4e2c-bf3e-013adf865cb7",
      "resource": {
        "resourceType": "ServiceRequest",
        "id": "bfdd0f99-635d-4e2c-bf3e-013adf865cb7",
        "meta": {
          "profile": [
            "http://hl7.eu/fhir/laboratory/StructureDefinition/ServiceRequest-eu-lab"
          ]
        },
        "identifier": [
          {
            "system": "http://example.org",
            "value": "48d86c6d-7e64-4821-b931-08338fb76eeb"
          }
        ],
        "specimen": [
          {
            "reference": "urn:uuid:8f388ba7-a14e-47a1-a416-7a8b683a465b"
          },
          {
            "reference": "urn:uuid:20a260ed-ccfe-4add-b838-6fcbf3c962cb"
          }
        ],
        "reasonCode": [
          {
            "coding": [
              {
                "code": "431856006",
                "system": "http://snomed.info/sct",
                "display": "Chronic kidney disease stage 2"
              }
            ]
          },
          {
            "coding": [
              {
                "code": "431855005",
                "system": "http://snomed.info/sct",
                "display": "Chronic kidney disease stage 1"
              }
            ]
          },
          {
            "coding": [
              {
                "code": "237602007",
                "system": "http://snomed.info/sct",
                "display": "Metabolic syndrome X"
              }
            ]
          },
          {
            "coding": [
              {
                "code": "91302008",
                "system": "http://snomed.info/sct",
                "display": "Sepsis"
              }
            ]
          },
          {
            "coding": [
              {
                "code": "271737000",
                "system": "http://snomed.info/sct",
                "display": "Anemia"
              }
            ]
          },
          {
            "coding": [
              {
                "code": "15777000",
                "system": "http://snomed.info/sct",
                "display": "Prediabetes"
              }
            ]
          },
          {
            "coding": [
              {
                "code": "157141000119108",
                "system": "http://snomed.info/sct",
                "display": "Proteinuria due to type 2 diabetes mellitus"
              }
            ]
          },
          {
            "coding": [
              {
                "code": "90781000119102",
                "system": "http://snomed.info/sct",
                "display": "Microalbuminuria due to type 2 diabetes mellitus"
              }
            ]
          },
          {
            "coding": [
              {
                "code": "239872002",
                "system": "http://snomed.info/sct",
                "display": "Osteoarthritis of hip"
              }
            ]
          },
          {
            "coding": [
              {
                "code": "40055000",
                "system": "http://snomed.info/sct",
                "display": "Chronic sinusitis"
              }
            ]
          },
          {
            "coding": [
              {
                "code": "127013003",
                "system": "http://snomed.info/sct",
                "display": "Disorder of kidney due to diabetes mellitus"
              }
            ]
          },
          {
            "coding": [
              {
                "code": "59621000",
                "system": "http://snomed.info/sct",
                "display": "Essential hypertension"
              }
            ]
          }
        ],
        "status": "active",
        "intent": "order",
        "code": {
          "coding": [
            {
              "code": "108252007",
              "system": "http://snomed.info/sct",
              "display": "Laboratory procedure"
            }
          ]
        },
        "subject": {
          "reference": "urn:uuid:e39cf4ae-77c4-402b-aaba-1c26774429b3",
          "display": "Iva Kratochvílová"
        },
        "requester": {
          "reference": "urn:uuid:515d54ad-1f8f-4411-8b87-9768b5b23a7a"
        }
      }
    },
    {
      "fullUrl": "urn:uuid:515d54ad-1f8f-4411-8b87-9768b5b23a7a",
      "resource": {
        "resourceType": "PractitionerRole",
        "id": "515d54ad-1f8f-4411-8b87-9768b5b23a7a",
        "meta": {
          "profile": [
            "http://hl7.eu/fhir/base/StructureDefinition/practitionerRole-eu"
          ]
        },
        "text": {
          "status": "generated",
          "div": "<div xmlns=\"http://www.w3.org/1999/xhtml\">Provider Role Id: 515d54ad-1f8f-4411-8b87-9768b5b23a7a</div>"
        },
        "organization": {
          "reference": "urn:uuid:08f5fe6c-30ba-43cf-9927-23861092a550"
        }
      }
    },
    {
      "fullUrl": "urn:uuid:08f5fe6c-30ba-43cf-9927-23861092a550",
      "resource": {
        "resourceType": "Organization",
        "id": "08f5fe6c-30ba-43cf-9927-23861092a550",
        "meta": {
          "profile": [
            "http://hl7.eu/fhir/base/StructureDefinition/organization-eu"
          ]
        },
        "identifier": [
          {
            "assigner": {
              "display": "HL7 Europe"
            },
            "system": "urn:oid:2.16.840.1.113883.2.51.999",
            "value": "4b66fb91-0b4c-464c-bf32-1db899c6c41e"
          }
        ],
        "address": [
          {
            "city": "Kadaň",
            "postalCode": "432 01",
            "country": "Czechia"
          }
        ],
        "text": {
          "status": "generated",
          "div": "<div xmlns=\"http://www.w3.org/1999/xhtml\">Provider Organization: Nemocnice s poliklinikou Kadaň</div>"
        },
        "name": "Nemocnice s poliklinikou Kadaň"
      }
    },
    {
      "fullUrl": "urn:uuid:8f388ba7-a14e-47a1-a416-7a8b683a465b",
      "resource": {
        "resourceType": "Specimen",
        "id": "8f388ba7-a14e-47a1-a416-7a8b683a465b",
        "meta": {
          "profile": [
            "http://hl7.eu/fhir/laboratory/StructureDefinition/Specimen-eu-lab"
          ]
        },
        "collection": {
          "collectedDateTime": "2016-05-31"
        },
        "text": {
          "status": "generated",
          "div": "<div xmlns=\"http://www.w3.org/1999/xhtml\"><table class=\"hl7__eu__lab__report\"><tr><th>Specimen</th><th>Collection Date</th></tr><tr><td>Whole blood specimen (specimen)</td><td><span class=\"nb\">31-May-2016</span></td></tr></table></div>"
        },
        "type": {
          "coding": [
            {
              "code": "258580003",
              "system": "http://snomed.info/sct",
              "display": "Whole blood specimen (specimen)"
            }
          ]
        }
      }
    },
    {
      "fullUrl": "urn:uuid:8f388ba7-a14e-47a1-a416-7a8b683a465b",
      "resource": {
        "resourceType": "Specimen",
        "id": "8f388ba7-a14e-47a1-a416-7a8b683a465b",
        "meta": {
          "profile": [
            "http://hl7.eu/fhir/laboratory/StructureDefinition/Specimen-eu-lab"
          ]
        },
        "collection": {
          "collectedDateTime": "2016-05-31"
        },
        "text": {
          "status": "generated",
          "div": "<div xmlns=\"http://www.w3.org/1999/xhtml\"><table class=\"hl7__eu__lab__report\"><tr><th>Specimen</th><th>Collection Date</th></tr><tr><td>Whole blood specimen (specimen)</td><td><span class=\"nb\">31-May-2016</span></td></tr></table></div>"
        },
        "type": {
          "coding": [
            {
              "code": "258580003",
              "system": "http://snomed.info/sct",
              "display": "Whole blood specimen (specimen)"
            }
          ]
        }
      }
    },
    {
      "fullUrl": "urn:uuid:20a260ed-ccfe-4add-b838-6fcbf3c962cb",
      "resource": {
        "resourceType": "Specimen",
        "id": "20a260ed-ccfe-4add-b838-6fcbf3c962cb",
        "meta": {
          "profile": [
            "http://hl7.eu/fhir/laboratory/StructureDefinition/Specimen-eu-lab"
          ]
        },
        "collection": {
          "collectedDateTime": "2016-05-31"
        },
        "text": {
          "status": "generated",
          "div": "<div xmlns=\"http://www.w3.org/1999/xhtml\"><table class=\"hl7__eu__lab__report\"><tr><th>Specimen</th><th>Collection Date</th></tr><tr><td>Urine specimen</td><td><span class=\"nb\">31-May-2016</span></td></tr></table></div>"
        },
        "type": {
          "coding": [
            {
              "code": "122575003",
              "system": "http://snomed.info/sct",
              "display": "Urine specimen"
            }
          ]
        }
      }
    },
    {
      "fullUrl": "urn:uuid:9d2c5605-baa9-4cc9-b762-8c83dbd8d7e7",
      "resource": {
        "resourceType": "Observation",
        "id": "9d2c5605-baa9-4cc9-b762-8c83dbd8d7e7",
        "meta": {
          "profile": [
            "http://hl7.eu/fhir/laboratory/StructureDefinition/Observation-resultslab-eu-lab"
          ]
        },
        "performer": [
          {
            "display": "The Central European Lab"
          }
        ],
        "category": [
          {
            "coding": [
              {
                "system": "http://terminology.hl7.org/CodeSystem/observation-category",
                "code": "laboratory"
              }
            ]
          }
        ],
        "code": {
          "coding": [
            {
              "code": "2339-0",
              "system": "http://loinc.org",
              "display": "Glucose [Mass/volume] in Blood"
            }
          ],
          "text": "Glucose [Mass/volume] in Blood"
        },
        "valueQuantity": {
          "system": "http://unitsofmeasure.org",
          "value": 74.9,
          "unit": "mg/dL",
          "code": "mg/dL"
        },
        "referenceRange": [
          {
            "low": {
              "value": 70,
              "code": "mg/dL",
              "system": "http://unitsofmeasure.org"
            }
          },
          {
            "high": {
              "value": 140,
              "code": "mg/dL",
              "system": "http://unitsofmeasure.org"
            }
          }
        ],
        "text": {
          "status": "generated",
          "div": "<div xmlns=\"http://www.w3.org/1999/xhtml\"><table class=\"hl7__eu__lab__report\"><tr><th>Test</th><th>31-May-2016</th><th>Reference&#xA0;Range</th><th>Unit</th></tr><tr><td>Glucose [Mass/volume] in Blood</td><td>74.9</td><td>70 - 140</td><td></td><td>mg/dL</td></tr></table></div>"
        },
        "status": "final",
        "subject": {
          "reference": "urn:uuid:e39cf4ae-77c4-402b-aaba-1c26774429b3",
          "display": "Iva Kratochvílová"
        },
        "effectiveDateTime": "2016-05-31T00:28:20Z",
        "specimen": {
          "reference": "urn:uuid:8f388ba7-a14e-47a1-a416-7a8b683a465b"
        }
      }
    },
    {
      "fullUrl": "urn:uuid:4e922f41-5e39-4187-bcfc-f95f7ca9a5d6",
      "resource": {
        "resourceType": "Observation",
        "id": "4e922f41-5e39-4187-bcfc-f95f7ca9a5d6",
        "meta": {
          "profile": [
            "http://hl7.eu/fhir/laboratory/StructureDefinition/Observation-resultslab-eu-lab"
          ]
        },
        "performer": [
          {
            "display": "The Central European Lab"
          }
        ],
        "category": [
          {
            "coding": [
              {
                "system": "http://terminology.hl7.org/CodeSystem/observation-category",
                "code": "laboratory"
              }
            ]
          }
        ],
        "code": {
          "coding": [
            {
              "code": "6299-2",
              "system": "http://loinc.org",
              "display": "Urea nitrogen [Mass/volume] in Blood"
            }
          ],
          "text": "Urea nitrogen [Mass/volume] in Blood"
        },
        "valueQuantity": {
          "system": "http://unitsofmeasure.org",
          "value": 8.9,
          "unit": "mg/dL",
          "code": "mg/dL"
        },
        "referenceRange": [
          {
            "low": {
              "value": 7,
              "code": "mg/dL",
              "system": "http://unitsofmeasure.org"
            }
          },
          {
            "high": {
              "value": 25,
              "code": "mg/dL",
              "system": "http://unitsofmeasure.org"
            }
          }
        ],
        "text": {
          "status": "generated",
          "div": "<div xmlns=\"http://www.w3.org/1999/xhtml\"><table class=\"hl7__eu__lab__report\"><tr><th>Test</th><th>31-May-2016</th><th>Reference&#xA0;Range</th><th>Unit</th></tr><tr><td>Urea nitrogen [Mass/volume] in Blood</td><td>8.9</td><td>7 - 25</td><td></td><td>mg/dL</td></tr></table></div>"
        },
        "status": "final",
        "subject": {
          "reference": "urn:uuid:e39cf4ae-77c4-402b-aaba-1c26774429b3",
          "display": "Iva Kratochvílová"
        },
        "effectiveDateTime": "2016-05-31T00:28:20Z",
        "specimen": {
          "reference": "urn:uuid:8f388ba7-a14e-47a1-a416-7a8b683a465b"
        }
      }
    },
    {
      "fullUrl": "urn:uuid:937c3a7a-16e3-4331-87d3-027b37f31273",
      "resource": {
        "resourceType": "Observation",
        "id": "937c3a7a-16e3-4331-87d3-027b37f31273",
        "meta": {
          "profile": [
            "http://hl7.eu/fhir/laboratory/StructureDefinition/Observation-resultslab-eu-lab"
          ]
        },
        "performer": [
          {
            "display": "The Central European Lab"
          }
        ],
        "category": [
          {
            "coding": [
              {
                "system": "http://terminology.hl7.org/CodeSystem/observation-category",
                "code": "laboratory"
              }
            ]
          }
        ],
        "code": {
          "coding": [
            {
              "code": "38483-4",
              "system": "http://loinc.org",
              "display": "Creatinine [Mass/volume] in Blood"
            }
          ],
          "text": "Creatinine [Mass/volume] in Blood"
        },
        "valueQuantity": {
          "system": "http://unitsofmeasure.org",
          "value": 1.1,
          "unit": "mg/dL",
          "code": "mg/dL"
        },
        "referenceRange": [
          {
            "low": {
              "value": 0.6,
              "code": "mg/dL",
              "system": "http://unitsofmeasure.org"
            }
          },
          {
            "high": {
              "value": 1.1,
              "code": "mg/dL",
              "system": "http://unitsofmeasure.org"
            }
          }
        ],
        "text": {
          "status": "generated",
          "div": "<div xmlns=\"http://www.w3.org/1999/xhtml\"><table class=\"hl7__eu__lab__report\"><tr><th>Test</th><th>31-May-2016</th><th>Reference&#xA0;Range</th><th>Unit</th></tr><tr><td>Creatinine [Mass/volume] in Blood</td><td>1.1</td><td>0.6 - 1.1</td><td></td><td>mg/dL</td></tr></table></div>"
        },
        "status": "final",
        "subject": {
          "reference": "urn:uuid:e39cf4ae-77c4-402b-aaba-1c26774429b3",
          "display": "Iva Kratochvílová"
        },
        "effectiveDateTime": "2016-05-31T00:28:20Z",
        "specimen": {
          "reference": "urn:uuid:8f388ba7-a14e-47a1-a416-7a8b683a465b"
        }
      }
    },
    {
      "fullUrl": "urn:uuid:7b73a154-075c-4519-9218-24ecb8e73d54",
      "resource": {
        "resourceType": "Observation",
        "id": "7b73a154-075c-4519-9218-24ecb8e73d54",
        "meta": {
          "profile": [
            "http://hl7.eu/fhir/laboratory/StructureDefinition/Observation-resultslab-eu-lab"
          ]
        },
        "performer": [
          {
            "display": "The Central European Lab"
          }
        ],
        "category": [
          {
            "coding": [
              {
                "system": "http://terminology.hl7.org/CodeSystem/observation-category",
                "code": "laboratory"
              }
            ]
          }
        ],
        "code": {
          "coding": [
            {
              "code": "49765-1",
              "system": "http://loinc.org",
              "display": "Calcium [Mass/volume] in Blood"
            }
          ],
          "text": "Calcium [Mass/volume] in Blood"
        },
        "valueQuantity": {
          "system": "http://unitsofmeasure.org",
          "value": 8.8,
          "unit": "mg/dL",
          "code": "mg/dL"
        },
        "referenceRange": [
          {
            "low": {
              "value": 8.6,
              "code": "mg/dL",
              "system": "http://unitsofmeasure.org"
            }
          },
          {
            "high": {
              "value": 10.4,
              "code": "mg/dL",
              "system": "http://unitsofmeasure.org"
            }
          }
        ],
        "text": {
          "status": "generated",
          "div": "<div xmlns=\"http://www.w3.org/1999/xhtml\"><table class=\"hl7__eu__lab__report\"><tr><th>Test</th><th>31-May-2016</th><th>Reference&#xA0;Range</th><th>Unit</th></tr><tr><td>Calcium [Mass/volume] in Blood</td><td>8.8</td><td>8.6 - 10.4</td><td></td><td>mg/dL</td></tr></table></div>"
        },
        "status": "final",
        "subject": {
          "reference": "urn:uuid:e39cf4ae-77c4-402b-aaba-1c26774429b3",
          "display": "Iva Kratochvílová"
        },
        "effectiveDateTime": "2016-05-31T00:28:20Z",
        "specimen": {
          "reference": "urn:uuid:8f388ba7-a14e-47a1-a416-7a8b683a465b"
        }
      }
    },
    {
      "fullUrl": "urn:uuid:3891e369-eac3-417b-ab9a-bfee776f2ddf",
      "resource": {
        "resourceType": "Observation",
        "id": "3891e369-eac3-417b-ab9a-bfee776f2ddf",
        "meta": {
          "profile": [
            "http://hl7.eu/fhir/laboratory/StructureDefinition/Observation-resultslab-eu-lab"
          ]
        },
        "performer": [
          {
            "display": "The Central European Lab"
          }
        ],
        "category": [
          {
            "coding": [
              {
                "system": "http://terminology.hl7.org/CodeSystem/observation-category",
                "code": "laboratory"
              }
            ]
          }
        ],
        "code": {
          "coding": [
            {
              "code": "2947-0",
              "system": "http://loinc.org",
              "display": "Sodium [Moles/volume] in Blood"
            }
          ],
          "text": "Sodium [Moles/volume] in Blood"
        },
        "valueQuantity": {
          "system": "http://unitsofmeasure.org",
          "value": 140.1,
          "unit": "mmol/L",
          "code": "mmol/L"
        },
        "referenceRange": [
          {
            "low": {
              "value": 135,
              "code": "mmol/L",
              "system": "http://unitsofmeasure.org"
            }
          },
          {
            "high": {
              "value": 145,
              "code": "mmol/L",
              "system": "http://unitsofmeasure.org"
            }
          }
        ],
        "text": {
          "status": "generated",
          "div": "<div xmlns=\"http://www.w3.org/1999/xhtml\"><table class=\"hl7__eu__lab__report\"><tr><th>Test</th><th>31-May-2016</th><th>Reference&#xA0;Range</th><th>Unit</th></tr><tr><td>Sodium [Moles/volume] in Blood</td><td>140.1</td><td>135 - 145</td><td></td><td>mmol/L</td></tr></table></div>"
        },
        "status": "final",
        "subject": {
          "reference": "urn:uuid:e39cf4ae-77c4-402b-aaba-1c26774429b3",
          "display": "Iva Kratochvílová"
        },
        "effectiveDateTime": "2016-05-31T00:28:20Z",
        "specimen": {
          "reference": "urn:uuid:8f388ba7-a14e-47a1-a416-7a8b683a465b"
        }
      }
    },
    {
      "fullUrl": "urn:uuid:7df6f76c-0f78-4420-bfd8-a173346bcc0a",
      "resource": {
        "resourceType": "Observation",
        "id": "7df6f76c-0f78-4420-bfd8-a173346bcc0a",
        "meta": {
          "profile": [
            "http://hl7.eu/fhir/laboratory/StructureDefinition/Observation-resultslab-eu-lab"
          ]
        },
        "performer": [
          {
            "display": "The Central European Lab"
          }
        ],
        "category": [
          {
            "coding": [
              {
                "system": "http://terminology.hl7.org/CodeSystem/observation-category",
                "code": "laboratory"
              }
            ]
          }
        ],
        "code": {
          "coding": [
            {
              "code": "6298-4",
              "system": "http://loinc.org",
              "display": "Potassium [Moles/volume] in Blood"
            }
          ],
          "text": "Potassium [Moles/volume] in Blood"
        },
        "valueQuantity": {
          "system": "http://unitsofmeasure.org",
          "value": 3.9,
          "unit": "mmol/L",
          "code": "mmol/L"
        },
        "referenceRange": [
          {
            "low": {
              "value": 3.5,
              "code": "mmol/L",
              "system": "http://unitsofmeasure.org"
            }
          },
          {
            "high": {
              "value": 5.1,
              "code": "mmol/L",
              "system": "http://unitsofmeasure.org"
            }
          }
        ],
        "text": {
          "status": "generated",
          "div": "<div xmlns=\"http://www.w3.org/1999/xhtml\"><table class=\"hl7__eu__lab__report\"><tr><th>Test</th><th>31-May-2016</th><th>Reference&#xA0;Range</th><th>Unit</th></tr><tr><td>Potassium [Moles/volume] in Blood</td><td>3.9</td><td>3.5 - 5.1</td><td></td><td>mmol/L</td></tr></table></div>"
        },
        "status": "final",
        "subject": {
          "reference": "urn:uuid:e39cf4ae-77c4-402b-aaba-1c26774429b3",
          "display": "Iva Kratochvílová"
        },
        "effectiveDateTime": "2016-05-31T00:28:20Z",
        "specimen": {
          "reference": "urn:uuid:8f388ba7-a14e-47a1-a416-7a8b683a465b"
        }
      }
    },
    {
      "fullUrl": "urn:uuid:325b3517-f88c-4a58-b76b-158e5b43a2dc",
      "resource": {
        "resourceType": "Observation",
        "id": "325b3517-f88c-4a58-b76b-158e5b43a2dc",
        "meta": {
          "profile": [
            "http://hl7.eu/fhir/laboratory/StructureDefinition/Observation-resultslab-eu-lab"
          ]
        },
        "performer": [
          {
            "display": "The Central European Lab"
          }
        ],
        "category": [
          {
            "coding": [
              {
                "system": "http://terminology.hl7.org/CodeSystem/observation-category",
                "code": "laboratory"
              }
            ]
          }
        ],
        "code": {
          "coding": [
            {
              "code": "2069-3",
              "system": "http://loinc.org",
              "display": "Chloride [Moles/volume] in Blood"
            }
          ],
          "text": "Chloride [Moles/volume] in Blood"
        },
        "valueQuantity": {
          "system": "http://unitsofmeasure.org",
          "value": 105,
          "unit": "mmol/L",
          "code": "mmol/L"
        },
        "referenceRange": [
          {
            "low": {
              "value": 98,
              "code": "mmol/L",
              "system": "http://unitsofmeasure.org"
            }
          },
          {
            "high": {
              "value": 110,
              "code": "mmol/L",
              "system": "http://unitsofmeasure.org"
            }
          }
        ],
        "text": {
          "status": "generated",
          "div": "<div xmlns=\"http://www.w3.org/1999/xhtml\"><table class=\"hl7__eu__lab__report\"><tr><th>Test</th><th>31-May-2016</th><th>Reference&#xA0;Range</th><th>Unit</th></tr><tr><td>Chloride [Moles/volume] in Blood</td><td>105.0</td><td>98 - 110</td><td></td><td>mmol/L</td></tr></table></div>"
        },
        "status": "final",
        "subject": {
          "reference": "urn:uuid:e39cf4ae-77c4-402b-aaba-1c26774429b3",
          "display": "Iva Kratochvílová"
        },
        "effectiveDateTime": "2016-05-31T00:28:20Z",
        "specimen": {
          "reference": "urn:uuid:8f388ba7-a14e-47a1-a416-7a8b683a465b"
        }
      }
    },
    {
      "fullUrl": "urn:uuid:1dd4a22b-3f25-4375-847a-22031fe7bf24",
      "resource": {
        "resourceType": "Observation",
        "id": "1dd4a22b-3f25-4375-847a-22031fe7bf24",
        "meta": {
          "profile": [
            "http://hl7.eu/fhir/laboratory/StructureDefinition/Observation-resultslab-eu-lab"
          ]
        },
        "performer": [
          {
            "display": "The Central European Lab"
          }
        ],
        "category": [
          {
            "coding": [
              {
                "system": "http://terminology.hl7.org/CodeSystem/observation-category",
                "code": "laboratory"
              }
            ]
          }
        ],
        "code": {
          "coding": [
            {
              "code": "20565-8",
              "system": "http://loinc.org",
              "display": "Carbon dioxide, total [Moles/volume] in Blood"
            }
          ],
          "text": "Carbon dioxide, total [Moles/volume] in Blood"
        },
        "valueQuantity": {
          "system": "http://unitsofmeasure.org",
          "value": 21.9,
          "unit": "mmol/L",
          "code": "mmol/L"
        },
        "referenceRange": [
          {
            "low": {
              "value": 22,
              "code": "mmol/L",
              "system": "http://unitsofmeasure.org"
            }
          },
          {
            "high": {
              "value": 29,
              "code": "mmol/L",
              "system": "http://unitsofmeasure.org"
            }
          }
        ],
        "interpretation": [
          {
            "coding": [
              {
                "code": "L",
                "system": "http://terminology.hl7.org/CodeSystem/v3-ObservationInterpretation",
                "display": "Low"
              }
            ]
          }
        ],
        "text": {
          "status": "generated",
          "div": "<div xmlns=\"http://www.w3.org/1999/xhtml\"><table class=\"hl7__eu__lab__report\"><tr><th>Test</th><th>31-May-2016</th><th>Reference&#xA0;Range</th><th>Unit</th></tr><tr><td>Carbon dioxide, total [Moles/volume] in Blood</td><td>21.9</td><td>22 - 29</td><td>L</td><td>mmol/L</td></tr></table></div>"
        },
        "status": "final",
        "subject": {
          "reference": "urn:uuid:e39cf4ae-77c4-402b-aaba-1c26774429b3",
          "display": "Iva Kratochvílová"
        },
        "effectiveDateTime": "2016-05-31T00:28:20Z",
        "specimen": {
          "reference": "urn:uuid:8f388ba7-a14e-47a1-a416-7a8b683a465b"
        }
      }
    },
    {
      "fullUrl": "urn:uuid:1fb0f6c5-eff2-427b-95a6-9f7314b4227e",
      "resource": {
        "resourceType": "Observation",
        "id": "1fb0f6c5-eff2-427b-95a6-9f7314b4227e",
        "meta": {
          "profile": [
            "http://hl7.eu/fhir/laboratory/StructureDefinition/Observation-resultslab-eu-lab"
          ]
        },
        "performer": [
          {
            "display": "The Central European Lab"
          }
        ],
        "category": [
          {
            "coding": [
              {
                "system": "http://terminology.hl7.org/CodeSystem/observation-category",
                "code": "laboratory"
              }
            ]
          }
        ],
        "code": {
          "coding": [
            {
              "code": "6690-2",
              "system": "http://loinc.org",
              "display": "Leukocytes [#/volume] in Blood by Automated count"
            }
          ],
          "text": "Leukocytes [#/volume] in Blood by Automated count"
        },
        "valueQuantity": {
          "system": "http://unitsofmeasure.org",
          "value": 8,
          "unit": "10*3/uL",
          "code": "10*3/uL"
        },
        "referenceRange": [
          {
            "low": {
              "value": 3.4,
              "code": "10*3/uL",
              "system": "http://unitsofmeasure.org"
            }
          },
          {
            "high": {
              "value": 10.6,
              "code": "10*3/uL",
              "system": "http://unitsofmeasure.org"
            }
          }
        ],
        "text": {
          "status": "generated",
          "div": "<div xmlns=\"http://www.w3.org/1999/xhtml\"><table class=\"hl7__eu__lab__report\"><tr><th>Test</th><th>31-May-2016</th><th>Reference&#xA0;Range</th><th>Unit</th></tr><tr><td>Leukocytes [#/volume] in Blood by Automated count</td><td>8.0</td><td>3.4 - 10.6</td><td></td><td>10*3/uL</td></tr></table></div>"
        },
        "status": "final",
        "subject": {
          "reference": "urn:uuid:e39cf4ae-77c4-402b-aaba-1c26774429b3",
          "display": "Iva Kratochvílová"
        },
        "effectiveDateTime": "2016-05-31T00:28:20Z",
        "specimen": {
          "reference": "urn:uuid:8f388ba7-a14e-47a1-a416-7a8b683a465b"
        }
      }
    },
    {
      "fullUrl": "urn:uuid:18373c9a-104a-4e02-b628-6f482265763b",
      "resource": {
        "resourceType": "Observation",
        "id": "18373c9a-104a-4e02-b628-6f482265763b",
        "meta": {
          "profile": [
            "http://hl7.eu/fhir/laboratory/StructureDefinition/Observation-resultslab-eu-lab"
          ]
        },
        "performer": [
          {
            "display": "The Central European Lab"
          }
        ],
        "category": [
          {
            "coding": [
              {
                "system": "http://terminology.hl7.org/CodeSystem/observation-category",
                "code": "laboratory"
              }
            ]
          }
        ],
        "code": {
          "coding": [
            {
              "code": "789-8",
              "system": "http://loinc.org",
              "display": "Erythrocytes [#/volume] in Blood by Automated count"
            }
          ],
          "text": "Erythrocytes [#/volume] in Blood by Automated count"
        },
        "valueQuantity": {
          "system": "http://unitsofmeasure.org",
          "value": 5.4,
          "unit": "10*6/uL",
          "code": "10*6/uL"
        },
        "referenceRange": [
          {
            "low": {
              "value": 4.2,
              "code": "10*6/uL",
              "system": "http://unitsofmeasure.org"
            }
          },
          {
            "high": {
              "value": 5.2,
              "code": "10*6/uL",
              "system": "http://unitsofmeasure.org"
            }
          }
        ],
        "interpretation": [
          {
            "coding": [
              {
                "code": "H",
                "system": "http://terminology.hl7.org/CodeSystem/v3-ObservationInterpretation",
                "display": "High"
              }
            ]
          }
        ],
        "text": {
          "status": "generated",
          "div": "<div xmlns=\"http://www.w3.org/1999/xhtml\"><table class=\"hl7__eu__lab__report\"><tr><th>Test</th><th>31-May-2016</th><th>Reference&#xA0;Range</th><th>Unit</th></tr><tr><td>Erythrocytes [#/volume] in Blood by Automated count</td><td>5.4</td><td>4.2 - 5.2</td><td>H</td><td>10*6/uL</td></tr></table></div>"
        },
        "status": "final",
        "subject": {
          "reference": "urn:uuid:e39cf4ae-77c4-402b-aaba-1c26774429b3",
          "display": "Iva Kratochvílová"
        },
        "effectiveDateTime": "2016-05-31T00:28:20Z",
        "specimen": {
          "reference": "urn:uuid:8f388ba7-a14e-47a1-a416-7a8b683a465b"
        }
      }
    },
    {
      "fullUrl": "urn:uuid:f0270653-355e-4ea2-9201-3b615a4b5473",
      "resource": {
        "resourceType": "Observation",
        "id": "f0270653-355e-4ea2-9201-3b615a4b5473",
        "meta": {
          "profile": [
            "http://hl7.eu/fhir/laboratory/StructureDefinition/Observation-resultslab-eu-lab"
          ]
        },
        "performer": [
          {
            "display": "The Central European Lab"
          }
        ],
        "category": [
          {
            "coding": [
              {
                "system": "http://terminology.hl7.org/CodeSystem/observation-category",
                "code": "laboratory"
              }
            ]
          }
        ],
        "code": {
          "coding": [
            {
              "code": "718-7",
              "system": "http://loinc.org",
              "display": "Hemoglobin [Mass/volume] in Blood"
            }
          ],
          "text": "Hemoglobin [Mass/volume] in Blood"
        },
        "valueQuantity": {
          "system": "http://unitsofmeasure.org",
          "value": 16,
          "unit": "g/dL",
          "code": "g/dL"
        },
        "referenceRange": [
          {
            "low": {
              "value": 12,
              "code": "g/dL",
              "system": "http://unitsofmeasure.org"
            }
          },
          {
            "high": {
              "value": 16,
              "code": "g/dL",
              "system": "http://unitsofmeasure.org"
            }
          }
        ],
        "text": {
          "status": "generated",
          "div": "<div xmlns=\"http://www.w3.org/1999/xhtml\"><table class=\"hl7__eu__lab__report\"><tr><th>Test</th><th>31-May-2016</th><th>Reference&#xA0;Range</th><th>Unit</th></tr><tr><td>Hemoglobin [Mass/volume] in Blood</td><td>16.0</td><td>12 - 16</td><td></td><td>g/dL</td></tr></table></div>"
        },
        "status": "final",
        "subject": {
          "reference": "urn:uuid:e39cf4ae-77c4-402b-aaba-1c26774429b3",
          "display": "Iva Kratochvílová"
        },
        "effectiveDateTime": "2016-05-31T00:28:20Z",
        "specimen": {
          "reference": "urn:uuid:8f388ba7-a14e-47a1-a416-7a8b683a465b"
        }
      }
    },
    {
      "fullUrl": "urn:uuid:90272353-27c9-489f-a844-ce31711e6f71",
      "resource": {
        "resourceType": "Observation",
        "id": "90272353-27c9-489f-a844-ce31711e6f71",
        "meta": {
          "profile": [
            "http://hl7.eu/fhir/laboratory/StructureDefinition/Observation-resultslab-eu-lab"
          ]
        },
        "performer": [
          {
            "display": "The Central European Lab"
          }
        ],
        "category": [
          {
            "coding": [
              {
                "system": "http://terminology.hl7.org/CodeSystem/observation-category",
                "code": "laboratory"
              }
            ]
          }
        ],
        "code": {
          "coding": [
            {
              "code": "4544-3",
              "system": "http://loinc.org",
              "display": "Hematocrit [Volume Fraction] of Blood by Automated count"
            }
          ],
          "text": "Hematocrit [Volume Fraction] of Blood by Automated count"
        },
        "valueQuantity": {
          "system": "http://unitsofmeasure.org",
          "value": 44.4,
          "unit": "%",
          "code": "%"
        },
        "referenceRange": [
          {
            "low": {
              "value": 36,
              "code": "%",
              "system": "http://unitsofmeasure.org"
            }
          },
          {
            "high": {
              "value": 48,
              "code": "%",
              "system": "http://unitsofmeasure.org"
            }
          }
        ],
        "text": {
          "status": "generated",
          "div": "<div xmlns=\"http://www.w3.org/1999/xhtml\"><table class=\"hl7__eu__lab__report\"><tr><th>Test</th><th>31-May-2016</th><th>Reference&#xA0;Range</th><th>Unit</th></tr><tr><td>Hematocrit [Volume Fraction] of Blood by Automated count</td><td>44.4</td><td>36 - 48</td><td></td><td>%</td></tr></table></div>"
        },
        "status": "final",
        "subject": {
          "reference": "urn:uuid:e39cf4ae-77c4-402b-aaba-1c26774429b3",
          "display": "Iva Kratochvílová"
        },
        "effectiveDateTime": "2016-05-31T00:28:20Z",
        "specimen": {
          "reference": "urn:uuid:8f388ba7-a14e-47a1-a416-7a8b683a465b"
        }
      }
    },
    {
      "fullUrl": "urn:uuid:7b57bba3-5c13-4faf-86d5-26aeb25ee822",
      "resource": {
        "resourceType": "Observation",
        "id": "7b57bba3-5c13-4faf-86d5-26aeb25ee822",
        "meta": {
          "profile": [
            "http://hl7.eu/fhir/laboratory/StructureDefinition/Observation-resultslab-eu-lab"
          ]
        },
        "performer": [
          {
            "display": "The Central European Lab"
          }
        ],
        "category": [
          {
            "coding": [
              {
                "system": "http://terminology.hl7.org/CodeSystem/observation-category",
                "code": "laboratory"
              }
            ]
          }
        ],
        "code": {
          "coding": [
            {
              "code": "787-2",
              "system": "http://loinc.org",
              "display": "MCV [Entitic volume] by Automated count"
            }
          ],
          "text": "MCV [Entitic volume] by Automated count"
        },
        "valueQuantity": {
          "system": "http://unitsofmeasure.org",
          "value": 94.6,
          "unit": "fL",
          "code": "fL"
        },
        "referenceRange": [
          {
            "low": {
              "value": 82,
              "code": "fL",
              "system": "http://unitsofmeasure.org"
            }
          },
          {
            "high": {
              "value": 98,
              "code": "fL",
              "system": "http://unitsofmeasure.org"
            }
          }
        ],
        "text": {
          "status": "generated",
          "div": "<div xmlns=\"http://www.w3.org/1999/xhtml\"><table class=\"hl7__eu__lab__report\"><tr><th>Test</th><th>31-May-2016</th><th>Reference&#xA0;Range</th><th>Unit</th></tr><tr><td>MCV [Entitic volume] by Automated count</td><td>94.6</td><td>82 - 98</td><td></td><td>fL</td></tr></table></div>"
        },
        "status": "final",
        "subject": {
          "reference": "urn:uuid:e39cf4ae-77c4-402b-aaba-1c26774429b3",
          "display": "Iva Kratochvílová"
        },
        "effectiveDateTime": "2016-05-31T00:28:20Z",
        "specimen": {
          "reference": "urn:uuid:8f388ba7-a14e-47a1-a416-7a8b683a465b"
        }
      }
    },
    {
      "fullUrl": "urn:uuid:d9f8ce72-da20-4d12-a926-a3a707bb10d0",
      "resource": {
        "resourceType": "Observation",
        "id": "d9f8ce72-da20-4d12-a926-a3a707bb10d0",
        "meta": {
          "profile": [
            "http://hl7.eu/fhir/laboratory/StructureDefinition/Observation-resultslab-eu-lab"
          ]
        },
        "performer": [
          {
            "display": "The Central European Lab"
          }
        ],
        "category": [
          {
            "coding": [
              {
                "system": "http://terminology.hl7.org/CodeSystem/observation-category",
                "code": "laboratory"
              }
            ]
          }
        ],
        "code": {
          "coding": [
            {
              "code": "785-6",
              "system": "http://loinc.org",
              "display": "MCH [Entitic mass] by Automated count"
            }
          ],
          "text": "MCH [Entitic mass] by Automated count"
        },
        "valueQuantity": {
          "system": "http://unitsofmeasure.org",
          "value": 29.2,
          "unit": "pg",
          "code": "pg"
        },
        "referenceRange": [
          {
            "low": {
              "value": 27,
              "code": "pg",
              "system": "http://unitsofmeasure.org"
            }
          },
          {
            "high": {
              "value": 33,
              "code": "pg",
              "system": "http://unitsofmeasure.org"
            }
          }
        ],
        "text": {
          "status": "generated",
          "div": "<div xmlns=\"http://www.w3.org/1999/xhtml\"><table class=\"hl7__eu__lab__report\"><tr><th>Test</th><th>31-May-2016</th><th>Reference&#xA0;Range</th><th>Unit</th></tr><tr><td>MCH [Entitic mass] by Automated count</td><td>29.2</td><td>27 - 33</td><td></td><td>pg</td></tr></table></div>"
        },
        "status": "final",
        "subject": {
          "reference": "urn:uuid:e39cf4ae-77c4-402b-aaba-1c26774429b3",
          "display": "Iva Kratochvílová"
        },
        "effectiveDateTime": "2016-05-31T00:28:20Z",
        "specimen": {
          "reference": "urn:uuid:8f388ba7-a14e-47a1-a416-7a8b683a465b"
        }
      }
    },
    {
      "fullUrl": "urn:uuid:8673e7a3-6983-4b91-a021-5f4c8fb8b646",
      "resource": {
        "resourceType": "Observation",
        "id": "8673e7a3-6983-4b91-a021-5f4c8fb8b646",
        "meta": {
          "profile": [
            "http://hl7.eu/fhir/laboratory/StructureDefinition/Observation-resultslab-eu-lab"
          ]
        },
        "performer": [
          {
            "display": "The Central European Lab"
          }
        ],
        "category": [
          {
            "coding": [
              {
                "system": "http://terminology.hl7.org/CodeSystem/observation-category",
                "code": "laboratory"
              }
            ]
          }
        ],
        "code": {
          "coding": [
            {
              "code": "786-4",
              "system": "http://loinc.org",
              "display": "MCHC [Mass/volume] by Automated count"
            }
          ],
          "text": "MCHC [Mass/volume] by Automated count"
        },
        "valueQuantity": {
          "system": "http://unitsofmeasure.org",
          "value": 35.9,
          "unit": "g/dL",
          "code": "g/dL"
        },
        "referenceRange": [
          {
            "low": {
              "value": 32,
              "code": "g/dL",
              "system": "http://unitsofmeasure.org"
            }
          },
          {
            "high": {
              "value": 37,
              "code": "g/dL",
              "system": "http://unitsofmeasure.org"
            }
          }
        ],
        "text": {
          "status": "generated",
          "div": "<div xmlns=\"http://www.w3.org/1999/xhtml\"><table class=\"hl7__eu__lab__report\"><tr><th>Test</th><th>31-May-2016</th><th>Reference&#xA0;Range</th><th>Unit</th></tr><tr><td>MCHC [Mass/volume] by Automated count</td><td>35.9</td><td>32 - 37</td><td></td><td>g/dL</td></tr></table></div>"
        },
        "status": "final",
        "subject": {
          "reference": "urn:uuid:e39cf4ae-77c4-402b-aaba-1c26774429b3",
          "display": "Iva Kratochvílová"
        },
        "effectiveDateTime": "2016-05-31T00:28:20Z",
        "specimen": {
          "reference": "urn:uuid:8f388ba7-a14e-47a1-a416-7a8b683a465b"
        }
      }
    },
    {
      "fullUrl": "urn:uuid:e179f748-60ae-4cba-8cb2-add2eb1f955e",
      "resource": {
        "resourceType": "Observation",
        "id": "e179f748-60ae-4cba-8cb2-add2eb1f955e",
        "meta": {
          "profile": [
            "http://hl7.eu/fhir/laboratory/StructureDefinition/Observation-resultslab-eu-lab"
          ]
        },
        "performer": [
          {
            "display": "The Central European Lab"
          }
        ],
        "category": [
          {
            "coding": [
              {
                "system": "http://terminology.hl7.org/CodeSystem/observation-category",
                "code": "laboratory"
              }
            ]
          }
        ],
        "code": {
          "coding": [
            {
              "code": "21000-5",
              "system": "http://loinc.org",
              "display": "Erythrocyte distribution width [Entitic volume] by Automated count"
            }
          ],
          "text": "Erythrocyte distribution width [Entitic volume] by Automated count"
        },
        "valueQuantity": {
          "system": "http://unitsofmeasure.org",
          "value": 45,
          "unit": "fL",
          "code": "fL"
        },
        "referenceRange": [
          {
            "low": {
              "value": 36,
              "code": "fL",
              "system": "http://unitsofmeasure.org"
            }
          },
          {
            "high": {
              "value": 46,
              "code": "fL",
              "system": "http://unitsofmeasure.org"
            }
          }
        ],
        "text": {
          "status": "generated",
          "div": "<div xmlns=\"http://www.w3.org/1999/xhtml\"><table class=\"hl7__eu__lab__report\"><tr><th>Test</th><th>31-May-2016</th><th>Reference&#xA0;Range</th><th>Unit</th></tr><tr><td>Erythrocyte distribution width [Entitic volume] by Automated count</td><td>45.0</td><td>36 - 46</td><td></td><td>fL</td></tr></table></div>"
        },
        "status": "final",
        "subject": {
          "reference": "urn:uuid:e39cf4ae-77c4-402b-aaba-1c26774429b3",
          "display": "Iva Kratochvílová"
        },
        "effectiveDateTime": "2016-05-31T00:28:20Z",
        "specimen": {
          "reference": "urn:uuid:8f388ba7-a14e-47a1-a416-7a8b683a465b"
        }
      }
    },
    {
      "fullUrl": "urn:uuid:b4b9fd73-2f8d-46c7-a969-0459c9aaf7c6",
      "resource": {
        "resourceType": "Observation",
        "id": "b4b9fd73-2f8d-46c7-a969-0459c9aaf7c6",
        "meta": {
          "profile": [
            "http://hl7.eu/fhir/laboratory/StructureDefinition/Observation-resultslab-eu-lab"
          ]
        },
        "performer": [
          {
            "display": "The Central European Lab"
          }
        ],
        "category": [
          {
            "coding": [
              {
                "system": "http://terminology.hl7.org/CodeSystem/observation-category",
                "code": "laboratory"
              }
            ]
          }
        ],
        "code": {
          "coding": [
            {
              "code": "777-3",
              "system": "http://loinc.org",
              "display": "Platelets [#/volume] in Blood by Automated count"
            }
          ],
          "text": "Platelets [#/volume] in Blood by Automated count"
        },
        "valueQuantity": {
          "system": "http://unitsofmeasure.org",
          "value": 427.7,
          "unit": "10*3/uL",
          "code": "10*3/uL"
        },
        "referenceRange": [
          {
            "low": {
              "value": 150,
              "code": "10*3/uL",
              "system": "http://unitsofmeasure.org"
            }
          },
          {
            "high": {
              "value": 450,
              "code": "10*3/uL",
              "system": "http://unitsofmeasure.org"
            }
          }
        ],
        "text": {
          "status": "generated",
          "div": "<div xmlns=\"http://www.w3.org/1999/xhtml\"><table class=\"hl7__eu__lab__report\"><tr><th>Test</th><th>31-May-2016</th><th>Reference&#xA0;Range</th><th>Unit</th></tr><tr><td>Platelets [#/volume] in Blood by Automated count</td><td>427.7</td><td>150 - 450</td><td></td><td>10*3/uL</td></tr></table></div>"
        },
        "status": "final",
        "subject": {
          "reference": "urn:uuid:e39cf4ae-77c4-402b-aaba-1c26774429b3",
          "display": "Iva Kratochvílová"
        },
        "effectiveDateTime": "2016-05-31T00:28:20Z",
        "specimen": {
          "reference": "urn:uuid:8f388ba7-a14e-47a1-a416-7a8b683a465b"
        }
      }
    },
    {
      "fullUrl": "urn:uuid:b4573e6e-1475-4208-97b0-9315883f564e",
      "resource": {
        "resourceType": "Observation",
        "id": "b4573e6e-1475-4208-97b0-9315883f564e",
        "meta": {
          "profile": [
            "http://hl7.eu/fhir/laboratory/StructureDefinition/Observation-resultslab-eu-lab"
          ]
        },
        "performer": [
          {
            "display": "The Central European Lab"
          }
        ],
        "category": [
          {
            "coding": [
              {
                "system": "http://terminology.hl7.org/CodeSystem/observation-category",
                "code": "laboratory"
              }
            ]
          }
        ],
        "code": {
          "coding": [
            {
              "code": "32207-3",
              "system": "http://loinc.org",
              "display": "Platelet distribution width [Entitic volume] in Blood by Automated count"
            }
          ],
          "text": "Platelet distribution width [Entitic volume] in Blood by Automated count"
        },
        "valueQuantity": {
          "system": "http://unitsofmeasure.org",
          "value": 250.4,
          "unit": "fL",
          "code": "fL"
        },
        "referenceRange": [
          {
            "low": {
              "value": 11.6,
              "code": "fL",
              "system": "http://unitsofmeasure.org"
            }
          },
          {
            "high": {
              "value": 17.4,
              "code": "fL",
              "system": "http://unitsofmeasure.org"
            }
          }
        ],
        "interpretation": [
          {
            "coding": [
              {
                "code": "H",
                "system": "http://terminology.hl7.org/CodeSystem/v3-ObservationInterpretation",
                "display": "High"
              }
            ]
          }
        ],
        "text": {
          "status": "generated",
          "div": "<div xmlns=\"http://www.w3.org/1999/xhtml\"><table class=\"hl7__eu__lab__report\"><tr><th>Test</th><th>31-May-2016</th><th>Reference&#xA0;Range</th><th>Unit</th></tr><tr><td>Platelet distribution width [Entitic volume] in Blood by Automated count</td><td>250.4</td><td>11.6 - 17.4</td><td>H</td><td>fL</td></tr></table></div>"
        },
        "status": "final",
        "subject": {
          "reference": "urn:uuid:e39cf4ae-77c4-402b-aaba-1c26774429b3",
          "display": "Iva Kratochvílová"
        },
        "effectiveDateTime": "2016-05-31T00:28:20Z",
        "specimen": {
          "reference": "urn:uuid:8f388ba7-a14e-47a1-a416-7a8b683a465b"
        }
      }
    },
    {
      "fullUrl": "urn:uuid:7c081e66-b90e-4fa7-80ec-03daa3bd2b4b",
      "resource": {
        "resourceType": "Observation",
        "id": "7c081e66-b90e-4fa7-80ec-03daa3bd2b4b",
        "meta": {
          "profile": [
            "http://hl7.eu/fhir/laboratory/StructureDefinition/Observation-resultslab-eu-lab"
          ]
        },
        "performer": [
          {
            "display": "The Central European Lab"
          }
        ],
        "category": [
          {
            "coding": [
              {
                "system": "http://terminology.hl7.org/CodeSystem/observation-category",
                "code": "laboratory"
              }
            ]
          }
        ],
        "code": {
          "coding": [
            {
              "code": "32623-1",
              "system": "http://loinc.org",
              "display": "Platelet mean volume [Entitic volume] in Blood by Automated count"
            }
          ],
          "text": "Platelet mean volume [Entitic volume] in Blood by Automated count"
        },
        "valueQuantity": {
          "system": "http://unitsofmeasure.org",
          "value": 12,
          "unit": "fL",
          "code": "fL"
        },
        "referenceRange": [
          {
            "low": {
              "value": 7.4,
              "code": "fL",
              "system": "http://unitsofmeasure.org"
            }
          },
          {
            "high": {
              "value": 12,
              "code": "fL",
              "system": "http://unitsofmeasure.org"
            }
          }
        ],
        "text": {
          "status": "generated",
          "div": "<div xmlns=\"http://www.w3.org/1999/xhtml\"><table class=\"hl7__eu__lab__report\"><tr><th>Test</th><th>31-May-2016</th><th>Reference&#xA0;Range</th><th>Unit</th></tr><tr><td>Platelet mean volume [Entitic volume] in Blood by Automated count</td><td>12.0</td><td>7.4 - 12</td><td></td><td>fL</td></tr></table></div>"
        },
        "status": "final",
        "subject": {
          "reference": "urn:uuid:e39cf4ae-77c4-402b-aaba-1c26774429b3",
          "display": "Iva Kratochvílová"
        },
        "effectiveDateTime": "2016-05-31T00:28:20Z",
        "specimen": {
          "reference": "urn:uuid:8f388ba7-a14e-47a1-a416-7a8b683a465b"
        }
      }
    },
    {
      "fullUrl": "urn:uuid:773f73e0-a0fd-4701-a3c4-778d0cf5070c",
      "resource": {
        "resourceType": "Observation",
        "id": "773f73e0-a0fd-4701-a3c4-778d0cf5070c",
        "meta": {
          "profile": [
            "http://hl7.eu/fhir/laboratory/StructureDefinition/Observation-resultslab-eu-lab"
          ]
        },
        "performer": [
          {
            "display": "The Central European Lab"
          }
        ],
        "category": [
          {
            "coding": [
              {
                "system": "http://terminology.hl7.org/CodeSystem/observation-category",
                "code": "laboratory"
              }
            ]
          }
        ],
        "code": {
          "coding": [
            {
              "code": "25428-4",
              "system": "http://loinc.org",
              "display": "Glucose [Presence] in Urine by Test strip"
            }
          ],
          "text": "Glucose [Presence] in Urine by Test strip"
        },
        "valueQuantity": {
          "system": "http://unitsofmeasure.org",
          "value": 0,
          "unit": "{presence}",
          "code": "{presence}"
        },
        "referenceRange": [
          {
            "low": {
              "value": 0,
              "code": "g/dL",
              "system": "http://unitsofmeasure.org"
            }
          },
          {
            "high": {
              "value": 0.8,
              "code": "g/dL",
              "system": "http://unitsofmeasure.org"
            }
          }
        ],
        "text": {
          "status": "generated",
          "div": "<div xmlns=\"http://www.w3.org/1999/xhtml\"><table class=\"hl7__eu__lab__report\"><tr><th>Test</th><th>31-May-2016</th><th>Reference&#xA0;Range</th><th>Unit</th></tr><tr><td>Glucose [Presence] in Urine by Test strip</td><td>0.0</td><td>0 - 0.8</td><td></td><td>{presence}</td></tr></table></div>"
        },
        "status": "final",
        "subject": {
          "reference": "urn:uuid:e39cf4ae-77c4-402b-aaba-1c26774429b3",
          "display": "Iva Kratochvílová"
        },
        "effectiveDateTime": "2016-05-31T00:28:20Z",
        "specimen": {
          "reference": "urn:uuid:20a260ed-ccfe-4add-b838-6fcbf3c962cb"
        }
      }
    },
    {
      "fullUrl": "urn:uuid:c522fbb6-6ff4-4081-93ca-f3a3f8240c7f",
      "resource": {
        "resourceType": "Observation",
        "id": "c522fbb6-6ff4-4081-93ca-f3a3f8240c7f",
        "meta": {
          "profile": [
            "http://hl7.eu/fhir/laboratory/StructureDefinition/Observation-resultslab-eu-lab"
          ]
        },
        "performer": [
          {
            "display": "The Central European Lab"
          }
        ],
        "category": [
          {
            "coding": [
              {
                "system": "http://terminology.hl7.org/CodeSystem/observation-category",
                "code": "laboratory"
              }
            ]
          }
        ],
        "code": {
          "coding": [
            {
              "code": "5770-3",
              "system": "http://loinc.org",
              "display": "Bilirubin.total [Presence] in Urine by Test strip"
            }
          ],
          "text": "Bilirubin.total [Presence] in Urine by Test strip"
        },
        "valueQuantity": {
          "system": "http://unitsofmeasure.org",
          "value": 0,
          "unit": "{presence}",
          "code": "{presence}"
        },
        "referenceRange": [
          {
            "low": {
              "value": 0,
              "code": "mg/dL",
              "system": "http://unitsofmeasure.org"
            }
          },
          {
            "high": {
              "value": 0,
              "code": "mg/dL",
              "system": "http://unitsofmeasure.org"
            }
          }
        ],
        "text": {
          "status": "generated",
          "div": "<div xmlns=\"http://www.w3.org/1999/xhtml\"><table class=\"hl7__eu__lab__report\"><tr><th>Test</th><th>31-May-2016</th><th>Reference&#xA0;Range</th><th>Unit</th></tr><tr><td>Bilirubin.total [Presence] in Urine by Test strip</td><td>0.0</td><td>0 - 0</td><td></td><td>{presence}</td></tr></table></div>"
        },
        "status": "final",
        "subject": {
          "reference": "urn:uuid:e39cf4ae-77c4-402b-aaba-1c26774429b3",
          "display": "Iva Kratochvílová"
        },
        "effectiveDateTime": "2016-05-31T00:28:20Z",
        "specimen": {
          "reference": "urn:uuid:20a260ed-ccfe-4add-b838-6fcbf3c962cb"
        }
      }
    },
    {
      "fullUrl": "urn:uuid:4e117995-6107-4fef-af77-e543e2940ce3",
      "resource": {
        "resourceType": "Observation",
        "id": "4e117995-6107-4fef-af77-e543e2940ce3",
        "meta": {
          "profile": [
            "http://hl7.eu/fhir/laboratory/StructureDefinition/Observation-resultslab-eu-lab"
          ]
        },
        "performer": [
          {
            "display": "The Central European Lab"
          }
        ],
        "category": [
          {
            "coding": [
              {
                "system": "http://terminology.hl7.org/CodeSystem/observation-category",
                "code": "laboratory"
              }
            ]
          }
        ],
        "code": {
          "coding": [
            {
              "code": "2514-8",
              "system": "http://loinc.org",
              "display": "Ketones [Presence] in Urine by Test strip"
            }
          ],
          "text": "Ketones [Presence] in Urine by Test strip"
        },
        "valueQuantity": {
          "system": "http://unitsofmeasure.org",
          "value": 0,
          "unit": "{presence}",
          "code": "{presence}"
        },
        "referenceRange": [
          {
            "low": {
              "value": 0,
              "code": "Presence",
              "system": "http://unitsofmeasure.org"
            }
          },
          {
            "high": {
              "value": 0,
              "code": "Presence",
              "system": "http://unitsofmeasure.org"
            }
          }
        ],
        "text": {
          "status": "generated",
          "div": "<div xmlns=\"http://www.w3.org/1999/xhtml\"><table class=\"hl7__eu__lab__report\"><tr><th>Test</th><th>31-May-2016</th><th>Reference&#xA0;Range</th><th>Unit</th></tr><tr><td>Ketones [Presence] in Urine by Test strip</td><td>0.0</td><td>0 - 0</td><td></td><td>{presence}</td></tr></table></div>"
        },
        "status": "final",
        "subject": {
          "reference": "urn:uuid:e39cf4ae-77c4-402b-aaba-1c26774429b3",
          "display": "Iva Kratochvílová"
        },
        "effectiveDateTime": "2016-05-31T00:28:20Z",
        "specimen": {
          "reference": "urn:uuid:20a260ed-ccfe-4add-b838-6fcbf3c962cb"
        }
      }
    },
    {
      "fullUrl": "urn:uuid:d32fa148-ecc2-4218-8813-3432fa09372b",
      "resource": {
        "resourceType": "Observation",
        "id": "d32fa148-ecc2-4218-8813-3432fa09372b",
        "meta": {
          "profile": [
            "http://hl7.eu/fhir/laboratory/StructureDefinition/Observation-resultslab-eu-lab"
          ]
        },
        "performer": [
          {
            "display": "The Central European Lab"
          }
        ],
        "category": [
          {
            "coding": [
              {
                "system": "http://terminology.hl7.org/CodeSystem/observation-category",
                "code": "laboratory"
              }
            ]
          }
        ],
        "code": {
          "coding": [
            {
              "code": "5811-5",
              "system": "http://loinc.org",
              "display": "Specific gravity of Urine by Test strip"
            }
          ],
          "text": "Specific gravity of Urine by Test strip"
        },
        "valueQuantity": {
          "system": "http://unitsofmeasure.org",
          "value": 1,
          "unit": "{SG}",
          "code": "{SG}"
        },
        "referenceRange": [
          {
            "low": {
              "value": 1.005,
              "code": "SG",
              "system": "http://unitsofmeasure.org"
            }
          },
          {
            "high": {
              "value": 1.03,
              "code": "SG",
              "system": "http://unitsofmeasure.org"
            }
          }
        ],
        "interpretation": [
          {
            "coding": [
              {
                "code": "L",
                "system": "http://terminology.hl7.org/CodeSystem/v3-ObservationInterpretation",
                "display": "Low"
              }
            ]
          }
        ],
        "text": {
          "status": "generated",
          "div": "<div xmlns=\"http://www.w3.org/1999/xhtml\"><table class=\"hl7__eu__lab__report\"><tr><th>Test</th><th>31-May-2016</th><th>Reference&#xA0;Range</th><th>Unit</th></tr><tr><td>Specific gravity of Urine by Test strip</td><td>1.0</td><td>1.005 - 1.03</td><td>L</td><td>{SG}</td></tr></table></div>"
        },
        "status": "final",
        "subject": {
          "reference": "urn:uuid:e39cf4ae-77c4-402b-aaba-1c26774429b3",
          "display": "Iva Kratochvílová"
        },
        "effectiveDateTime": "2016-05-31T00:28:20Z",
        "specimen": {
          "reference": "urn:uuid:20a260ed-ccfe-4add-b838-6fcbf3c962cb"
        }
      }
    },
    {
      "fullUrl": "urn:uuid:498c2e18-5de6-4de6-b7bf-6d7d8ac65b90",
      "resource": {
        "resourceType": "Observation",
        "id": "498c2e18-5de6-4de6-b7bf-6d7d8ac65b90",
        "meta": {
          "profile": [
            "http://hl7.eu/fhir/laboratory/StructureDefinition/Observation-resultslab-eu-lab"
          ]
        },
        "performer": [
          {
            "display": "The Central European Lab"
          }
        ],
        "category": [
          {
            "coding": [
              {
                "system": "http://terminology.hl7.org/CodeSystem/observation-category",
                "code": "laboratory"
              }
            ]
          }
        ],
        "code": {
          "coding": [
            {
              "code": "5803-2",
              "system": "http://loinc.org",
              "display": "pH of Urine by Test strip"
            }
          ],
          "text": "pH of Urine by Test strip"
        },
        "valueQuantity": {
          "system": "http://unitsofmeasure.org",
          "value": 6.9,
          "unit": "[pH]",
          "code": "[pH]"
        },
        "referenceRange": [
          {
            "low": {
              "value": 4.5,
              "code": "pH",
              "system": "http://unitsofmeasure.org"
            }
          },
          {
            "high": {
              "value": 8,
              "code": "pH",
              "system": "http://unitsofmeasure.org"
            }
          }
        ],
        "text": {
          "status": "generated",
          "div": "<div xmlns=\"http://www.w3.org/1999/xhtml\"><table class=\"hl7__eu__lab__report\"><tr><th>Test</th><th>31-May-2016</th><th>Reference&#xA0;Range</th><th>Unit</th></tr><tr><td>pH of Urine by Test strip</td><td>6.9</td><td>4.5 - 8</td><td></td><td>[pH]</td></tr></table></div>"
        },
        "status": "final",
        "subject": {
          "reference": "urn:uuid:e39cf4ae-77c4-402b-aaba-1c26774429b3",
          "display": "Iva Kratochvílová"
        },
        "effectiveDateTime": "2016-05-31T00:28:20Z",
        "specimen": {
          "reference": "urn:uuid:20a260ed-ccfe-4add-b838-6fcbf3c962cb"
        }
      }
    },
    {
      "fullUrl": "urn:uuid:865d8066-8670-43d0-82fc-b63b36215ac3",
      "resource": {
        "resourceType": "Observation",
        "id": "865d8066-8670-43d0-82fc-b63b36215ac3",
        "meta": {
          "profile": [
            "http://hl7.eu/fhir/laboratory/StructureDefinition/Observation-resultslab-eu-lab"
          ]
        },
        "performer": [
          {
            "display": "The Central European Lab"
          }
        ],
        "category": [
          {
            "coding": [
              {
                "system": "http://terminology.hl7.org/CodeSystem/observation-category",
                "code": "laboratory"
              }
            ]
          }
        ],
        "code": {
          "coding": [
            {
              "code": "20454-5",
              "system": "http://loinc.org",
              "display": "Protein [Presence] in Urine by Test strip"
            }
          ],
          "text": "Protein [Presence] in Urine by Test strip"
        },
        "valueQuantity": {
          "system": "http://unitsofmeasure.org",
          "value": 0,
          "unit": "{presence}",
          "code": "{presence}"
        },
        "referenceRange": [
          {
            "low": {
              "value": 0,
              "code": "mg/dL",
              "system": "http://unitsofmeasure.org"
            }
          },
          {
            "high": {
              "value": 0,
              "code": "mg/dL",
              "system": "http://unitsofmeasure.org"
            }
          }
        ],
        "text": {
          "status": "generated",
          "div": "<div xmlns=\"http://www.w3.org/1999/xhtml\"><table class=\"hl7__eu__lab__report\"><tr><th>Test</th><th>31-May-2016</th><th>Reference&#xA0;Range</th><th>Unit</th></tr><tr><td>Protein [Presence] in Urine by Test strip</td><td>0.0</td><td>0 - 0</td><td></td><td>{presence}</td></tr></table></div>"
        },
        "status": "final",
        "subject": {
          "reference": "urn:uuid:e39cf4ae-77c4-402b-aaba-1c26774429b3",
          "display": "Iva Kratochvílová"
        },
        "effectiveDateTime": "2016-05-31T00:28:20Z",
        "specimen": {
          "reference": "urn:uuid:20a260ed-ccfe-4add-b838-6fcbf3c962cb"
        }
      }
    },
    {
      "fullUrl": "urn:uuid:b0391fa4-5eca-42ea-809e-0fc3614f9f77",
      "resource": {
        "resourceType": "Observation",
        "id": "b0391fa4-5eca-42ea-809e-0fc3614f9f77",
        "meta": {
          "profile": [
            "http://hl7.eu/fhir/laboratory/StructureDefinition/Observation-resultslab-eu-lab"
          ]
        },
        "performer": [
          {
            "display": "The Central European Lab"
          }
        ],
        "category": [
          {
            "coding": [
              {
                "system": "http://terminology.hl7.org/CodeSystem/observation-category",
                "code": "laboratory"
              }
            ]
          }
        ],
        "code": {
          "coding": [
            {
              "code": "5802-4",
              "system": "http://loinc.org",
              "display": "Nitrite [Presence] in Urine by Test strip"
            }
          ],
          "text": "Nitrite [Presence] in Urine by Test strip"
        },
        "valueQuantity": {
          "system": "http://unitsofmeasure.org",
          "value": 0,
          "unit": "{presence}",
          "code": "{presence}"
        },
        "referenceRange": [
          {
            "low": {
              "value": 0,
              "code": "Presence",
              "system": "http://unitsofmeasure.org"
            }
          },
          {
            "high": {
              "value": 0,
              "code": "Presence",
              "system": "http://unitsofmeasure.org"
            }
          }
        ],
        "text": {
          "status": "generated",
          "div": "<div xmlns=\"http://www.w3.org/1999/xhtml\"><table class=\"hl7__eu__lab__report\"><tr><th>Test</th><th>31-May-2016</th><th>Reference&#xA0;Range</th><th>Unit</th></tr><tr><td>Nitrite [Presence] in Urine by Test strip</td><td>0.0</td><td>0 - 0</td><td></td><td>{presence}</td></tr></table></div>"
        },
        "status": "final",
        "subject": {
          "reference": "urn:uuid:e39cf4ae-77c4-402b-aaba-1c26774429b3",
          "display": "Iva Kratochvílová"
        },
        "effectiveDateTime": "2016-05-31T00:28:20Z",
        "specimen": {
          "reference": "urn:uuid:20a260ed-ccfe-4add-b838-6fcbf3c962cb"
        }
      }
    },
    {
      "fullUrl": "urn:uuid:9658290c-9e84-46ea-9449-fe6d3096bbc1",
      "resource": {
        "resourceType": "Observation",
        "id": "9658290c-9e84-46ea-9449-fe6d3096bbc1",
        "meta": {
          "profile": [
            "http://hl7.eu/fhir/laboratory/StructureDefinition/Observation-resultslab-eu-lab"
          ]
        },
        "performer": [
          {
            "display": "The Central European Lab"
          }
        ],
        "category": [
          {
            "coding": [
              {
                "system": "http://terminology.hl7.org/CodeSystem/observation-category",
                "code": "laboratory"
              }
            ]
          }
        ],
        "code": {
          "coding": [
            {
              "code": "5794-3",
              "system": "http://loinc.org",
              "display": "Hemoglobin [Presence] in Urine by Test strip"
            }
          ],
          "text": "Hemoglobin [Presence] in Urine by Test strip"
        },
        "valueQuantity": {
          "system": "http://unitsofmeasure.org",
          "value": 0,
          "unit": "{presence}",
          "code": "{presence}"
        },
        "referenceRange": [
          {
            "low": {
              "value": 0,
              "code": "Presence",
              "system": "http://unitsofmeasure.org"
            }
          },
          {
            "high": {
              "value": 0,
              "code": "Presence",
              "system": "http://unitsofmeasure.org"
            }
          }
        ],
        "text": {
          "status": "generated",
          "div": "<div xmlns=\"http://www.w3.org/1999/xhtml\"><table class=\"hl7__eu__lab__report\"><tr><th>Test</th><th>31-May-2016</th><th>Reference&#xA0;Range</th><th>Unit</th></tr><tr><td>Hemoglobin [Presence] in Urine by Test strip</td><td>0.0</td><td>0 - 0</td><td></td><td>{presence}</td></tr></table></div>"
        },
        "status": "final",
        "subject": {
          "reference": "urn:uuid:e39cf4ae-77c4-402b-aaba-1c26774429b3",
          "display": "Iva Kratochvílová"
        },
        "effectiveDateTime": "2016-05-31T00:28:20Z",
        "specimen": {
          "reference": "urn:uuid:20a260ed-ccfe-4add-b838-6fcbf3c962cb"
        }
      }
    },
    {
      "fullUrl": "urn:uuid:911eb6b7-ef11-447f-ad5a-d042cad5dd9a",
      "resource": {
        "resourceType": "Observation",
        "id": "911eb6b7-ef11-447f-ad5a-d042cad5dd9a",
        "meta": {
          "profile": [
            "http://hl7.eu/fhir/laboratory/StructureDefinition/Observation-resultslab-eu-lab"
          ]
        },
        "performer": [
          {
            "display": "The Central European Lab"
          }
        ],
        "category": [
          {
            "coding": [
              {
                "system": "http://terminology.hl7.org/CodeSystem/observation-category",
                "code": "laboratory"
              }
            ]
          }
        ],
        "code": {
          "coding": [
            {
              "code": "5799-2",
              "system": "http://loinc.org",
              "display": "Leukocyte esterase [Presence] in Urine by Test strip"
            }
          ],
          "text": "Leukocyte esterase [Presence] in Urine by Test strip"
        },
        "valueQuantity": {
          "system": "http://unitsofmeasure.org",
          "value": 0,
          "unit": "{presence}",
          "code": "{presence}"
        },
        "referenceRange": [
          {
            "low": {
              "value": 0,
              "code": "Presence",
              "system": "http://unitsofmeasure.org"
            }
          },
          {
            "high": {
              "value": 0,
              "code": "Presence",
              "system": "http://unitsofmeasure.org"
            }
          }
        ],
        "text": {
          "status": "generated",
          "div": "<div xmlns=\"http://www.w3.org/1999/xhtml\"><table class=\"hl7__eu__lab__report\"><tr><th>Test</th><th>31-May-2016</th><th>Reference&#xA0;Range</th><th>Unit</th></tr><tr><td>Leukocyte esterase [Presence] in Urine by Test strip</td><td>0.0</td><td>0 - 0</td><td></td><td>{presence}</td></tr></table></div>"
        },
        "status": "final",
        "subject": {
          "reference": "urn:uuid:e39cf4ae-77c4-402b-aaba-1c26774429b3",
          "display": "Iva Kratochvílová"
        },
        "effectiveDateTime": "2016-05-31T00:28:20Z",
        "specimen": {
          "reference": "urn:uuid:20a260ed-ccfe-4add-b838-6fcbf3c962cb"
        }
      }
    },
    {
      "fullUrl": "urn:uuid:b479fceb-7a54-4a20-a5c7-0d4b04770b7b",
      "resource": {
        "resourceType": "Device",
        "id": "b479fceb-7a54-4a20-a5c7-0d4b04770b7b",
        "deviceName": [
          {
            "name": "SYNDERAI Synthetic Generator",
            "type": "manufacturer-name"
          }
        ],
        "version": [
          {
            "value": "5.0"
          }
        ],
        "text": {
          "status": "generated",
          "div": "<div xmlns=\"http://www.w3.org/1999/xhtml\">SYNDERAI Synthetic Generator v5.0</div>"
        },
        "status": "active\"",
        "distinctIdentifier": "synderai-generator-50",
        "manufacturer": "SYNDERAI Project"
      }
    },
    {
      "fullUrl": "urn:uuid:3b9875ee-be92-4a89-b1af-6dd3031ac1e2",
      "resource": {
        "resourceType": "Provenance",
        "id": "3b9875ee-be92-4a89-b1af-6dd3031ac1e2",
        "target": [
          {
            "reference": "Patient/e39cf4ae-77c4-402b-aaba-1c26774429b3"
          },
          {
            "reference": "Bundle/58ce1d57-a17c-4665-9c4d-5ae695f7f9e8"
          },
          {
            "reference": "Composition/ad35699b-61b9-4118-929e-452da9962872"
          },
          {
            "reference": "PractitionerRole/79887eee-81ad-47c1-b24b-6fc4d60c8cbf"
          },
          {
            "reference": "Practitioner/b9c45862-3d33-4944-812c-dfd43ecc076b"
          },
          {
            "reference": "PractitionerRole/515d54ad-1f8f-4411-8b87-9768b5b23a7a"
          },
          {
            "reference": "Organization/08f5fe6c-30ba-43cf-9927-23861092a550"
          }
        ],
        "activity": {
          "text": "Synthetic Example Data Generation"
        },
        "policy": [
          "https://synderai.net/synderai-synthetic-data-policy"
        ],
        "agent": [
          {
            "type": {
              "text": "author"
            },
            "who": {
              "reference": "Device/b479fceb-7a54-4a20-a5c7-0d4b04770b7b"
            }
          }
        ],
        "reason": [
          {
            "text": "Interoperability Testing and Training (non-clinical use)"
          }
        ],
        "text": {
          "status": "generated",
          "div": "<div xmlns=\"http://www.w3.org/1999/xhtml\">Provenance for SYNDERAI Synthetic Example Data Resource</div>"
        },
        "recorded": "2016-05-31T02:28:20Z"
      }
    },
    {
      "fullUrl": "urn:uuid:79887eee-81ad-47c1-b24b-6fc4d60c8cbf",
      "resource": {
        "resourceType": "PractitionerRole",
        "id": "79887eee-81ad-47c1-b24b-6fc4d60c8cbf",
        "meta": {
          "profile": [
            "http://hl7.eu/fhir/base/StructureDefinition/practitionerRole-eu"
          ]
        },
        "text": {
          "status": "generated",
          "div": "<div xmlns=\"http://www.w3.org/1999/xhtml\">Laboratory Role Id: 79887eee-81ad-47c1-b24b-6fc4d60c8cbf</div>"
        },
        "practitioner": {
          "reference": "urn:uuid:b9c45862-3d33-4944-812c-dfd43ecc076b"
        }
      }
    },
    {
      "fullUrl": "urn:uuid:b9c45862-3d33-4944-812c-dfd43ecc076b",
      "resource": {
        "resourceType": "Practitioner",
        "id": "b9c45862-3d33-4944-812c-dfd43ecc076b",
        "meta": {
          "profile": [
            "http://hl7.eu/fhir/base/StructureDefinition/practitioner-eu"
          ]
        },
        "identifier": [
          {
            "assigner": {
              "display": "HL7 Europe"
            },
            "system": "urn:oid:2.16.840.1.113883.2.51.999",
            "value": "367b7e98-97a3-4e21-9c89-c2c369b01a41"
          }
        ],
        "name": [
          {
            "prefix": [
              "dr"
            ],
            "given": [
              "Ex"
            ],
            "family": "Ample"
          }
        ],
        "address": [
          {
            "line": [
              "Laboratoire Central Européenne",
              "Boulevard du Jardin Botanique 32"
            ],
            "postalCode": "1000",
            "city": "Brussels",
            "country": "Belgium"
          }
        ],
        "text": {
          "status": "generated",
          "div": "<div xmlns=\"http://www.w3.org/1999/xhtml\">Laboratory: Laboratoire Central Européenne, 1000 Brussels, Belgium</div>"
        }
      }
    }
  ],
  "type": "document",
  "timestamp": "2016-05-31T02:28:20Z"
}
