{
  "resourceType": "Bundle",
  "id": "0a30537a-004d-48a8-a15c-5c279c68da5a",
  "meta": {
    "profile": [
      "http://hl7.eu/fhir/laboratory/StructureDefinition/Bundle-eu-lab"
    ]
  },
  "identifier": {
    "assigner": {
      "display": "HL7 Europe"
    },
    "system": "urn:oid:2.16.840.1.113883.2.51.999",
    "value": "0252c184-6525-4c95-9234-bd40114540e3"
  },
  "entry": [
    {
      "fullUrl": "urn:uuid:d1bfd826-cb60-4e85-ad19-0f384b078f18",
      "resource": {
        "resourceType": "Composition",
        "id": "d1bfd826-cb60-4e85-ad19-0f384b078f18",
        "meta": {
          "profile": [
            "http://hl7.eu/fhir/laboratory/StructureDefinition/Composition-eu-lab"
          ]
        },
        "identifier": {
          "assigner": {
            "display": "HL7 Europe"
          },
          "system": "urn:oid:2.16.840.1.113883.2.51.999",
          "value": "7f2c1813-0ce8-477c-a07b-4b22ee148e79"
        },
        "author": [
          {
            "reference": "urn:uuid:6430997c-b693-4bf8-bdca-a7e9f2681370"
          }
        ],
        "category": [
          {
            "coding": [
              {
                "code": "26436-6",
                "system": "http://loinc.org",
                "display": "Laboratory studies (set)"
              }
            ]
          }
        ],
        "type": {
          "coding": [
            {
              "code": "11502-2",
              "system": "http://loinc.org",
              "display": "Laboratory report"
            }
          ],
          "text": "Laboratory Report"
        },
        "section": [
          {
            "code": {
              "coding": [
                {
                  "code": "26436-6",
                  "system": "http://loinc.org",
                  "display": "Laboratory studies (set)"
                }
              ],
              "text": "Laboratory studies"
            },
            "section": [
              {
                "code": {
                  "coding": [
                    {
                      "code": "$18719-5",
                      "system": "http://loinc.org",
                      "display": "Chemistry studies (set)"
                    }
                  ],
                  "text": "Chemistry"
                },
                "entry": [
                  {
                    "reference": "urn:uuid:de2a49d8-cd27-4f3c-901a-589f2cbb5c19"
                  },
                  {
                    "reference": "urn:uuid:66cea705-17cf-4b4f-94b1-466dc600eaad"
                  },
                  {
                    "reference": "urn:uuid:12d0285d-941c-460a-95fc-4c298021a469"
                  },
                  {
                    "reference": "urn:uuid:9c3456e2-3604-4b5f-96f6-7c08333ceafe"
                  },
                  {
                    "reference": "urn:uuid:1f91d857-e063-49c9-853f-9ae0a4da879e"
                  },
                  {
                    "reference": "urn:uuid:43154d4b-4b97-4d8f-a4cd-7230cef58fa3"
                  },
                  {
                    "reference": "urn:uuid:78e62f26-77b3-4868-a55a-b01b93ff387e"
                  },
                  {
                    "reference": "urn:uuid:7ca63521-9e86-4a67-8957-ffdfc5bef03d"
                  },
                  {
                    "reference": "urn:uuid:5e107efb-d472-4b46-a43b-cf7132c9eb1b"
                  },
                  {
                    "reference": "urn:uuid:5041bd70-589b-47ba-ac8a-9140eb43d0c9"
                  },
                  {
                    "reference": "urn:uuid:1e7b2fcb-7d91-4fca-b0b2-745d162fea92"
                  },
                  {
                    "reference": "urn:uuid:29b2eacb-29db-4389-a2b0-62fc167a010e"
                  },
                  {
                    "reference": "urn:uuid:22331a69-6861-4301-ab9a-924924db9b3d"
                  },
                  {
                    "reference": "urn:uuid:30d24836-88a3-43fd-9d66-688cc9c290f3"
                  },
                  {
                    "reference": "urn:uuid:1a77f540-c6da-4362-804f-533eba50cbd8"
                  },
                  {
                    "reference": "urn:uuid:12048b3b-ffc8-4973-a34a-cf5e99fa93a8"
                  }
                ],
                "text": {
                  "status": "generated",
                  "div": "<div xmlns=\"http://www.w3.org/1999/xhtml\"><h3>Chemistry</h3><table class=\"hl7__eu__lab__report\"><thead><tr><th>Test</th><th>12-JAN-2016</th><th>Reference&#xA0;Range</th><th>Unit</th></tr></thead><tbody><tr><td>Glucose [Mass/volume] in Blood</td><td>75.9</td><td>70 - 140</td><td>mg/dL</td></tr><tr><td>Urea nitrogen [Mass/volume] in Blood</td><td>12.4</td><td>7 - 30</td><td>mg/dL</td></tr><tr><td>Creatinine [Mass/volume] in Blood</td><td><strong>2.8 H</strong></td><td>0.5 - 1.3</td><td>mg/dL</td></tr><tr><td>Calcium [Mass/volume] in Blood</td><td>9.3</td><td>8.6 - 10.2</td><td>mg/dL</td></tr><tr><td>Sodium [Moles/volume] in Blood</td><td>141.4</td><td>135 - 145</td><td>mmol/L</td></tr><tr><td>Potassium [Moles/volume] in Blood</td><td>4.3</td><td>3.5 - 5.1</td><td>mmol/L</td></tr><tr><td>Chloride [Moles/volume] in Blood</td><td>101.9</td><td>98 - 114</td><td>mmol/L</td></tr><tr><td>Carbon dioxide, total [Moles/volume] in Blood</td><td>23.6</td><td>22 - 32</td><td>mmol/L</td></tr><tr><td>Protein [Mass/volume] in Serum or Plasma</td><td>7.0</td><td>6 - 8.3</td><td>g/dL</td></tr><tr><td>Albumin [Mass/volume] in Serum or Plasma</td><td>4.8</td><td>3.5 - 5.5</td><td>g/dL</td></tr><tr><td>Globulin [Mass/volume] in Serum by calculation</td><td>2.8</td><td>2 - 3.5</td><td>g/L</td></tr><tr><td>Bilirubin.total [Mass/volume] in Serum or Plasma</td><td>0.3</td><td>0.3 - 1.2</td><td>mg/dL</td></tr><tr><td>Alkaline phosphatase [Enzymatic activity/volume] in Serum or Plasma</td><td>62.9</td><td>44 - 142</td><td>U/L</td></tr><tr><td>Alanine aminotransferase [Enzymatic activity/volume] in Serum or Plasma</td><td><strong>50.4 H</strong></td><td>7 - 40</td><td>U/L</td></tr><tr><td>Aspartate aminotransferase [Enzymatic activity/volume] in Serum or Plasma</td><td>11.1</td><td>10 - 40</td><td>U/L</td></tr><tr><td>Ketones [Presence] in Urine by Test strip</td><td>Urine ketone test = +++</td><td></td><td></td></tr></tbody></table></div>"
                },
                "title": "Chemistry"
              },
              {
                "code": {
                  "coding": [
                    {
                      "code": "$18729-4",
                      "system": "http://loinc.org",
                      "display": "Urinalysis studies (set)"
                    }
                  ],
                  "text": "Urinalysis"
                },
                "entry": [
                  {
                    "reference": "urn:uuid:9284c25a-b292-4b64-b117-50a8d36082c5"
                  },
                  {
                    "reference": "urn:uuid:33503cd9-cc1b-45ba-8b72-d6f15efc6ee8"
                  },
                  {
                    "reference": "urn:uuid:71ca57d3-8187-4ef8-b83d-ddc1844458a3"
                  },
                  {
                    "reference": "urn:uuid:0761023a-881f-4f1a-b701-b77a940b2599"
                  },
                  {
                    "reference": "urn:uuid:bd470f75-6702-4c21-a04d-818a9b30123f"
                  },
                  {
                    "reference": "urn:uuid:7a06b7e1-1ca3-4789-bfce-eb0d8d0ca2b4"
                  },
                  {
                    "reference": "urn:uuid:4081ca14-fca5-4b9a-9671-cb421deaa595"
                  },
                  {
                    "reference": "urn:uuid:c4f5eacd-57ec-4bbf-aaf0-8a954c8b0ba9"
                  },
                  {
                    "reference": "urn:uuid:03d1259c-dfcb-44df-97af-91af4c1aff3f"
                  },
                  {
                    "reference": "urn:uuid:723310c7-6130-4ca3-8e45-eb50e1af1bbf"
                  },
                  {
                    "reference": "urn:uuid:ae02f599-55aa-4bb9-b197-4cd0ddd6ab74"
                  },
                  {
                    "reference": "urn:uuid:b966efe7-c1d8-4dc3-b5a0-9a35d7e3bbcc"
                  }
                ],
                "text": {
                  "status": "generated",
                  "div": "<div xmlns=\"http://www.w3.org/1999/xhtml\"><h3>Urinalysis</h3><table class=\"hl7__eu__lab__report\"><thead><tr><th>Test</th><th>12-JAN-2016</th><th>Reference&#xA0;Range</th><th>Unit</th></tr></thead><tbody><tr><td>Glucose [Mass/volume] in Urine by Test strip</td><td><strong>0.8 H</strong></td><td>0.8 - 0</td><td>mg/dL</td></tr><tr><td>Glucose [Presence] in Urine by Test strip</td><td>++</td><td></td><td></td></tr><tr><td>Bilirubin.total [Mass/volume] in Urine by Test strip</td><td>0.4</td><td>0 - 1.5</td><td>mg/dL</td></tr><tr><td>Bilirubin.total [Presence] in Urine by Test strip</td><td>Finding of bilirubin in urine</td><td></td><td></td></tr><tr><td>Ketones [Mass/volume] in Urine by Test strip</td><td>3.4</td><td>0 - 8</td><td>mg/dL</td></tr><tr><td>Specific gravity of Urine by Test strip</td><td><strong>1.0 L</strong></td><td>1.01 - 1.03</td><td>{nominal}</td></tr><tr><td>pH of Urine by Test strip</td><td>6.5</td><td>4.6 - 7.5</td><td>pH</td></tr><tr><td>Protein [Mass/volume] in Urine by Test strip</td><td><strong>350.0 H</strong></td><td>0 - 14</td><td>mg/dL</td></tr><tr><td>Protein [Presence] in Urine by Test strip</td><td>Urine protein test = +++</td><td></td><td></td></tr><tr><td>Nitrite [Presence] in Urine by Test strip</td><td>Urine nitrite negative</td><td></td><td></td></tr><tr><td>Hemoglobin [Presence] in Urine by Test strip</td><td>Urine blood test = negative</td><td></td><td></td></tr><tr><td>Leukocyte esterase [Presence] in Urine by Test strip</td><td>Urine leukocyte test negative</td><td></td><td></td></tr></tbody></table></div>"
                },
                "title": "Urinalysis"
              },
              {
                "code": {
                  "coding": [
                    {
                      "code": "$LP7846-1",
                      "system": "http://loinc.org",
                      "display": "Specimen information"
                    }
                  ],
                  "text": "Specimen information"
                },
                "entry": [
                  {
                    "reference": "urn:uuid:29d37d45-96b3-4c23-b2ff-ac4113677cea"
                  },
                  {
                    "reference": "urn:uuid:abfff63c-8229-42c2-91a6-a2150ba1146c"
                  },
                  {
                    "reference": "urn:uuid:123d0932-c486-4522-84ae-8d4c44437f4c"
                  },
                  {
                    "reference": "urn:uuid:72a78438-d25e-44f7-a9e9-b7be4626dde4"
                  }
                ],
                "text": {
                  "status": "generated",
                  "div": "<div xmlns=\"http://www.w3.org/1999/xhtml\"><h3>Specimen information</h3><table class=\"hl7__eu__lab__report\"><thead><tr><th>Test</th><th>12-JAN-2016</th><th>Specimen</th><th></th></tr></thead><tbody><tr><td>Appearance of Urine</td><td>Cloudy urine</td><td>Urine</td><td></td></tr><tr><td>Odor of Urine</td><td>Urine smell ammoniacal</td><td>Urine</td><td></td></tr><tr><td>Clarity of Urine</td><td>Translucent</td><td>Urine</td><td></td></tr><tr><td>Color of Urine</td><td>Brown color</td><td>Urine</td><td></td></tr></tbody></table></div>"
                },
                "title": "Specimen information"
              }
            ],
            "title": "Laboratory Report"
          },
          {
            "text": {
              "status": "generated",
              "div": "<div xmlns=\"http://www.w3.org/1999/xhtml\"><h3>Annotation</h3><table class=\"hl7__eu__lab__report\"><tr><th>Conclusion and Recommendations based on this report and previous findings known to us</th></tr><tr><td>The patient shows elevated serum creatinine, indicating impaired renal function, and mild elevation of ALT, suggesting possible liver involvement. Urinalysis reveals significant proteinuria, glucosuria, and ketonuria, with low specific gravity and abnormal urine appearance, raising concern for nephrotic syndrome or diabetic nephropathy. No evidence of urinary tract infection. Further clinical correlation and nephrology evaluation are recommended.</td></tr></table></div>"
            },
            "code": {
              "coding": [
                {
                  "system": "http://loinc.org",
                  "code": "48767-8",
                  "display": "Annotation comment"
                }
              ]
            },
            "title": "Annotation comment"
          }
        ],
        "status": "final",
        "subject": {
          "reference": "urn:uuid:d8d51a61-459d-4473-ad7a-d45e48666569",
          "display": "Maria Nohlmans"
        },
        "date": "2016-01-12T22:10:39Z",
        "title": "Laboratory Report",
        "confidentiality": "N"
      }
    },
    {
      "fullUrl": "urn:uuid:cae19745-809b-4169-8f21-751f51ae7c3f",
      "resource": {
        "resourceType": "DiagnosticReport",
        "id": "cae19745-809b-4169-8f21-751f51ae7c3f",
        "meta": {
          "profile": [
            "http://hl7.eu/fhir/laboratory/StructureDefinition/DiagnosticReport-eu-lab"
          ]
        },
        "identifier": [
          {
            "assigner": {
              "display": "HL7 Europe"
            },
            "system": "urn:oid:2.16.840.1.113883.2.51.999",
            "value": "25a2293d-9920-4604-8d44-f5a98fad0dbb"
          }
        ],
        "extension": [
          {
            "url": "http://hl7.org/fhir/5.0/StructureDefinition/extension-DiagnosticReport.composition",
            "valueReference": {
              "reference": "urn:uuid:7f2c1813-0ce8-477c-a07b-4b22ee148e79"
            }
          }
        ],
        "category": [
          {
            "coding": [
              {
                "code": "26436-6",
                "system": "http://loinc.org",
                "display": "Laboratory studies (set)"
              }
            ]
          }
        ],
        "specimen": [
          {
            "reference": "urn:uuid:4703d895-689b-41d3-b62c-f62c98bf9a0e"
          },
          {
            "reference": "urn:uuid:8a9c899c-467e-496e-9b10-9025e14c067a"
          },
          {
            "reference": "urn:uuid:be0a5e2b-2152-4366-9fed-9896a36fbd9d"
          },
          {
            "reference": "urn:uuid:429d3796-9b18-45fc-b791-e0016d0d298e"
          }
        ],
        "result": [
          {
            "reference": "urn:uuid:de2a49d8-cd27-4f3c-901a-589f2cbb5c19"
          },
          {
            "reference": "urn:uuid:66cea705-17cf-4b4f-94b1-466dc600eaad"
          },
          {
            "reference": "urn:uuid:12d0285d-941c-460a-95fc-4c298021a469"
          },
          {
            "reference": "urn:uuid:9c3456e2-3604-4b5f-96f6-7c08333ceafe"
          },
          {
            "reference": "urn:uuid:1f91d857-e063-49c9-853f-9ae0a4da879e"
          },
          {
            "reference": "urn:uuid:43154d4b-4b97-4d8f-a4cd-7230cef58fa3"
          },
          {
            "reference": "urn:uuid:78e62f26-77b3-4868-a55a-b01b93ff387e"
          },
          {
            "reference": "urn:uuid:7ca63521-9e86-4a67-8957-ffdfc5bef03d"
          },
          {
            "reference": "urn:uuid:5e107efb-d472-4b46-a43b-cf7132c9eb1b"
          },
          {
            "reference": "urn:uuid:5041bd70-589b-47ba-ac8a-9140eb43d0c9"
          },
          {
            "reference": "urn:uuid:1e7b2fcb-7d91-4fca-b0b2-745d162fea92"
          },
          {
            "reference": "urn:uuid:29b2eacb-29db-4389-a2b0-62fc167a010e"
          },
          {
            "reference": "urn:uuid:22331a69-6861-4301-ab9a-924924db9b3d"
          },
          {
            "reference": "urn:uuid:30d24836-88a3-43fd-9d66-688cc9c290f3"
          },
          {
            "reference": "urn:uuid:1a77f540-c6da-4362-804f-533eba50cbd8"
          },
          {
            "reference": "urn:uuid:29d37d45-96b3-4c23-b2ff-ac4113677cea"
          },
          {
            "reference": "urn:uuid:abfff63c-8229-42c2-91a6-a2150ba1146c"
          },
          {
            "reference": "urn:uuid:123d0932-c486-4522-84ae-8d4c44437f4c"
          },
          {
            "reference": "urn:uuid:72a78438-d25e-44f7-a9e9-b7be4626dde4"
          },
          {
            "reference": "urn:uuid:9284c25a-b292-4b64-b117-50a8d36082c5"
          },
          {
            "reference": "urn:uuid:33503cd9-cc1b-45ba-8b72-d6f15efc6ee8"
          },
          {
            "reference": "urn:uuid:71ca57d3-8187-4ef8-b83d-ddc1844458a3"
          },
          {
            "reference": "urn:uuid:0761023a-881f-4f1a-b701-b77a940b2599"
          },
          {
            "reference": "urn:uuid:bd470f75-6702-4c21-a04d-818a9b30123f"
          },
          {
            "reference": "urn:uuid:12048b3b-ffc8-4973-a34a-cf5e99fa93a8"
          },
          {
            "reference": "urn:uuid:7a06b7e1-1ca3-4789-bfce-eb0d8d0ca2b4"
          },
          {
            "reference": "urn:uuid:4081ca14-fca5-4b9a-9671-cb421deaa595"
          },
          {
            "reference": "urn:uuid:c4f5eacd-57ec-4bbf-aaf0-8a954c8b0ba9"
          },
          {
            "reference": "urn:uuid:03d1259c-dfcb-44df-97af-91af4c1aff3f"
          },
          {
            "reference": "urn:uuid:723310c7-6130-4ca3-8e45-eb50e1af1bbf"
          },
          {
            "reference": "urn:uuid:ae02f599-55aa-4bb9-b197-4cd0ddd6ab74"
          },
          {
            "reference": "urn:uuid:b966efe7-c1d8-4dc3-b5a0-9a35d7e3bbcc"
          }
        ],
        "status": "registered",
        "code": {
          "coding": [
            {
              "code": "11502-2",
              "system": "http://loinc.org",
              "display": "Laboratory report"
            }
          ]
        },
        "subject": {
          "reference": "urn:uuid:d8d51a61-459d-4473-ad7a-d45e48666569",
          "display": "Maria Nohlmans"
        }
      }
    },
    {
      "fullUrl": "urn:uuid:d8d51a61-459d-4473-ad7a-d45e48666569",
      "resource": {
        "resourceType": "Patient",
        "id": "d8d51a61-459d-4473-ad7a-d45e48666569",
        "meta": {
          "security": [
            {
              "system": "http://terminology.hl7.org/CodeSystem/v3-ActReason",
              "code": "HTEST"
            },
            {
              "system": "http://terminology.hl7.org/CodeSystem/v3-ActReason",
              "code": "TRAIN"
            }
          ],
          "tag": [
            {
              "system": "https://synderai.net/fhir/CodeSystem/tags",
              "code": "synthetic",
              "display": "SYNDERAI Synthetic data"
            }
          ],
          "profile": [
            "http://hl7.eu/fhir/base/StructureDefinition/patient-eu-core"
          ]
        },
        "identifier": [
          {
            "type": {
              "coding": [
                {
                  "code": "PT",
                  "system": "http://terminology.hl7.org/CodeSystem/v2-0203"
                }
              ]
            },
            "system": "http://ec.europa.eu/identifier/eci",
            "value": "6886-506417-1"
          },
          {
            "type": {
              "coding": [
                {
                  "code": "MR",
                  "system": "http://terminology.hl7.org/CodeSystem/v2-0203"
                }
              ]
            },
            "system": "http://local.setting.eu/identifier",
            "value": "2cb21ed6-b617-b1f3-2290-589a710de5ee"
          }
        ],
        "name": [
          {
            "family": "Nohlmans"
          },
          {
            "given": [
              "Maria"
            ]
          },
          {
            "text": "Maria Nohlmans"
          }
        ],
        "address": [
          {
            "line": [
              "Alfons-Wulff-Weg 1"
            ],
            "use": "home",
            "type": "physical",
            "postalCode": "25813",
            "city": "Husum",
            "country": "Germany"
          }
        ],
        "telecom": [
          {
            "system": "phone",
            "value": "+49(0)1911 105501"
          }
        ],
        "extension": [
          {
            "url": "http://hl7.org/fhir/StructureDefinition/patient-nationality",
            "valueCodeableConcept": {
              "coding": [
                {
                  "code": "DE",
                  "system": "http://hl7.org/fhir/ValueSet/country"
                }
              ]
            }
          }
        ],
        "text": {
          "status": "generated",
          "div": "<div xmlns=\"http://www.w3.org/1999/xhtml\"><table class=\"hl7__ips\"><tr><td>Maria Nohlmans</td><td>female</td><td>11-Jun-1947</td></tr></table></div>"
        },
        "gender": "female",
        "birthDate": "1947-06-11"
      }
    },
    {
      "fullUrl": "urn:uuid:441a9522-3ea9-4aa4-9739-bc04454eff0c",
      "resource": {
        "resourceType": "ServiceRequest",
        "id": "441a9522-3ea9-4aa4-9739-bc04454eff0c",
        "meta": {
          "profile": [
            "http://hl7.eu/fhir/laboratory/StructureDefinition/ServiceRequest-eu-lab"
          ]
        },
        "identifier": [
          {
            "system": "http://example.org",
            "value": "8aec6b18-c064-43e3-9a26-30b99f309b08"
          }
        ],
        "specimen": [
          {
            "reference": "urn:uuid:4703d895-689b-41d3-b62c-f62c98bf9a0e"
          },
          {
            "reference": "urn:uuid:8a9c899c-467e-496e-9b10-9025e14c067a"
          },
          {
            "reference": "urn:uuid:be0a5e2b-2152-4366-9fed-9896a36fbd9d"
          },
          {
            "reference": "urn:uuid:429d3796-9b18-45fc-b791-e0016d0d298e"
          }
        ],
        "reasonCode": [
          {
            "coding": [
              {
                "code": "401314000",
                "system": "http://snomed.info/sct",
                "display": "Acute non-ST segment elevation myocardial infarction"
              }
            ]
          },
          {
            "coding": [
              {
                "code": "157141000119108",
                "system": "http://snomed.info/sct",
                "display": "Proteinuria due to type 2 diabetes mellitus"
              }
            ]
          },
          {
            "coding": [
              {
                "code": "237602007",
                "system": "http://snomed.info/sct",
                "display": "Metabolic syndrome X"
              }
            ]
          },
          {
            "coding": [
              {
                "code": "90781000119102",
                "system": "http://snomed.info/sct",
                "display": "Microalbuminuria due to type 2 diabetes mellitus"
              }
            ]
          },
          {
            "coding": [
              {
                "code": "127013003",
                "system": "http://snomed.info/sct",
                "display": "Disorder of kidney due to diabetes mellitus"
              }
            ]
          },
          {
            "coding": [
              {
                "code": "59621000",
                "system": "http://snomed.info/sct",
                "display": "Essential hypertension"
              }
            ]
          },
          {
            "coding": [
              {
                "code": "271737000",
                "system": "http://snomed.info/sct",
                "display": "Anemia"
              }
            ]
          },
          {
            "coding": [
              {
                "code": "15777000",
                "system": "http://snomed.info/sct",
                "display": "Prediabetes"
              }
            ]
          }
        ],
        "status": "active",
        "intent": "order",
        "code": {
          "coding": [
            {
              "code": "108252007",
              "system": "http://snomed.info/sct",
              "display": "Laboratory procedure"
            }
          ]
        },
        "subject": {
          "reference": "urn:uuid:d8d51a61-459d-4473-ad7a-d45e48666569",
          "display": "Maria Nohlmans"
        },
        "requester": {
          "reference": "urn:uuid:41a284ed-aeb6-4035-8b90-f95aac9f2274"
        }
      }
    },
    {
      "fullUrl": "urn:uuid:41a284ed-aeb6-4035-8b90-f95aac9f2274",
      "resource": {
        "resourceType": "PractitionerRole",
        "id": "41a284ed-aeb6-4035-8b90-f95aac9f2274",
        "meta": {
          "profile": [
            "http://hl7.eu/fhir/base/StructureDefinition/practitionerRole-eu"
          ]
        },
        "text": {
          "status": "generated",
          "div": "<div xmlns=\"http://www.w3.org/1999/xhtml\">Provider Role Id: 41a284ed-aeb6-4035-8b90-f95aac9f2274</div>"
        },
        "organization": {
          "reference": "urn:uuid:01a7a45a-be61-434c-9e77-06cae435d069"
        }
      }
    },
    {
      "fullUrl": "urn:uuid:01a7a45a-be61-434c-9e77-06cae435d069",
      "resource": {
        "resourceType": "Organization",
        "id": "01a7a45a-be61-434c-9e77-06cae435d069",
        "meta": {
          "profile": [
            "http://hl7.eu/fhir/base/StructureDefinition/organization-eu"
          ]
        },
        "identifier": [
          {
            "assigner": {
              "display": "HL7 Europe"
            },
            "system": "urn:oid:2.16.840.1.113883.2.51.999",
            "value": "486b2825-4d86-4cfe-833a-4c54e9a4337d"
          }
        ],
        "address": [
          {
            "line": [
              "Brinckmannstraße 35"
            ],
            "city": "Husum",
            "postalCode": "25813",
            "country": "Germany"
          }
        ],
        "text": {
          "status": "generated",
          "div": "<div xmlns=\"http://www.w3.org/1999/xhtml\">Provider Organization: Dr. Wolfram Hussels Kieferorthopäde</div>"
        },
        "name": "Dr. Wolfram Hussels Kieferorthopäde"
      }
    },
    {
      "fullUrl": "urn:uuid:4703d895-689b-41d3-b62c-f62c98bf9a0e",
      "resource": {
        "resourceType": "Specimen",
        "id": "4703d895-689b-41d3-b62c-f62c98bf9a0e",
        "meta": {
          "profile": [
            "http://hl7.eu/fhir/laboratory/StructureDefinition/Specimen-eu-lab"
          ]
        },
        "collection": {
          "collectedDateTime": "2016-01-12"
        },
        "text": {
          "status": "generated",
          "div": "<div xmlns=\"http://www.w3.org/1999/xhtml\"><table class=\"hl7__eu__lab__report\"><tr><th>Specimen</th><th>Collection Date</th></tr><tr><td>Whole blood specimen (specimen)</td><td><span class=\"nb\">12-Jan-2016</span></td></tr></table></div>"
        },
        "type": {
          "coding": [
            {
              "code": "258580003",
              "system": "http://snomed.info/sct",
              "display": "Whole blood specimen (specimen)"
            }
          ]
        }
      }
    },
    {
      "fullUrl": "urn:uuid:8a9c899c-467e-496e-9b10-9025e14c067a",
      "resource": {
        "resourceType": "Specimen",
        "id": "8a9c899c-467e-496e-9b10-9025e14c067a",
        "meta": {
          "profile": [
            "http://hl7.eu/fhir/laboratory/StructureDefinition/Specimen-eu-lab"
          ]
        },
        "collection": {
          "collectedDateTime": "2016-01-12"
        },
        "text": {
          "status": "generated",
          "div": "<div xmlns=\"http://www.w3.org/1999/xhtml\"><table class=\"hl7__eu__lab__report\"><tr><th>Specimen</th><th>Collection Date</th></tr><tr><td>Acellular blood (serum or plasma) specimen</td><td><span class=\"nb\">12-Jan-2016</span></td></tr></table></div>"
        },
        "type": {
          "coding": [
            {
              "code": "122592007",
              "system": "http://snomed.info/sct",
              "display": "Acellular blood (serum or plasma) specimen"
            }
          ]
        }
      }
    },
    {
      "fullUrl": "urn:uuid:be0a5e2b-2152-4366-9fed-9896a36fbd9d",
      "resource": {
        "resourceType": "Specimen",
        "id": "be0a5e2b-2152-4366-9fed-9896a36fbd9d",
        "meta": {
          "profile": [
            "http://hl7.eu/fhir/laboratory/StructureDefinition/Specimen-eu-lab"
          ]
        },
        "collection": {
          "collectedDateTime": "2016-01-12"
        },
        "text": {
          "status": "generated",
          "div": "<div xmlns=\"http://www.w3.org/1999/xhtml\"><table class=\"hl7__eu__lab__report\"><tr><th>Specimen</th><th>Collection Date</th></tr><tr><td>Serum specimen</td><td><span class=\"nb\">12-Jan-2016</span></td></tr></table></div>"
        },
        "type": {
          "coding": [
            {
              "code": "119364003",
              "system": "http://snomed.info/sct",
              "display": "Serum specimen"
            }
          ]
        }
      }
    },
    {
      "fullUrl": "urn:uuid:429d3796-9b18-45fc-b791-e0016d0d298e",
      "resource": {
        "resourceType": "Specimen",
        "id": "429d3796-9b18-45fc-b791-e0016d0d298e",
        "meta": {
          "profile": [
            "http://hl7.eu/fhir/laboratory/StructureDefinition/Specimen-eu-lab"
          ]
        },
        "collection": {
          "collectedDateTime": "2016-01-12"
        },
        "text": {
          "status": "generated",
          "div": "<div xmlns=\"http://www.w3.org/1999/xhtml\"><table class=\"hl7__eu__lab__report\"><tr><th>Specimen</th><th>Collection Date</th></tr><tr><td>Urine specimen</td><td><span class=\"nb\">12-Jan-2016</span></td></tr></table></div>"
        },
        "type": {
          "coding": [
            {
              "code": "122575003",
              "system": "http://snomed.info/sct",
              "display": "Urine specimen"
            }
          ]
        }
      }
    },
    {
      "fullUrl": "urn:uuid:de2a49d8-cd27-4f3c-901a-589f2cbb5c19",
      "resource": {
        "resourceType": "Observation",
        "id": "de2a49d8-cd27-4f3c-901a-589f2cbb5c19",
        "meta": {
          "profile": [
            "http://hl7.eu/fhir/laboratory/StructureDefinition/Observation-resultslab-eu-lab"
          ]
        },
        "performer": [
          {
            "display": "The Central European Lab"
          }
        ],
        "category": [
          {
            "coding": [
              {
                "system": "http://terminology.hl7.org/CodeSystem/observation-category",
                "code": "laboratory"
              }
            ]
          }
        ],
        "code": {
          "coding": [
            {
              "code": "2339-0",
              "system": "http://loinc.org",
              "display": "Glucose [Mass/volume] in Blood"
            }
          ],
          "text": "Glucose [Mass/volume] in Blood"
        },
        "valueQuantity": {
          "system": "http://unitsofmeasure.org",
          "value": 75.9,
          "unit": "mg/dL",
          "code": "mg/dL"
        },
        "referenceRange": [
          {
            "low": {
              "value": 70,
              "code": "mg/dL",
              "system": "http://unitsofmeasure.org"
            }
          },
          {
            "high": {
              "value": 140,
              "code": "mg/dL",
              "system": "http://unitsofmeasure.org"
            }
          }
        ],
        "text": {
          "status": "generated",
          "div": "<div xmlns=\"http://www.w3.org/1999/xhtml\"><table class=\"hl7__eu__lab__report\"><tr><th>Test</th><th>12-Jan-2016</th><th>Reference&#xA0;Range</th><th>Unit</th></tr><tr><td>Glucose [Mass/volume] in Blood</td><td>75.9</td><td>70 - 140</td><td></td><td>mg/dL</td></tr></table></div>"
        },
        "status": "final",
        "subject": {
          "reference": "urn:uuid:d8d51a61-459d-4473-ad7a-d45e48666569",
          "display": "Maria Nohlmans"
        },
        "effectiveDateTime": "2016-01-12T21:10:39Z",
        "specimen": {
          "reference": "urn:uuid:4703d895-689b-41d3-b62c-f62c98bf9a0e"
        }
      }
    },
    {
      "fullUrl": "urn:uuid:66cea705-17cf-4b4f-94b1-466dc600eaad",
      "resource": {
        "resourceType": "Observation",
        "id": "66cea705-17cf-4b4f-94b1-466dc600eaad",
        "meta": {
          "profile": [
            "http://hl7.eu/fhir/laboratory/StructureDefinition/Observation-resultslab-eu-lab"
          ]
        },
        "performer": [
          {
            "display": "The Central European Lab"
          }
        ],
        "category": [
          {
            "coding": [
              {
                "system": "http://terminology.hl7.org/CodeSystem/observation-category",
                "code": "laboratory"
              }
            ]
          }
        ],
        "code": {
          "coding": [
            {
              "code": "6299-2",
              "system": "http://loinc.org",
              "display": "Urea nitrogen [Mass/volume] in Blood"
            }
          ],
          "text": "Urea nitrogen [Mass/volume] in Blood"
        },
        "valueQuantity": {
          "system": "http://unitsofmeasure.org",
          "value": 12.4,
          "unit": "mg/dL",
          "code": "mg/dL"
        },
        "referenceRange": [
          {
            "low": {
              "value": 7,
              "code": "mg/dL",
              "system": "http://unitsofmeasure.org"
            }
          },
          {
            "high": {
              "value": 30,
              "code": "mg/dL",
              "system": "http://unitsofmeasure.org"
            }
          }
        ],
        "text": {
          "status": "generated",
          "div": "<div xmlns=\"http://www.w3.org/1999/xhtml\"><table class=\"hl7__eu__lab__report\"><tr><th>Test</th><th>12-Jan-2016</th><th>Reference&#xA0;Range</th><th>Unit</th></tr><tr><td>Urea nitrogen [Mass/volume] in Blood</td><td>12.4</td><td>7 - 30</td><td></td><td>mg/dL</td></tr></table></div>"
        },
        "status": "final",
        "subject": {
          "reference": "urn:uuid:d8d51a61-459d-4473-ad7a-d45e48666569",
          "display": "Maria Nohlmans"
        },
        "effectiveDateTime": "2016-01-12T21:10:39Z",
        "specimen": {
          "reference": "urn:uuid:4703d895-689b-41d3-b62c-f62c98bf9a0e"
        }
      }
    },
    {
      "fullUrl": "urn:uuid:12d0285d-941c-460a-95fc-4c298021a469",
      "resource": {
        "resourceType": "Observation",
        "id": "12d0285d-941c-460a-95fc-4c298021a469",
        "meta": {
          "profile": [
            "http://hl7.eu/fhir/laboratory/StructureDefinition/Observation-resultslab-eu-lab"
          ]
        },
        "performer": [
          {
            "display": "The Central European Lab"
          }
        ],
        "category": [
          {
            "coding": [
              {
                "system": "http://terminology.hl7.org/CodeSystem/observation-category",
                "code": "laboratory"
              }
            ]
          }
        ],
        "code": {
          "coding": [
            {
              "code": "38483-4",
              "system": "http://loinc.org",
              "display": "Creatinine [Mass/volume] in Blood"
            }
          ],
          "text": "Creatinine [Mass/volume] in Blood"
        },
        "valueQuantity": {
          "system": "http://unitsofmeasure.org",
          "value": 2.8,
          "unit": "mg/dL",
          "code": "mg/dL"
        },
        "referenceRange": [
          {
            "low": {
              "value": 0.5,
              "code": "mg/dL",
              "system": "http://unitsofmeasure.org"
            }
          },
          {
            "high": {
              "value": 1.3,
              "code": "mg/dL",
              "system": "http://unitsofmeasure.org"
            }
          }
        ],
        "interpretation": [
          {
            "coding": [
              {
                "code": "H",
                "system": "http://terminology.hl7.org/CodeSystem/v3-ObservationInterpretation",
                "display": "High"
              }
            ]
          }
        ],
        "text": {
          "status": "generated",
          "div": "<div xmlns=\"http://www.w3.org/1999/xhtml\"><table class=\"hl7__eu__lab__report\"><tr><th>Test</th><th>12-Jan-2016</th><th>Reference&#xA0;Range</th><th>Unit</th></tr><tr><td>Creatinine [Mass/volume] in Blood</td><td>2.8</td><td>0.5 - 1.3</td><td>H</td><td>mg/dL</td></tr></table></div>"
        },
        "status": "final",
        "subject": {
          "reference": "urn:uuid:d8d51a61-459d-4473-ad7a-d45e48666569",
          "display": "Maria Nohlmans"
        },
        "effectiveDateTime": "2016-01-12T21:10:39Z",
        "specimen": {
          "reference": "urn:uuid:4703d895-689b-41d3-b62c-f62c98bf9a0e"
        }
      }
    },
    {
      "fullUrl": "urn:uuid:9c3456e2-3604-4b5f-96f6-7c08333ceafe",
      "resource": {
        "resourceType": "Observation",
        "id": "9c3456e2-3604-4b5f-96f6-7c08333ceafe",
        "meta": {
          "profile": [
            "http://hl7.eu/fhir/laboratory/StructureDefinition/Observation-resultslab-eu-lab"
          ]
        },
        "performer": [
          {
            "display": "The Central European Lab"
          }
        ],
        "category": [
          {
            "coding": [
              {
                "system": "http://terminology.hl7.org/CodeSystem/observation-category",
                "code": "laboratory"
              }
            ]
          }
        ],
        "code": {
          "coding": [
            {
              "code": "49765-1",
              "system": "http://loinc.org",
              "display": "Calcium [Mass/volume] in Blood"
            }
          ],
          "text": "Calcium [Mass/volume] in Blood"
        },
        "valueQuantity": {
          "system": "http://unitsofmeasure.org",
          "value": 9.3,
          "unit": "mg/dL",
          "code": "mg/dL"
        },
        "referenceRange": [
          {
            "low": {
              "value": 8.6,
              "code": "mg/dL",
              "system": "http://unitsofmeasure.org"
            }
          },
          {
            "high": {
              "value": 10.2,
              "code": "mg/dL",
              "system": "http://unitsofmeasure.org"
            }
          }
        ],
        "text": {
          "status": "generated",
          "div": "<div xmlns=\"http://www.w3.org/1999/xhtml\"><table class=\"hl7__eu__lab__report\"><tr><th>Test</th><th>12-Jan-2016</th><th>Reference&#xA0;Range</th><th>Unit</th></tr><tr><td>Calcium [Mass/volume] in Blood</td><td>9.3</td><td>8.6 - 10.2</td><td></td><td>mg/dL</td></tr></table></div>"
        },
        "status": "final",
        "subject": {
          "reference": "urn:uuid:d8d51a61-459d-4473-ad7a-d45e48666569",
          "display": "Maria Nohlmans"
        },
        "effectiveDateTime": "2016-01-12T21:10:39Z",
        "specimen": {
          "reference": "urn:uuid:4703d895-689b-41d3-b62c-f62c98bf9a0e"
        }
      }
    },
    {
      "fullUrl": "urn:uuid:1f91d857-e063-49c9-853f-9ae0a4da879e",
      "resource": {
        "resourceType": "Observation",
        "id": "1f91d857-e063-49c9-853f-9ae0a4da879e",
        "meta": {
          "profile": [
            "http://hl7.eu/fhir/laboratory/StructureDefinition/Observation-resultslab-eu-lab"
          ]
        },
        "performer": [
          {
            "display": "The Central European Lab"
          }
        ],
        "category": [
          {
            "coding": [
              {
                "system": "http://terminology.hl7.org/CodeSystem/observation-category",
                "code": "laboratory"
              }
            ]
          }
        ],
        "code": {
          "coding": [
            {
              "code": "2947-0",
              "system": "http://loinc.org",
              "display": "Sodium [Moles/volume] in Blood"
            }
          ],
          "text": "Sodium [Moles/volume] in Blood"
        },
        "valueQuantity": {
          "system": "http://unitsofmeasure.org",
          "value": 141.4,
          "unit": "mmol/L",
          "code": "mmol/L"
        },
        "referenceRange": [
          {
            "low": {
              "value": 135,
              "code": "mmol/L",
              "system": "http://unitsofmeasure.org"
            }
          },
          {
            "high": {
              "value": 145,
              "code": "mmol/L",
              "system": "http://unitsofmeasure.org"
            }
          }
        ],
        "text": {
          "status": "generated",
          "div": "<div xmlns=\"http://www.w3.org/1999/xhtml\"><table class=\"hl7__eu__lab__report\"><tr><th>Test</th><th>12-Jan-2016</th><th>Reference&#xA0;Range</th><th>Unit</th></tr><tr><td>Sodium [Moles/volume] in Blood</td><td>141.4</td><td>135 - 145</td><td></td><td>mmol/L</td></tr></table></div>"
        },
        "status": "final",
        "subject": {
          "reference": "urn:uuid:d8d51a61-459d-4473-ad7a-d45e48666569",
          "display": "Maria Nohlmans"
        },
        "effectiveDateTime": "2016-01-12T21:10:39Z",
        "specimen": {
          "reference": "urn:uuid:4703d895-689b-41d3-b62c-f62c98bf9a0e"
        }
      }
    },
    {
      "fullUrl": "urn:uuid:43154d4b-4b97-4d8f-a4cd-7230cef58fa3",
      "resource": {
        "resourceType": "Observation",
        "id": "43154d4b-4b97-4d8f-a4cd-7230cef58fa3",
        "meta": {
          "profile": [
            "http://hl7.eu/fhir/laboratory/StructureDefinition/Observation-resultslab-eu-lab"
          ]
        },
        "performer": [
          {
            "display": "The Central European Lab"
          }
        ],
        "category": [
          {
            "coding": [
              {
                "system": "http://terminology.hl7.org/CodeSystem/observation-category",
                "code": "laboratory"
              }
            ]
          }
        ],
        "code": {
          "coding": [
            {
              "code": "6298-4",
              "system": "http://loinc.org",
              "display": "Potassium [Moles/volume] in Blood"
            }
          ],
          "text": "Potassium [Moles/volume] in Blood"
        },
        "valueQuantity": {
          "system": "http://unitsofmeasure.org",
          "value": 4.3,
          "unit": "mmol/L",
          "code": "mmol/L"
        },
        "referenceRange": [
          {
            "low": {
              "value": 3.5,
              "code": "mmol/L",
              "system": "http://unitsofmeasure.org"
            }
          },
          {
            "high": {
              "value": 5.1,
              "code": "mmol/L",
              "system": "http://unitsofmeasure.org"
            }
          }
        ],
        "text": {
          "status": "generated",
          "div": "<div xmlns=\"http://www.w3.org/1999/xhtml\"><table class=\"hl7__eu__lab__report\"><tr><th>Test</th><th>12-Jan-2016</th><th>Reference&#xA0;Range</th><th>Unit</th></tr><tr><td>Potassium [Moles/volume] in Blood</td><td>4.3</td><td>3.5 - 5.1</td><td></td><td>mmol/L</td></tr></table></div>"
        },
        "status": "final",
        "subject": {
          "reference": "urn:uuid:d8d51a61-459d-4473-ad7a-d45e48666569",
          "display": "Maria Nohlmans"
        },
        "effectiveDateTime": "2016-01-12T21:10:39Z",
        "specimen": {
          "reference": "urn:uuid:4703d895-689b-41d3-b62c-f62c98bf9a0e"
        }
      }
    },
    {
      "fullUrl": "urn:uuid:78e62f26-77b3-4868-a55a-b01b93ff387e",
      "resource": {
        "resourceType": "Observation",
        "id": "78e62f26-77b3-4868-a55a-b01b93ff387e",
        "meta": {
          "profile": [
            "http://hl7.eu/fhir/laboratory/StructureDefinition/Observation-resultslab-eu-lab"
          ]
        },
        "performer": [
          {
            "display": "The Central European Lab"
          }
        ],
        "category": [
          {
            "coding": [
              {
                "system": "http://terminology.hl7.org/CodeSystem/observation-category",
                "code": "laboratory"
              }
            ]
          }
        ],
        "code": {
          "coding": [
            {
              "code": "2069-3",
              "system": "http://loinc.org",
              "display": "Chloride [Moles/volume] in Blood"
            }
          ],
          "text": "Chloride [Moles/volume] in Blood"
        },
        "valueQuantity": {
          "system": "http://unitsofmeasure.org",
          "value": 101.9,
          "unit": "mmol/L",
          "code": "mmol/L"
        },
        "referenceRange": [
          {
            "low": {
              "value": 98,
              "code": "mmol/L",
              "system": "http://unitsofmeasure.org"
            }
          },
          {
            "high": {
              "value": 114,
              "code": "mmol/L",
              "system": "http://unitsofmeasure.org"
            }
          }
        ],
        "text": {
          "status": "generated",
          "div": "<div xmlns=\"http://www.w3.org/1999/xhtml\"><table class=\"hl7__eu__lab__report\"><tr><th>Test</th><th>12-Jan-2016</th><th>Reference&#xA0;Range</th><th>Unit</th></tr><tr><td>Chloride [Moles/volume] in Blood</td><td>101.9</td><td>98 - 114</td><td></td><td>mmol/L</td></tr></table></div>"
        },
        "status": "final",
        "subject": {
          "reference": "urn:uuid:d8d51a61-459d-4473-ad7a-d45e48666569",
          "display": "Maria Nohlmans"
        },
        "effectiveDateTime": "2016-01-12T21:10:39Z",
        "specimen": {
          "reference": "urn:uuid:4703d895-689b-41d3-b62c-f62c98bf9a0e"
        }
      }
    },
    {
      "fullUrl": "urn:uuid:7ca63521-9e86-4a67-8957-ffdfc5bef03d",
      "resource": {
        "resourceType": "Observation",
        "id": "7ca63521-9e86-4a67-8957-ffdfc5bef03d",
        "meta": {
          "profile": [
            "http://hl7.eu/fhir/laboratory/StructureDefinition/Observation-resultslab-eu-lab"
          ]
        },
        "performer": [
          {
            "display": "The Central European Lab"
          }
        ],
        "category": [
          {
            "coding": [
              {
                "system": "http://terminology.hl7.org/CodeSystem/observation-category",
                "code": "laboratory"
              }
            ]
          }
        ],
        "code": {
          "coding": [
            {
              "code": "20565-8",
              "system": "http://loinc.org",
              "display": "Carbon dioxide, total [Moles/volume] in Blood"
            }
          ],
          "text": "Carbon dioxide, total [Moles/volume] in Blood"
        },
        "valueQuantity": {
          "system": "http://unitsofmeasure.org",
          "value": 23.6,
          "unit": "mmol/L",
          "code": "mmol/L"
        },
        "referenceRange": [
          {
            "low": {
              "value": 22,
              "code": "mmol/L",
              "system": "http://unitsofmeasure.org"
            }
          },
          {
            "high": {
              "value": 32,
              "code": "mmol/L",
              "system": "http://unitsofmeasure.org"
            }
          }
        ],
        "text": {
          "status": "generated",
          "div": "<div xmlns=\"http://www.w3.org/1999/xhtml\"><table class=\"hl7__eu__lab__report\"><tr><th>Test</th><th>12-Jan-2016</th><th>Reference&#xA0;Range</th><th>Unit</th></tr><tr><td>Carbon dioxide, total [Moles/volume] in Blood</td><td>23.6</td><td>22 - 32</td><td></td><td>mmol/L</td></tr></table></div>"
        },
        "status": "final",
        "subject": {
          "reference": "urn:uuid:d8d51a61-459d-4473-ad7a-d45e48666569",
          "display": "Maria Nohlmans"
        },
        "effectiveDateTime": "2016-01-12T21:10:39Z",
        "specimen": {
          "reference": "urn:uuid:4703d895-689b-41d3-b62c-f62c98bf9a0e"
        }
      }
    },
    {
      "fullUrl": "urn:uuid:5e107efb-d472-4b46-a43b-cf7132c9eb1b",
      "resource": {
        "resourceType": "Observation",
        "id": "5e107efb-d472-4b46-a43b-cf7132c9eb1b",
        "meta": {
          "profile": [
            "http://hl7.eu/fhir/laboratory/StructureDefinition/Observation-resultslab-eu-lab"
          ]
        },
        "performer": [
          {
            "display": "The Central European Lab"
          }
        ],
        "category": [
          {
            "coding": [
              {
                "system": "http://terminology.hl7.org/CodeSystem/observation-category",
                "code": "laboratory"
              }
            ]
          }
        ],
        "code": {
          "coding": [
            {
              "code": "2885-2",
              "system": "http://loinc.org",
              "display": "Protein [Mass/volume] in Serum or Plasma"
            }
          ],
          "text": "Protein [Mass/volume] in Serum or Plasma"
        },
        "valueQuantity": {
          "system": "http://unitsofmeasure.org",
          "value": 7,
          "unit": "g/dL",
          "code": "g/dL"
        },
        "referenceRange": [
          {
            "low": {
              "value": 6,
              "code": "g/dL",
              "system": "http://unitsofmeasure.org"
            }
          },
          {
            "high": {
              "value": 8.3,
              "code": "g/dL",
              "system": "http://unitsofmeasure.org"
            }
          }
        ],
        "text": {
          "status": "generated",
          "div": "<div xmlns=\"http://www.w3.org/1999/xhtml\"><table class=\"hl7__eu__lab__report\"><tr><th>Test</th><th>12-Jan-2016</th><th>Reference&#xA0;Range</th><th>Unit</th></tr><tr><td>Protein [Mass/volume] in Serum or Plasma</td><td>7.0</td><td>6 - 8.3</td><td></td><td>g/dL</td></tr></table></div>"
        },
        "status": "final",
        "subject": {
          "reference": "urn:uuid:d8d51a61-459d-4473-ad7a-d45e48666569",
          "display": "Maria Nohlmans"
        },
        "effectiveDateTime": "2016-01-12T21:10:39Z",
        "specimen": {
          "reference": "urn:uuid:8a9c899c-467e-496e-9b10-9025e14c067a"
        }
      }
    },
    {
      "fullUrl": "urn:uuid:5041bd70-589b-47ba-ac8a-9140eb43d0c9",
      "resource": {
        "resourceType": "Observation",
        "id": "5041bd70-589b-47ba-ac8a-9140eb43d0c9",
        "meta": {
          "profile": [
            "http://hl7.eu/fhir/laboratory/StructureDefinition/Observation-resultslab-eu-lab"
          ]
        },
        "performer": [
          {
            "display": "The Central European Lab"
          }
        ],
        "category": [
          {
            "coding": [
              {
                "system": "http://terminology.hl7.org/CodeSystem/observation-category",
                "code": "laboratory"
              }
            ]
          }
        ],
        "code": {
          "coding": [
            {
              "code": "1751-7",
              "system": "http://loinc.org",
              "display": "Albumin [Mass/volume] in Serum or Plasma"
            }
          ],
          "text": "Albumin [Mass/volume] in Serum or Plasma"
        },
        "valueQuantity": {
          "system": "http://unitsofmeasure.org",
          "value": 4.8,
          "unit": "g/dL",
          "code": "g/dL"
        },
        "referenceRange": [
          {
            "low": {
              "value": 3.5,
              "code": "g/dL",
              "system": "http://unitsofmeasure.org"
            }
          },
          {
            "high": {
              "value": 5.5,
              "code": "g/dL",
              "system": "http://unitsofmeasure.org"
            }
          }
        ],
        "text": {
          "status": "generated",
          "div": "<div xmlns=\"http://www.w3.org/1999/xhtml\"><table class=\"hl7__eu__lab__report\"><tr><th>Test</th><th>12-Jan-2016</th><th>Reference&#xA0;Range</th><th>Unit</th></tr><tr><td>Albumin [Mass/volume] in Serum or Plasma</td><td>4.8</td><td>3.5 - 5.5</td><td></td><td>g/dL</td></tr></table></div>"
        },
        "status": "final",
        "subject": {
          "reference": "urn:uuid:d8d51a61-459d-4473-ad7a-d45e48666569",
          "display": "Maria Nohlmans"
        },
        "effectiveDateTime": "2016-01-12T21:10:39Z",
        "specimen": {
          "reference": "urn:uuid:8a9c899c-467e-496e-9b10-9025e14c067a"
        }
      }
    },
    {
      "fullUrl": "urn:uuid:1e7b2fcb-7d91-4fca-b0b2-745d162fea92",
      "resource": {
        "resourceType": "Observation",
        "id": "1e7b2fcb-7d91-4fca-b0b2-745d162fea92",
        "meta": {
          "profile": [
            "http://hl7.eu/fhir/laboratory/StructureDefinition/Observation-resultslab-eu-lab"
          ]
        },
        "performer": [
          {
            "display": "The Central European Lab"
          }
        ],
        "category": [
          {
            "coding": [
              {
                "system": "http://terminology.hl7.org/CodeSystem/observation-category",
                "code": "laboratory"
              }
            ]
          }
        ],
        "code": {
          "coding": [
            {
              "code": "10834-0",
              "system": "http://loinc.org",
              "display": "Globulin [Mass/volume] in Serum by calculation"
            }
          ],
          "text": "Globulin [Mass/volume] in Serum by calculation"
        },
        "valueQuantity": {
          "system": "http://unitsofmeasure.org",
          "value": 2.8,
          "unit": "g/L",
          "code": "g/L"
        },
        "referenceRange": [
          {
            "low": {
              "value": 2,
              "code": "g/L",
              "system": "http://unitsofmeasure.org"
            }
          },
          {
            "high": {
              "value": 3.5,
              "code": "g/L",
              "system": "http://unitsofmeasure.org"
            }
          }
        ],
        "text": {
          "status": "generated",
          "div": "<div xmlns=\"http://www.w3.org/1999/xhtml\"><table class=\"hl7__eu__lab__report\"><tr><th>Test</th><th>12-Jan-2016</th><th>Reference&#xA0;Range</th><th>Unit</th></tr><tr><td>Globulin [Mass/volume] in Serum by calculation</td><td>2.8</td><td>2 - 3.5</td><td></td><td>g/L</td></tr></table></div>"
        },
        "status": "final",
        "subject": {
          "reference": "urn:uuid:d8d51a61-459d-4473-ad7a-d45e48666569",
          "display": "Maria Nohlmans"
        },
        "effectiveDateTime": "2016-01-12T21:10:39Z",
        "specimen": {
          "reference": "urn:uuid:be0a5e2b-2152-4366-9fed-9896a36fbd9d"
        }
      }
    },
    {
      "fullUrl": "urn:uuid:29b2eacb-29db-4389-a2b0-62fc167a010e",
      "resource": {
        "resourceType": "Observation",
        "id": "29b2eacb-29db-4389-a2b0-62fc167a010e",
        "meta": {
          "profile": [
            "http://hl7.eu/fhir/laboratory/StructureDefinition/Observation-resultslab-eu-lab"
          ]
        },
        "performer": [
          {
            "display": "The Central European Lab"
          }
        ],
        "category": [
          {
            "coding": [
              {
                "system": "http://terminology.hl7.org/CodeSystem/observation-category",
                "code": "laboratory"
              }
            ]
          }
        ],
        "code": {
          "coding": [
            {
              "code": "1975-2",
              "system": "http://loinc.org",
              "display": "Bilirubin.total [Mass/volume] in Serum or Plasma"
            }
          ],
          "text": "Bilirubin.total [Mass/volume] in Serum or Plasma"
        },
        "valueQuantity": {
          "system": "http://unitsofmeasure.org",
          "value": 0.3,
          "unit": "mg/dL",
          "code": "mg/dL"
        },
        "referenceRange": [
          {
            "low": {
              "value": 0.3,
              "code": "mg/dL",
              "system": "http://unitsofmeasure.org"
            }
          },
          {
            "high": {
              "value": 1.2,
              "code": "mg/dL",
              "system": "http://unitsofmeasure.org"
            }
          }
        ],
        "text": {
          "status": "generated",
          "div": "<div xmlns=\"http://www.w3.org/1999/xhtml\"><table class=\"hl7__eu__lab__report\"><tr><th>Test</th><th>12-Jan-2016</th><th>Reference&#xA0;Range</th><th>Unit</th></tr><tr><td>Bilirubin.total [Mass/volume] in Serum or Plasma</td><td>0.3</td><td>0.3 - 1.2</td><td></td><td>mg/dL</td></tr></table></div>"
        },
        "status": "final",
        "subject": {
          "reference": "urn:uuid:d8d51a61-459d-4473-ad7a-d45e48666569",
          "display": "Maria Nohlmans"
        },
        "effectiveDateTime": "2016-01-12T21:10:39Z",
        "specimen": {
          "reference": "urn:uuid:8a9c899c-467e-496e-9b10-9025e14c067a"
        }
      }
    },
    {
      "fullUrl": "urn:uuid:22331a69-6861-4301-ab9a-924924db9b3d",
      "resource": {
        "resourceType": "Observation",
        "id": "22331a69-6861-4301-ab9a-924924db9b3d",
        "meta": {
          "profile": [
            "http://hl7.eu/fhir/laboratory/StructureDefinition/Observation-resultslab-eu-lab"
          ]
        },
        "performer": [
          {
            "display": "The Central European Lab"
          }
        ],
        "category": [
          {
            "coding": [
              {
                "system": "http://terminology.hl7.org/CodeSystem/observation-category",
                "code": "laboratory"
              }
            ]
          }
        ],
        "code": {
          "coding": [
            {
              "code": "6768-6",
              "system": "http://loinc.org",
              "display": "Alkaline phosphatase [Enzymatic activity/volume] in Serum or Plasma"
            }
          ],
          "text": "Alkaline phosphatase [Enzymatic activity/volume] in Serum or Plasma"
        },
        "valueQuantity": {
          "system": "http://unitsofmeasure.org",
          "value": 62.9,
          "unit": "U/L",
          "code": "U/L"
        },
        "referenceRange": [
          {
            "low": {
              "value": 44,
              "code": "U/L",
              "system": "http://unitsofmeasure.org"
            }
          },
          {
            "high": {
              "value": 142,
              "code": "U/L",
              "system": "http://unitsofmeasure.org"
            }
          }
        ],
        "text": {
          "status": "generated",
          "div": "<div xmlns=\"http://www.w3.org/1999/xhtml\"><table class=\"hl7__eu__lab__report\"><tr><th>Test</th><th>12-Jan-2016</th><th>Reference&#xA0;Range</th><th>Unit</th></tr><tr><td>Alkaline phosphatase [Enzymatic activity/volume] in Serum or Plasma</td><td>62.9</td><td>44 - 142</td><td></td><td>U/L</td></tr></table></div>"
        },
        "status": "final",
        "subject": {
          "reference": "urn:uuid:d8d51a61-459d-4473-ad7a-d45e48666569",
          "display": "Maria Nohlmans"
        },
        "effectiveDateTime": "2016-01-12T21:10:39Z",
        "specimen": {
          "reference": "urn:uuid:8a9c899c-467e-496e-9b10-9025e14c067a"
        }
      }
    },
    {
      "fullUrl": "urn:uuid:30d24836-88a3-43fd-9d66-688cc9c290f3",
      "resource": {
        "resourceType": "Observation",
        "id": "30d24836-88a3-43fd-9d66-688cc9c290f3",
        "meta": {
          "profile": [
            "http://hl7.eu/fhir/laboratory/StructureDefinition/Observation-resultslab-eu-lab"
          ]
        },
        "performer": [
          {
            "display": "The Central European Lab"
          }
        ],
        "category": [
          {
            "coding": [
              {
                "system": "http://terminology.hl7.org/CodeSystem/observation-category",
                "code": "laboratory"
              }
            ]
          }
        ],
        "code": {
          "coding": [
            {
              "code": "1742-6",
              "system": "http://loinc.org",
              "display": "Alanine aminotransferase [Enzymatic activity/volume] in Serum or Plasma"
            }
          ],
          "text": "Alanine aminotransferase [Enzymatic activity/volume] in Serum or Plasma"
        },
        "valueQuantity": {
          "system": "http://unitsofmeasure.org",
          "value": 50.4,
          "unit": "U/L",
          "code": "U/L"
        },
        "referenceRange": [
          {
            "low": {
              "value": 7,
              "code": "U/L",
              "system": "http://unitsofmeasure.org"
            }
          },
          {
            "high": {
              "value": 40,
              "code": "U/L",
              "system": "http://unitsofmeasure.org"
            }
          }
        ],
        "interpretation": [
          {
            "coding": [
              {
                "code": "H",
                "system": "http://terminology.hl7.org/CodeSystem/v3-ObservationInterpretation",
                "display": "High"
              }
            ]
          }
        ],
        "text": {
          "status": "generated",
          "div": "<div xmlns=\"http://www.w3.org/1999/xhtml\"><table class=\"hl7__eu__lab__report\"><tr><th>Test</th><th>12-Jan-2016</th><th>Reference&#xA0;Range</th><th>Unit</th></tr><tr><td>Alanine aminotransferase [Enzymatic activity/volume] in Serum or Plasma</td><td>50.4</td><td>7 - 40</td><td>H</td><td>U/L</td></tr></table></div>"
        },
        "status": "final",
        "subject": {
          "reference": "urn:uuid:d8d51a61-459d-4473-ad7a-d45e48666569",
          "display": "Maria Nohlmans"
        },
        "effectiveDateTime": "2016-01-12T21:10:39Z",
        "specimen": {
          "reference": "urn:uuid:8a9c899c-467e-496e-9b10-9025e14c067a"
        }
      }
    },
    {
      "fullUrl": "urn:uuid:1a77f540-c6da-4362-804f-533eba50cbd8",
      "resource": {
        "resourceType": "Observation",
        "id": "1a77f540-c6da-4362-804f-533eba50cbd8",
        "meta": {
          "profile": [
            "http://hl7.eu/fhir/laboratory/StructureDefinition/Observation-resultslab-eu-lab"
          ]
        },
        "performer": [
          {
            "display": "The Central European Lab"
          }
        ],
        "category": [
          {
            "coding": [
              {
                "system": "http://terminology.hl7.org/CodeSystem/observation-category",
                "code": "laboratory"
              }
            ]
          }
        ],
        "code": {
          "coding": [
            {
              "code": "1920-8",
              "system": "http://loinc.org",
              "display": "Aspartate aminotransferase [Enzymatic activity/volume] in Serum or Plasma"
            }
          ],
          "text": "Aspartate aminotransferase [Enzymatic activity/volume] in Serum or Plasma"
        },
        "valueQuantity": {
          "system": "http://unitsofmeasure.org",
          "value": 11.1,
          "unit": "U/L",
          "code": "U/L"
        },
        "referenceRange": [
          {
            "low": {
              "value": 10,
              "code": "U/L",
              "system": "http://unitsofmeasure.org"
            }
          },
          {
            "high": {
              "value": 40,
              "code": "U/L",
              "system": "http://unitsofmeasure.org"
            }
          }
        ],
        "text": {
          "status": "generated",
          "div": "<div xmlns=\"http://www.w3.org/1999/xhtml\"><table class=\"hl7__eu__lab__report\"><tr><th>Test</th><th>12-Jan-2016</th><th>Reference&#xA0;Range</th><th>Unit</th></tr><tr><td>Aspartate aminotransferase [Enzymatic activity/volume] in Serum or Plasma</td><td>11.1</td><td>10 - 40</td><td></td><td>U/L</td></tr></table></div>"
        },
        "status": "final",
        "subject": {
          "reference": "urn:uuid:d8d51a61-459d-4473-ad7a-d45e48666569",
          "display": "Maria Nohlmans"
        },
        "effectiveDateTime": "2016-01-12T21:10:39Z",
        "specimen": {
          "reference": "urn:uuid:8a9c899c-467e-496e-9b10-9025e14c067a"
        }
      }
    },
    {
      "fullUrl": "urn:uuid:29d37d45-96b3-4c23-b2ff-ac4113677cea",
      "resource": {
        "resourceType": "Observation",
        "id": "29d37d45-96b3-4c23-b2ff-ac4113677cea",
        "meta": {
          "profile": [
            "http://hl7.eu/fhir/laboratory/StructureDefinition/Observation-resultslab-eu-lab"
          ]
        },
        "performer": [
          {
            "display": "The Central European Lab"
          }
        ],
        "category": [
          {
            "coding": [
              {
                "system": "http://terminology.hl7.org/CodeSystem/observation-category",
                "code": "laboratory"
              }
            ]
          }
        ],
        "code": {
          "coding": [
            {
              "code": "5767-9",
              "system": "http://loinc.org",
              "display": "Appearance of Urine"
            }
          ],
          "text": "Appearance of Urine"
        },
        "text": {
          "status": "generated",
          "div": "<div xmlns=\"http://www.w3.org/1999/xhtml\"><table class=\"hl7__eu__lab__report\"><tr><th>Test</th><th>12-Jan-2016</th><th>Reference&#xA0;Range</th><th>Unit</th></tr><tr><td>Appearance of Urine</td></tr></table></div>"
        },
        "status": "final",
        "subject": {
          "reference": "urn:uuid:d8d51a61-459d-4473-ad7a-d45e48666569",
          "display": "Maria Nohlmans"
        },
        "effectiveDateTime": "2016-01-12T21:10:39Z",
        "specimen": {
          "reference": "urn:uuid:429d3796-9b18-45fc-b791-e0016d0d298e"
        }
      }
    },
    {
      "fullUrl": "urn:uuid:abfff63c-8229-42c2-91a6-a2150ba1146c",
      "resource": {
        "resourceType": "Observation",
        "id": "abfff63c-8229-42c2-91a6-a2150ba1146c",
        "meta": {
          "profile": [
            "http://hl7.eu/fhir/laboratory/StructureDefinition/Observation-resultslab-eu-lab"
          ]
        },
        "performer": [
          {
            "display": "The Central European Lab"
          }
        ],
        "category": [
          {
            "coding": [
              {
                "system": "http://terminology.hl7.org/CodeSystem/observation-category",
                "code": "laboratory"
              }
            ]
          }
        ],
        "code": {
          "coding": [
            {
              "code": "34533-0",
              "system": "http://loinc.org",
              "display": "Odor of Urine"
            }
          ],
          "text": "Odor of Urine"
        },
        "text": {
          "status": "generated",
          "div": "<div xmlns=\"http://www.w3.org/1999/xhtml\"><table class=\"hl7__eu__lab__report\"><tr><th>Test</th><th>12-Jan-2016</th><th>Reference&#xA0;Range</th><th>Unit</th></tr><tr><td>Odor of Urine</td></tr></table></div>"
        },
        "status": "final",
        "subject": {
          "reference": "urn:uuid:d8d51a61-459d-4473-ad7a-d45e48666569",
          "display": "Maria Nohlmans"
        },
        "effectiveDateTime": "2016-01-12T21:10:39Z",
        "specimen": {
          "reference": "urn:uuid:429d3796-9b18-45fc-b791-e0016d0d298e"
        }
      }
    },
    {
      "fullUrl": "urn:uuid:123d0932-c486-4522-84ae-8d4c44437f4c",
      "resource": {
        "resourceType": "Observation",
        "id": "123d0932-c486-4522-84ae-8d4c44437f4c",
        "meta": {
          "profile": [
            "http://hl7.eu/fhir/laboratory/StructureDefinition/Observation-resultslab-eu-lab"
          ]
        },
        "performer": [
          {
            "display": "The Central European Lab"
          }
        ],
        "category": [
          {
            "coding": [
              {
                "system": "http://terminology.hl7.org/CodeSystem/observation-category",
                "code": "laboratory"
              }
            ]
          }
        ],
        "code": {
          "coding": [
            {
              "code": "32167-9",
              "system": "http://loinc.org",
              "display": "Clarity of Urine"
            }
          ],
          "text": "Clarity of Urine"
        },
        "text": {
          "status": "generated",
          "div": "<div xmlns=\"http://www.w3.org/1999/xhtml\"><table class=\"hl7__eu__lab__report\"><tr><th>Test</th><th>12-Jan-2016</th><th>Reference&#xA0;Range</th><th>Unit</th></tr><tr><td>Clarity of Urine</td></tr></table></div>"
        },
        "status": "final",
        "subject": {
          "reference": "urn:uuid:d8d51a61-459d-4473-ad7a-d45e48666569",
          "display": "Maria Nohlmans"
        },
        "effectiveDateTime": "2016-01-12T21:10:39Z",
        "specimen": {
          "reference": "urn:uuid:429d3796-9b18-45fc-b791-e0016d0d298e"
        }
      }
    },
    {
      "fullUrl": "urn:uuid:72a78438-d25e-44f7-a9e9-b7be4626dde4",
      "resource": {
        "resourceType": "Observation",
        "id": "72a78438-d25e-44f7-a9e9-b7be4626dde4",
        "meta": {
          "profile": [
            "http://hl7.eu/fhir/laboratory/StructureDefinition/Observation-resultslab-eu-lab"
          ]
        },
        "performer": [
          {
            "display": "The Central European Lab"
          }
        ],
        "category": [
          {
            "coding": [
              {
                "system": "http://terminology.hl7.org/CodeSystem/observation-category",
                "code": "laboratory"
              }
            ]
          }
        ],
        "code": {
          "coding": [
            {
              "code": "5778-6",
              "system": "http://loinc.org",
              "display": "Color of Urine"
            }
          ],
          "text": "Color of Urine"
        },
        "text": {
          "status": "generated",
          "div": "<div xmlns=\"http://www.w3.org/1999/xhtml\"><table class=\"hl7__eu__lab__report\"><tr><th>Test</th><th>12-Jan-2016</th><th>Reference&#xA0;Range</th><th>Unit</th></tr><tr><td>Color of Urine</td></tr></table></div>"
        },
        "status": "final",
        "subject": {
          "reference": "urn:uuid:d8d51a61-459d-4473-ad7a-d45e48666569",
          "display": "Maria Nohlmans"
        },
        "effectiveDateTime": "2016-01-12T21:10:39Z",
        "specimen": {
          "reference": "urn:uuid:429d3796-9b18-45fc-b791-e0016d0d298e"
        }
      }
    },
    {
      "fullUrl": "urn:uuid:9284c25a-b292-4b64-b117-50a8d36082c5",
      "resource": {
        "resourceType": "Observation",
        "id": "9284c25a-b292-4b64-b117-50a8d36082c5",
        "meta": {
          "profile": [
            "http://hl7.eu/fhir/laboratory/StructureDefinition/Observation-resultslab-eu-lab"
          ]
        },
        "performer": [
          {
            "display": "The Central European Lab"
          }
        ],
        "category": [
          {
            "coding": [
              {
                "system": "http://terminology.hl7.org/CodeSystem/observation-category",
                "code": "laboratory"
              }
            ]
          }
        ],
        "code": {
          "coding": [
            {
              "code": "5792-7",
              "system": "http://loinc.org",
              "display": "Glucose [Mass/volume] in Urine by Test strip"
            }
          ],
          "text": "Glucose [Mass/volume] in Urine by Test strip"
        },
        "valueQuantity": {
          "system": "http://unitsofmeasure.org",
          "value": 0.8,
          "unit": "mg/dL",
          "code": "mg/dL"
        },
        "referenceRange": [
          {
            "low": {
              "value": 0.8,
              "code": "mg/dL",
              "system": "http://unitsofmeasure.org"
            }
          },
          {
            "high": {
              "value": 0,
              "code": "mg/dL",
              "system": "http://unitsofmeasure.org"
            }
          }
        ],
        "interpretation": [
          {
            "coding": [
              {
                "code": "H",
                "system": "http://terminology.hl7.org/CodeSystem/v3-ObservationInterpretation",
                "display": "High"
              }
            ]
          }
        ],
        "text": {
          "status": "generated",
          "div": "<div xmlns=\"http://www.w3.org/1999/xhtml\"><table class=\"hl7__eu__lab__report\"><tr><th>Test</th><th>12-Jan-2016</th><th>Reference&#xA0;Range</th><th>Unit</th></tr><tr><td>Glucose [Mass/volume] in Urine by Test strip</td><td>0.8</td><td>0.8 - 0</td><td>H</td><td>mg/dL</td></tr></table></div>"
        },
        "status": "final",
        "subject": {
          "reference": "urn:uuid:d8d51a61-459d-4473-ad7a-d45e48666569",
          "display": "Maria Nohlmans"
        },
        "effectiveDateTime": "2016-01-12T21:10:39Z",
        "specimen": {
          "reference": "urn:uuid:429d3796-9b18-45fc-b791-e0016d0d298e"
        }
      }
    },
    {
      "fullUrl": "urn:uuid:33503cd9-cc1b-45ba-8b72-d6f15efc6ee8",
      "resource": {
        "resourceType": "Observation",
        "id": "33503cd9-cc1b-45ba-8b72-d6f15efc6ee8",
        "meta": {
          "profile": [
            "http://hl7.eu/fhir/laboratory/StructureDefinition/Observation-resultslab-eu-lab"
          ]
        },
        "performer": [
          {
            "display": "The Central European Lab"
          }
        ],
        "category": [
          {
            "coding": [
              {
                "system": "http://terminology.hl7.org/CodeSystem/observation-category",
                "code": "laboratory"
              }
            ]
          }
        ],
        "code": {
          "coding": [
            {
              "code": "25428-4",
              "system": "http://loinc.org",
              "display": "Glucose [Presence] in Urine by Test strip"
            }
          ],
          "text": "Glucose [Presence] in Urine by Test strip"
        },
        "text": {
          "status": "generated",
          "div": "<div xmlns=\"http://www.w3.org/1999/xhtml\"><table class=\"hl7__eu__lab__report\"><tr><th>Test</th><th>12-Jan-2016</th><th>Reference&#xA0;Range</th><th>Unit</th></tr><tr><td>Glucose [Presence] in Urine by Test strip</td></tr></table></div>"
        },
        "status": "final",
        "subject": {
          "reference": "urn:uuid:d8d51a61-459d-4473-ad7a-d45e48666569",
          "display": "Maria Nohlmans"
        },
        "effectiveDateTime": "2016-01-12T21:10:39Z",
        "specimen": {
          "reference": "urn:uuid:429d3796-9b18-45fc-b791-e0016d0d298e"
        }
      }
    },
    {
      "fullUrl": "urn:uuid:71ca57d3-8187-4ef8-b83d-ddc1844458a3",
      "resource": {
        "resourceType": "Observation",
        "id": "71ca57d3-8187-4ef8-b83d-ddc1844458a3",
        "meta": {
          "profile": [
            "http://hl7.eu/fhir/laboratory/StructureDefinition/Observation-resultslab-eu-lab"
          ]
        },
        "performer": [
          {
            "display": "The Central European Lab"
          }
        ],
        "category": [
          {
            "coding": [
              {
                "system": "http://terminology.hl7.org/CodeSystem/observation-category",
                "code": "laboratory"
              }
            ]
          }
        ],
        "code": {
          "coding": [
            {
              "code": "20505-4",
              "system": "http://loinc.org",
              "display": "Bilirubin.total [Mass/volume] in Urine by Test strip"
            }
          ],
          "text": "Bilirubin.total [Mass/volume] in Urine by Test strip"
        },
        "valueQuantity": {
          "system": "http://unitsofmeasure.org",
          "value": 0.4,
          "unit": "mg/dL",
          "code": "mg/dL"
        },
        "referenceRange": [
          {
            "low": {
              "value": 0,
              "code": "mg/dL",
              "system": "http://unitsofmeasure.org"
            }
          },
          {
            "high": {
              "value": 1.5,
              "code": "mg/dL",
              "system": "http://unitsofmeasure.org"
            }
          }
        ],
        "text": {
          "status": "generated",
          "div": "<div xmlns=\"http://www.w3.org/1999/xhtml\"><table class=\"hl7__eu__lab__report\"><tr><th>Test</th><th>12-Jan-2016</th><th>Reference&#xA0;Range</th><th>Unit</th></tr><tr><td>Bilirubin.total [Mass/volume] in Urine by Test strip</td><td>0.4</td><td>0 - 1.5</td><td></td><td>mg/dL</td></tr></table></div>"
        },
        "status": "final",
        "subject": {
          "reference": "urn:uuid:d8d51a61-459d-4473-ad7a-d45e48666569",
          "display": "Maria Nohlmans"
        },
        "effectiveDateTime": "2016-01-12T21:10:39Z",
        "specimen": {
          "reference": "urn:uuid:429d3796-9b18-45fc-b791-e0016d0d298e"
        }
      }
    },
    {
      "fullUrl": "urn:uuid:0761023a-881f-4f1a-b701-b77a940b2599",
      "resource": {
        "resourceType": "Observation",
        "id": "0761023a-881f-4f1a-b701-b77a940b2599",
        "meta": {
          "profile": [
            "http://hl7.eu/fhir/laboratory/StructureDefinition/Observation-resultslab-eu-lab"
          ]
        },
        "performer": [
          {
            "display": "The Central European Lab"
          }
        ],
        "category": [
          {
            "coding": [
              {
                "system": "http://terminology.hl7.org/CodeSystem/observation-category",
                "code": "laboratory"
              }
            ]
          }
        ],
        "code": {
          "coding": [
            {
              "code": "5770-3",
              "system": "http://loinc.org",
              "display": "Bilirubin.total [Presence] in Urine by Test strip"
            }
          ],
          "text": "Bilirubin.total [Presence] in Urine by Test strip"
        },
        "text": {
          "status": "generated",
          "div": "<div xmlns=\"http://www.w3.org/1999/xhtml\"><table class=\"hl7__eu__lab__report\"><tr><th>Test</th><th>12-Jan-2016</th><th>Reference&#xA0;Range</th><th>Unit</th></tr><tr><td>Bilirubin.total [Presence] in Urine by Test strip</td></tr></table></div>"
        },
        "status": "final",
        "subject": {
          "reference": "urn:uuid:d8d51a61-459d-4473-ad7a-d45e48666569",
          "display": "Maria Nohlmans"
        },
        "effectiveDateTime": "2016-01-12T21:10:39Z",
        "specimen": {
          "reference": "urn:uuid:429d3796-9b18-45fc-b791-e0016d0d298e"
        }
      }
    },
    {
      "fullUrl": "urn:uuid:bd470f75-6702-4c21-a04d-818a9b30123f",
      "resource": {
        "resourceType": "Observation",
        "id": "bd470f75-6702-4c21-a04d-818a9b30123f",
        "meta": {
          "profile": [
            "http://hl7.eu/fhir/laboratory/StructureDefinition/Observation-resultslab-eu-lab"
          ]
        },
        "performer": [
          {
            "display": "The Central European Lab"
          }
        ],
        "category": [
          {
            "coding": [
              {
                "system": "http://terminology.hl7.org/CodeSystem/observation-category",
                "code": "laboratory"
              }
            ]
          }
        ],
        "code": {
          "coding": [
            {
              "code": "5797-6",
              "system": "http://loinc.org",
              "display": "Ketones [Mass/volume] in Urine by Test strip"
            }
          ],
          "text": "Ketones [Mass/volume] in Urine by Test strip"
        },
        "valueQuantity": {
          "system": "http://unitsofmeasure.org",
          "value": 3.4,
          "unit": "mg/dL",
          "code": "mg/dL"
        },
        "referenceRange": [
          {
            "low": {
              "value": 0,
              "code": "mg/dL",
              "system": "http://unitsofmeasure.org"
            }
          },
          {
            "high": {
              "value": 8,
              "code": "mg/dL",
              "system": "http://unitsofmeasure.org"
            }
          }
        ],
        "text": {
          "status": "generated",
          "div": "<div xmlns=\"http://www.w3.org/1999/xhtml\"><table class=\"hl7__eu__lab__report\"><tr><th>Test</th><th>12-Jan-2016</th><th>Reference&#xA0;Range</th><th>Unit</th></tr><tr><td>Ketones [Mass/volume] in Urine by Test strip</td><td>3.4</td><td>0 - 8</td><td></td><td>mg/dL</td></tr></table></div>"
        },
        "status": "final",
        "subject": {
          "reference": "urn:uuid:d8d51a61-459d-4473-ad7a-d45e48666569",
          "display": "Maria Nohlmans"
        },
        "effectiveDateTime": "2016-01-12T21:10:39Z",
        "specimen": {
          "reference": "urn:uuid:429d3796-9b18-45fc-b791-e0016d0d298e"
        }
      }
    },
    {
      "fullUrl": "urn:uuid:12048b3b-ffc8-4973-a34a-cf5e99fa93a8",
      "resource": {
        "resourceType": "Observation",
        "id": "12048b3b-ffc8-4973-a34a-cf5e99fa93a8",
        "meta": {
          "profile": [
            "http://hl7.eu/fhir/laboratory/StructureDefinition/Observation-resultslab-eu-lab"
          ]
        },
        "performer": [
          {
            "display": "The Central European Lab"
          }
        ],
        "category": [
          {
            "coding": [
              {
                "system": "http://terminology.hl7.org/CodeSystem/observation-category",
                "code": "laboratory"
              }
            ]
          }
        ],
        "code": {
          "coding": [
            {
              "code": "2514-8",
              "system": "http://loinc.org",
              "display": "Ketones [Presence] in Urine by Test strip"
            }
          ],
          "text": "Ketones [Presence] in Urine by Test strip"
        },
        "text": {
          "status": "generated",
          "div": "<div xmlns=\"http://www.w3.org/1999/xhtml\"><table class=\"hl7__eu__lab__report\"><tr><th>Test</th><th>12-Jan-2016</th><th>Reference&#xA0;Range</th><th>Unit</th></tr><tr><td>Ketones [Presence] in Urine by Test strip</td></tr></table></div>"
        },
        "status": "final",
        "subject": {
          "reference": "urn:uuid:d8d51a61-459d-4473-ad7a-d45e48666569",
          "display": "Maria Nohlmans"
        },
        "effectiveDateTime": "2016-01-12T21:10:39Z",
        "specimen": {
          "reference": "urn:uuid:429d3796-9b18-45fc-b791-e0016d0d298e"
        }
      }
    },
    {
      "fullUrl": "urn:uuid:7a06b7e1-1ca3-4789-bfce-eb0d8d0ca2b4",
      "resource": {
        "resourceType": "Observation",
        "id": "7a06b7e1-1ca3-4789-bfce-eb0d8d0ca2b4",
        "meta": {
          "profile": [
            "http://hl7.eu/fhir/laboratory/StructureDefinition/Observation-resultslab-eu-lab"
          ]
        },
        "performer": [
          {
            "display": "The Central European Lab"
          }
        ],
        "category": [
          {
            "coding": [
              {
                "system": "http://terminology.hl7.org/CodeSystem/observation-category",
                "code": "laboratory"
              }
            ]
          }
        ],
        "code": {
          "coding": [
            {
              "code": "5811-5",
              "system": "http://loinc.org",
              "display": "Specific gravity of Urine by Test strip"
            }
          ],
          "text": "Specific gravity of Urine by Test strip"
        },
        "valueQuantity": {
          "system": "http://unitsofmeasure.org",
          "value": 1,
          "unit": "{nominal}",
          "code": "{nominal}"
        },
        "referenceRange": [
          {
            "low": {
              "value": 1.01,
              "code": "g/mL",
              "system": "http://unitsofmeasure.org"
            }
          },
          {
            "high": {
              "value": 1.03,
              "code": "g/mL",
              "system": "http://unitsofmeasure.org"
            }
          }
        ],
        "interpretation": [
          {
            "coding": [
              {
                "code": "L",
                "system": "http://terminology.hl7.org/CodeSystem/v3-ObservationInterpretation",
                "display": "Low"
              }
            ]
          }
        ],
        "text": {
          "status": "generated",
          "div": "<div xmlns=\"http://www.w3.org/1999/xhtml\"><table class=\"hl7__eu__lab__report\"><tr><th>Test</th><th>12-Jan-2016</th><th>Reference&#xA0;Range</th><th>Unit</th></tr><tr><td>Specific gravity of Urine by Test strip</td><td>1.0</td><td>1.01 - 1.03</td><td>L</td><td>{nominal}</td></tr></table></div>"
        },
        "status": "final",
        "subject": {
          "reference": "urn:uuid:d8d51a61-459d-4473-ad7a-d45e48666569",
          "display": "Maria Nohlmans"
        },
        "effectiveDateTime": "2016-01-12T21:10:39Z",
        "specimen": {
          "reference": "urn:uuid:429d3796-9b18-45fc-b791-e0016d0d298e"
        }
      }
    },
    {
      "fullUrl": "urn:uuid:4081ca14-fca5-4b9a-9671-cb421deaa595",
      "resource": {
        "resourceType": "Observation",
        "id": "4081ca14-fca5-4b9a-9671-cb421deaa595",
        "meta": {
          "profile": [
            "http://hl7.eu/fhir/laboratory/StructureDefinition/Observation-resultslab-eu-lab"
          ]
        },
        "performer": [
          {
            "display": "The Central European Lab"
          }
        ],
        "category": [
          {
            "coding": [
              {
                "system": "http://terminology.hl7.org/CodeSystem/observation-category",
                "code": "laboratory"
              }
            ]
          }
        ],
        "code": {
          "coding": [
            {
              "code": "5803-2",
              "system": "http://loinc.org",
              "display": "pH of Urine by Test strip"
            }
          ],
          "text": "pH of Urine by Test strip"
        },
        "valueQuantity": {
          "system": "http://unitsofmeasure.org",
          "value": 6.5,
          "unit": "pH",
          "code": "pH"
        },
        "referenceRange": [
          {
            "low": {
              "value": 4.6,
              "code": "pH",
              "system": "http://unitsofmeasure.org"
            }
          },
          {
            "high": {
              "value": 7.5,
              "code": "pH",
              "system": "http://unitsofmeasure.org"
            }
          }
        ],
        "text": {
          "status": "generated",
          "div": "<div xmlns=\"http://www.w3.org/1999/xhtml\"><table class=\"hl7__eu__lab__report\"><tr><th>Test</th><th>12-Jan-2016</th><th>Reference&#xA0;Range</th><th>Unit</th></tr><tr><td>pH of Urine by Test strip</td><td>6.5</td><td>4.6 - 7.5</td><td></td><td>pH</td></tr></table></div>"
        },
        "status": "final",
        "subject": {
          "reference": "urn:uuid:d8d51a61-459d-4473-ad7a-d45e48666569",
          "display": "Maria Nohlmans"
        },
        "effectiveDateTime": "2016-01-12T21:10:39Z",
        "specimen": {
          "reference": "urn:uuid:429d3796-9b18-45fc-b791-e0016d0d298e"
        }
      }
    },
    {
      "fullUrl": "urn:uuid:c4f5eacd-57ec-4bbf-aaf0-8a954c8b0ba9",
      "resource": {
        "resourceType": "Observation",
        "id": "c4f5eacd-57ec-4bbf-aaf0-8a954c8b0ba9",
        "meta": {
          "profile": [
            "http://hl7.eu/fhir/laboratory/StructureDefinition/Observation-resultslab-eu-lab"
          ]
        },
        "performer": [
          {
            "display": "The Central European Lab"
          }
        ],
        "category": [
          {
            "coding": [
              {
                "system": "http://terminology.hl7.org/CodeSystem/observation-category",
                "code": "laboratory"
              }
            ]
          }
        ],
        "code": {
          "coding": [
            {
              "code": "5804-0",
              "system": "http://loinc.org",
              "display": "Protein [Mass/volume] in Urine by Test strip"
            }
          ],
          "text": "Protein [Mass/volume] in Urine by Test strip"
        },
        "valueQuantity": {
          "system": "http://unitsofmeasure.org",
          "value": 350,
          "unit": "mg/dL",
          "code": "mg/dL"
        },
        "referenceRange": [
          {
            "low": {
              "value": 0,
              "code": "mg/dL",
              "system": "http://unitsofmeasure.org"
            }
          },
          {
            "high": {
              "value": 14,
              "code": "mg/dL",
              "system": "http://unitsofmeasure.org"
            }
          }
        ],
        "interpretation": [
          {
            "coding": [
              {
                "code": "H",
                "system": "http://terminology.hl7.org/CodeSystem/v3-ObservationInterpretation",
                "display": "High"
              }
            ]
          }
        ],
        "text": {
          "status": "generated",
          "div": "<div xmlns=\"http://www.w3.org/1999/xhtml\"><table class=\"hl7__eu__lab__report\"><tr><th>Test</th><th>12-Jan-2016</th><th>Reference&#xA0;Range</th><th>Unit</th></tr><tr><td>Protein [Mass/volume] in Urine by Test strip</td><td>350.0</td><td>0 - 14</td><td>H</td><td>mg/dL</td></tr></table></div>"
        },
        "status": "final",
        "subject": {
          "reference": "urn:uuid:d8d51a61-459d-4473-ad7a-d45e48666569",
          "display": "Maria Nohlmans"
        },
        "effectiveDateTime": "2016-01-12T21:10:39Z",
        "specimen": {
          "reference": "urn:uuid:429d3796-9b18-45fc-b791-e0016d0d298e"
        }
      }
    },
    {
      "fullUrl": "urn:uuid:03d1259c-dfcb-44df-97af-91af4c1aff3f",
      "resource": {
        "resourceType": "Observation",
        "id": "03d1259c-dfcb-44df-97af-91af4c1aff3f",
        "meta": {
          "profile": [
            "http://hl7.eu/fhir/laboratory/StructureDefinition/Observation-resultslab-eu-lab"
          ]
        },
        "performer": [
          {
            "display": "The Central European Lab"
          }
        ],
        "category": [
          {
            "coding": [
              {
                "system": "http://terminology.hl7.org/CodeSystem/observation-category",
                "code": "laboratory"
              }
            ]
          }
        ],
        "code": {
          "coding": [
            {
              "code": "20454-5",
              "system": "http://loinc.org",
              "display": "Protein [Presence] in Urine by Test strip"
            }
          ],
          "text": "Protein [Presence] in Urine by Test strip"
        },
        "text": {
          "status": "generated",
          "div": "<div xmlns=\"http://www.w3.org/1999/xhtml\"><table class=\"hl7__eu__lab__report\"><tr><th>Test</th><th>12-Jan-2016</th><th>Reference&#xA0;Range</th><th>Unit</th></tr><tr><td>Protein [Presence] in Urine by Test strip</td></tr></table></div>"
        },
        "status": "final",
        "subject": {
          "reference": "urn:uuid:d8d51a61-459d-4473-ad7a-d45e48666569",
          "display": "Maria Nohlmans"
        },
        "effectiveDateTime": "2016-01-12T21:10:39Z",
        "specimen": {
          "reference": "urn:uuid:429d3796-9b18-45fc-b791-e0016d0d298e"
        }
      }
    },
    {
      "fullUrl": "urn:uuid:723310c7-6130-4ca3-8e45-eb50e1af1bbf",
      "resource": {
        "resourceType": "Observation",
        "id": "723310c7-6130-4ca3-8e45-eb50e1af1bbf",
        "meta": {
          "profile": [
            "http://hl7.eu/fhir/laboratory/StructureDefinition/Observation-resultslab-eu-lab"
          ]
        },
        "performer": [
          {
            "display": "The Central European Lab"
          }
        ],
        "category": [
          {
            "coding": [
              {
                "system": "http://terminology.hl7.org/CodeSystem/observation-category",
                "code": "laboratory"
              }
            ]
          }
        ],
        "code": {
          "coding": [
            {
              "code": "5802-4",
              "system": "http://loinc.org",
              "display": "Nitrite [Presence] in Urine by Test strip"
            }
          ],
          "text": "Nitrite [Presence] in Urine by Test strip"
        },
        "text": {
          "status": "generated",
          "div": "<div xmlns=\"http://www.w3.org/1999/xhtml\"><table class=\"hl7__eu__lab__report\"><tr><th>Test</th><th>12-Jan-2016</th><th>Reference&#xA0;Range</th><th>Unit</th></tr><tr><td>Nitrite [Presence] in Urine by Test strip</td></tr></table></div>"
        },
        "status": "final",
        "subject": {
          "reference": "urn:uuid:d8d51a61-459d-4473-ad7a-d45e48666569",
          "display": "Maria Nohlmans"
        },
        "effectiveDateTime": "2016-01-12T21:10:39Z",
        "specimen": {
          "reference": "urn:uuid:429d3796-9b18-45fc-b791-e0016d0d298e"
        }
      }
    },
    {
      "fullUrl": "urn:uuid:ae02f599-55aa-4bb9-b197-4cd0ddd6ab74",
      "resource": {
        "resourceType": "Observation",
        "id": "ae02f599-55aa-4bb9-b197-4cd0ddd6ab74",
        "meta": {
          "profile": [
            "http://hl7.eu/fhir/laboratory/StructureDefinition/Observation-resultslab-eu-lab"
          ]
        },
        "performer": [
          {
            "display": "The Central European Lab"
          }
        ],
        "category": [
          {
            "coding": [
              {
                "system": "http://terminology.hl7.org/CodeSystem/observation-category",
                "code": "laboratory"
              }
            ]
          }
        ],
        "code": {
          "coding": [
            {
              "code": "5794-3",
              "system": "http://loinc.org",
              "display": "Hemoglobin [Presence] in Urine by Test strip"
            }
          ],
          "text": "Hemoglobin [Presence] in Urine by Test strip"
        },
        "text": {
          "status": "generated",
          "div": "<div xmlns=\"http://www.w3.org/1999/xhtml\"><table class=\"hl7__eu__lab__report\"><tr><th>Test</th><th>12-Jan-2016</th><th>Reference&#xA0;Range</th><th>Unit</th></tr><tr><td>Hemoglobin [Presence] in Urine by Test strip</td></tr></table></div>"
        },
        "status": "final",
        "subject": {
          "reference": "urn:uuid:d8d51a61-459d-4473-ad7a-d45e48666569",
          "display": "Maria Nohlmans"
        },
        "effectiveDateTime": "2016-01-12T21:10:39Z",
        "specimen": {
          "reference": "urn:uuid:429d3796-9b18-45fc-b791-e0016d0d298e"
        }
      }
    },
    {
      "fullUrl": "urn:uuid:b966efe7-c1d8-4dc3-b5a0-9a35d7e3bbcc",
      "resource": {
        "resourceType": "Observation",
        "id": "b966efe7-c1d8-4dc3-b5a0-9a35d7e3bbcc",
        "meta": {
          "profile": [
            "http://hl7.eu/fhir/laboratory/StructureDefinition/Observation-resultslab-eu-lab"
          ]
        },
        "performer": [
          {
            "display": "The Central European Lab"
          }
        ],
        "category": [
          {
            "coding": [
              {
                "system": "http://terminology.hl7.org/CodeSystem/observation-category",
                "code": "laboratory"
              }
            ]
          }
        ],
        "code": {
          "coding": [
            {
              "code": "5799-2",
              "system": "http://loinc.org",
              "display": "Leukocyte esterase [Presence] in Urine by Test strip"
            }
          ],
          "text": "Leukocyte esterase [Presence] in Urine by Test strip"
        },
        "text": {
          "status": "generated",
          "div": "<div xmlns=\"http://www.w3.org/1999/xhtml\"><table class=\"hl7__eu__lab__report\"><tr><th>Test</th><th>12-Jan-2016</th><th>Reference&#xA0;Range</th><th>Unit</th></tr><tr><td>Leukocyte esterase [Presence] in Urine by Test strip</td></tr></table></div>"
        },
        "status": "final",
        "subject": {
          "reference": "urn:uuid:d8d51a61-459d-4473-ad7a-d45e48666569",
          "display": "Maria Nohlmans"
        },
        "effectiveDateTime": "2016-01-12T21:10:39Z",
        "specimen": {
          "reference": "urn:uuid:429d3796-9b18-45fc-b791-e0016d0d298e"
        }
      }
    },
    {
      "fullUrl": "urn:uuid:70c5b86d-cd19-4715-a2f6-d1b4344b6e9d",
      "resource": {
        "resourceType": "Device",
        "id": "70c5b86d-cd19-4715-a2f6-d1b4344b6e9d",
        "deviceName": [
          {
            "name": "SYNDERAI Synthetic Generator",
            "type": "manufacturer-name"
          }
        ],
        "version": [
          {
            "value": "5.0"
          }
        ],
        "text": {
          "status": "generated",
          "div": "<div xmlns=\"http://www.w3.org/1999/xhtml\">SYNDERAI Synthetic Generator v5.0</div>"
        },
        "status": "active\"",
        "distinctIdentifier": "synderai-generator-50",
        "manufacturer": "SYNDERAI Project"
      }
    },
    {
      "fullUrl": "urn:uuid:410692e9-4ff3-46c2-949b-2175cd1ff21a",
      "resource": {
        "resourceType": "Provenance",
        "id": "410692e9-4ff3-46c2-949b-2175cd1ff21a",
        "target": [
          {
            "reference": "Patient/d8d51a61-459d-4473-ad7a-d45e48666569"
          },
          {
            "reference": "Bundle/0a30537a-004d-48a8-a15c-5c279c68da5a"
          },
          {
            "reference": "Composition/d1bfd826-cb60-4e85-ad19-0f384b078f18"
          },
          {
            "reference": "PractitionerRole/6430997c-b693-4bf8-bdca-a7e9f2681370"
          },
          {
            "reference": "Practitioner/e81c85f4-7a81-488f-88a5-725f6b4e9175"
          },
          {
            "reference": "PractitionerRole/41a284ed-aeb6-4035-8b90-f95aac9f2274"
          },
          {
            "reference": "Organization/01a7a45a-be61-434c-9e77-06cae435d069"
          }
        ],
        "activity": {
          "text": "Synthetic Example Data Generation"
        },
        "policy": [
          "https://synderai.net/synderai-synthetic-data-policy"
        ],
        "agent": [
          {
            "type": {
              "text": "author"
            },
            "who": {
              "reference": "Device/70c5b86d-cd19-4715-a2f6-d1b4344b6e9d"
            }
          }
        ],
        "reason": [
          {
            "text": "Interoperability Testing and Training (non-clinical use)"
          }
        ],
        "text": {
          "status": "generated",
          "div": "<div xmlns=\"http://www.w3.org/1999/xhtml\">Provenance for SYNDERAI Synthetic Example Data Resource</div>"
        },
        "recorded": "2016-01-12T22:10:39Z"
      }
    },
    {
      "fullUrl": "urn:uuid:6430997c-b693-4bf8-bdca-a7e9f2681370",
      "resource": {
        "resourceType": "PractitionerRole",
        "id": "6430997c-b693-4bf8-bdca-a7e9f2681370",
        "meta": {
          "profile": [
            "http://hl7.eu/fhir/base/StructureDefinition/practitionerRole-eu"
          ]
        },
        "text": {
          "status": "generated",
          "div": "<div xmlns=\"http://www.w3.org/1999/xhtml\">Laboratory Role Id: 6430997c-b693-4bf8-bdca-a7e9f2681370</div>"
        },
        "practitioner": {
          "reference": "urn:uuid:e81c85f4-7a81-488f-88a5-725f6b4e9175"
        }
      }
    },
    {
      "fullUrl": "urn:uuid:e81c85f4-7a81-488f-88a5-725f6b4e9175",
      "resource": {
        "resourceType": "Practitioner",
        "id": "e81c85f4-7a81-488f-88a5-725f6b4e9175",
        "meta": {
          "profile": [
            "http://hl7.eu/fhir/base/StructureDefinition/practitioner-eu"
          ]
        },
        "identifier": [
          {
            "assigner": {
              "display": "HL7 Europe"
            },
            "system": "urn:oid:2.16.840.1.113883.2.51.999",
            "value": "a3cb0b57-fdd6-4965-b71d-3c19f1fcbd6e"
          }
        ],
        "name": [
          {
            "prefix": [
              "dr"
            ],
            "given": [
              "Ex"
            ],
            "family": "Ample"
          }
        ],
        "address": [
          {
            "line": [
              "Laboratoire Central Européenne",
              "Boulevard du Jardin Botanique 32"
            ],
            "postalCode": "1000",
            "city": "Brussels",
            "country": "Belgium"
          }
        ],
        "text": {
          "status": "generated",
          "div": "<div xmlns=\"http://www.w3.org/1999/xhtml\">Laboratory: Laboratoire Central Européenne, 1000 Brussels, Belgium</div>"
        }
      }
    }
  ],
  "type": "document",
  "timestamp": "2016-01-12T22:10:39Z"
}
