<Bundle xmlns="http://hl7.org/fhir">
   <id value="989882a8-0540-4e76-b115-1d26a3118f26"/>
   <meta>
      <profile value="http://hl7.eu/fhir/laboratory/StructureDefinition/Bundle-eu-lab"/>
   </meta>
   <identifier>
      <system value="urn:oid:2.16.840.1.113883.2.51.999"/>
      <value value="ac273402-29c8-48e5-9ba0-e1c9f9c270dd"/>
      <assigner>
         <display value="HL7 Europe"/>
      </assigner>
   </identifier>
   <type value="document"/>
   <timestamp value="2024-02-15T07:54:36Z"/>
   <entry>
      <fullUrl value="urn:uuid:f288b18c-85e8-4617-95b8-20c9b6578568"/>
      <resource>
         <Composition>
            <id value="f288b18c-85e8-4617-95b8-20c9b6578568"/>
            <meta>
               <profile value="http://hl7.eu/fhir/laboratory/StructureDefinition/Composition-eu-lab"/>
            </meta>
            <identifier>
               <system value="urn:oid:2.16.840.1.113883.2.51.999"/>
               <value value="2f6b6a0d-4e37-429b-a285-627f13893c4a"/>
               <assigner>
                  <display value="HL7 Europe"/>
               </assigner>
            </identifier>
            <status value="final"/>
            <type>
               <coding>
                  <system value="http://loinc.org"/>
                  <code value="11502-2"/>
                  <display value="Laboratory report"/>
               </coding>
               <text value="Laboratory Report"/>
            </type>
            <category>
               <coding>
                  <system value="http://loinc.org"/>
                  <code value="26436-6"/>
                  <display value="Laboratory studies (set)"/>
               </coding>
            </category>
            <subject>
               <reference value="urn:uuid:97691299-45a8-41e5-902b-f5cb78d57b4b"/>
               <display value="Alfred Rémy"/>
            </subject>
            <date value="2024-02-15T07:54:36Z"/>
            <author>
               <reference value="urn:uuid:69588c84-e4e5-4def-89c8-f1ac284a5a9d"/>
            </author>
            <title value="Laboratory Report"/>
            <confidentiality value="N"/>
            <section>
               <title value="Laboratory Report"/>
               <code>
                  <coding>
                     <system value="http://loinc.org"/>
                     <code value="26436-6"/>
                     <display value="Laboratory studies (set)"/>
                  </coding>
                  <text value="Laboratory studies"/>
               </code>
               <section>
                  <title value="Chemistry"/>
                  <code>
                     <coding>
                        <system value="http://loinc.org"/>
                        <code value="$18719-5"/>
                        <display value="Chemistry studies (set)"/>
                     </coding>
                     <text value="Chemistry"/>
                  </code>
                  <text>
                     <status value="generated"/>
                     <div xmlns="http://www.w3.org/1999/xhtml">
                        <h3>Chemistry</h3>
                        <table class="hl7__eu__lab__report">
                           <thead>
                              <tr>
                                 <th>Test</th>
                                 <th>15-FEB-2024</th>
                                 <th>Reference Range</th>
                                 <th>Unit</th>
                              </tr>
                           </thead>
                           <tbody>
                              <tr>
                                 <td>Hemoglobin A1c/Hemoglobin.total in Blood</td>
                                 <td>6.0</td>
                                 <td>4.5 - 6.4</td>
                                 <td>%</td>
                              </tr>
                              <tr>
                                 <td>Glucose [Mass/volume] in Blood</td>
                                 <td>95.1</td>
                                 <td>70 - 99</td>
                                 <td>mg/dL</td>
                              </tr>
                              <tr>
                                 <td>Urea nitrogen [Mass/volume] in Blood</td>
                                 <td>16.0</td>
                                 <td>7 - 20</td>
                                 <td>mg/dL</td>
                              </tr>
                              <tr>
                                 <td>Creatinine [Mass/volume] in Blood</td>
                                 <td>1.2</td>
                                 <td>0.7 - 1.3</td>
                                 <td>mg/dL</td>
                              </tr>
                              <tr>
                                 <td>Calcium [Mass/volume] in Blood</td>
                                 <td>10.2</td>
                                 <td>8.5 - 10.5</td>
                                 <td>mg/dL</td>
                              </tr>
                              <tr>
                                 <td>Sodium [Moles/volume] in Blood</td>
                                 <td>137.4</td>
                                 <td>135 - 145</td>
                                 <td>mmol/L</td>
                              </tr>
                              <tr>
                                 <td>Potassium [Moles/volume] in Blood</td>
                                 <td>4.9</td>
                                 <td>3.5 - 5.3</td>
                                 <td>mmol/L</td>
                              </tr>
                              <tr>
                                 <td>Chloride [Moles/volume] in Blood</td>
                                 <td>107.4</td>
                                 <td>98 - 110</td>
                                 <td>mmol/L</td>
                              </tr>
                              <tr>
                                 <td>Carbon dioxide, total [Moles/volume] in Blood</td>
                                 <td>22.5</td>
                                 <td>22 - 29</td>
                                 <td>mmol/L</td>
                              </tr>
                              <tr>
                                 <td>Cholesterol [Mass/volume] in Serum or Plasma</td>
                                 <td>148.7</td>
                                 <td>125 - 200</td>
                                 <td>mg/dL</td>
                              </tr>
                              <tr>
                                 <td>Triglyceride [Mass/volume] in Serum or Plasma</td>
                                 <td>103.3</td>
                                 <td>0 - 150</td>
                                 <td>mg/dL</td>
                              </tr>
                              <tr>
                                 <td>Cholesterol in LDL [Mass/volume] in Serum or Plasma by Direct assay</td>
                                 <td>93.2</td>
                                 <td>0 - 130</td>
                                 <td>mg/dL</td>
                              </tr>
                              <tr>
                                 <td>Cholesterol in HDL [Mass/volume] in Serum or Plasma</td>
                                 <td>
                                    <strong>34.8 L</strong>
                                 </td>
                                 <td>40 - 60</td>
                                 <td>mg/dL</td>
                              </tr>
                           </tbody>
                        </table>
                     </div>
                  </text>
                  <entry>
                     <reference value="urn:uuid:8b634992-68c5-440d-9b6c-7aada82d3f32"/>
                  </entry>
                  <entry>
                     <reference value="urn:uuid:c7b2e0b8-6510-47a7-8b30-796b6446c174"/>
                  </entry>
                  <entry>
                     <reference value="urn:uuid:9e50aaab-1b9c-4e57-b1cc-5d6acf334d75"/>
                  </entry>
                  <entry>
                     <reference value="urn:uuid:798961c9-0a2c-4d9d-9d50-b3264b1098f7"/>
                  </entry>
                  <entry>
                     <reference value="urn:uuid:695cd32c-35b9-45fc-81e2-ff6548bed85f"/>
                  </entry>
                  <entry>
                     <reference value="urn:uuid:4b9f3fdf-e017-467d-bf3d-4a9434430cc4"/>
                  </entry>
                  <entry>
                     <reference value="urn:uuid:3e8857da-e5f9-479f-931f-18205904d220"/>
                  </entry>
                  <entry>
                     <reference value="urn:uuid:9191b028-edf2-4228-91aa-521445f274da"/>
                  </entry>
                  <entry>
                     <reference value="urn:uuid:279276cf-90d4-416c-aaa8-162b64b84280"/>
                  </entry>
                  <entry>
                     <reference value="urn:uuid:f2fc2ee8-ce1a-46be-82dc-8350fdb73bec"/>
                  </entry>
                  <entry>
                     <reference value="urn:uuid:b8c62b3e-a184-48ab-86ce-e8985d6355fa"/>
                  </entry>
                  <entry>
                     <reference value="urn:uuid:688cb671-b50e-4d0f-895d-342a3dbcfede"/>
                  </entry>
                  <entry>
                     <reference value="urn:uuid:d90d17f6-c7c4-4816-92c8-4583b2911377"/>
                  </entry>
               </section>
            </section>
            <section>
               <title value="Annotation comment"/>
               <code>
                  <coding>
                     <system value="http://loinc.org"/>
                     <code value="48767-8"/>
                     <display value="Annotation comment"/>
                  </coding>
               </code>
               <text>
                  <status value="generated"/>
                  <div xmlns="http://www.w3.org/1999/xhtml">
                     <h3>Annotation</h3>
                     <table class="hl7__eu__lab__report">
                        <tr>
                           <th>Conclusion and Recommendations based on this report and previous findings known to us</th>
                        </tr>
                        <tr>
                           <td>All measured parameters are within normal limits except for a mildly decreased HDL cholesterol (34.8 mg/dL). Glycemic, renal, electrolyte, and lipid profiles are otherwise unremarkable. Low HDL is a cardiovascular risk factor; lifestyle modification and cardiovascular risk assessment are recommended. No acute laboratory abnormalities detected.</td>
                        </tr>
                     </table>
                  </div>
               </text>
            </section>
         </Composition>
      </resource>
   </entry>
   <entry>
      <fullUrl value="urn:uuid:2f566d7f-c277-4563-a8e3-ae3df8a1292f"/>
      <resource>
         <DiagnosticReport>
            <id value="2f566d7f-c277-4563-a8e3-ae3df8a1292f"/>
            <meta>
               <profile value="http://hl7.eu/fhir/laboratory/StructureDefinition/DiagnosticReport-eu-lab"/>
            </meta>
            <extension url="http://hl7.org/fhir/5.0/StructureDefinition/extension-DiagnosticReport.composition">
               <valueReference>
                  <reference value="urn:uuid:2f6b6a0d-4e37-429b-a285-627f13893c4a"/>
               </valueReference>
            </extension>
            <identifier>
               <system value="urn:oid:2.16.840.1.113883.2.51.999"/>
               <value value="8dbd146b-11a7-4f99-a805-960cf94c76b8"/>
               <assigner>
                  <display value="HL7 Europe"/>
               </assigner>
            </identifier>
            <status value="registered"/>
            <category>
               <coding>
                  <system value="http://loinc.org"/>
                  <code value="26436-6"/>
                  <display value="Laboratory studies (set)"/>
               </coding>
            </category>
            <code>
               <coding>
                  <system value="http://loinc.org"/>
                  <code value="11502-2"/>
                  <display value="Laboratory report"/>
               </coding>
            </code>
            <subject>
               <reference value="urn:uuid:97691299-45a8-41e5-902b-f5cb78d57b4b"/>
               <display value="Alfred Rémy"/>
            </subject>
            <specimen>
               <reference value="urn:uuid:a5dc7da9-0a63-453b-a4c0-e71501158a23"/>
            </specimen>
            <specimen>
               <reference value="urn:uuid:7e7a6d6e-8b88-40c1-9e07-7222ac4c3a97"/>
            </specimen>
            <result>
               <reference value="urn:uuid:8b634992-68c5-440d-9b6c-7aada82d3f32"/>
            </result>
            <result>
               <reference value="urn:uuid:c7b2e0b8-6510-47a7-8b30-796b6446c174"/>
            </result>
            <result>
               <reference value="urn:uuid:9e50aaab-1b9c-4e57-b1cc-5d6acf334d75"/>
            </result>
            <result>
               <reference value="urn:uuid:798961c9-0a2c-4d9d-9d50-b3264b1098f7"/>
            </result>
            <result>
               <reference value="urn:uuid:695cd32c-35b9-45fc-81e2-ff6548bed85f"/>
            </result>
            <result>
               <reference value="urn:uuid:4b9f3fdf-e017-467d-bf3d-4a9434430cc4"/>
            </result>
            <result>
               <reference value="urn:uuid:3e8857da-e5f9-479f-931f-18205904d220"/>
            </result>
            <result>
               <reference value="urn:uuid:9191b028-edf2-4228-91aa-521445f274da"/>
            </result>
            <result>
               <reference value="urn:uuid:279276cf-90d4-416c-aaa8-162b64b84280"/>
            </result>
            <result>
               <reference value="urn:uuid:f2fc2ee8-ce1a-46be-82dc-8350fdb73bec"/>
            </result>
            <result>
               <reference value="urn:uuid:b8c62b3e-a184-48ab-86ce-e8985d6355fa"/>
            </result>
            <result>
               <reference value="urn:uuid:688cb671-b50e-4d0f-895d-342a3dbcfede"/>
            </result>
            <result>
               <reference value="urn:uuid:d90d17f6-c7c4-4816-92c8-4583b2911377"/>
            </result>
         </DiagnosticReport>
      </resource>
   </entry>
   <entry>
      <fullUrl value="urn:uuid:97691299-45a8-41e5-902b-f5cb78d57b4b"/>
      <resource>
         <Patient>
            <id value="97691299-45a8-41e5-902b-f5cb78d57b4b"/>
            <meta>
               <profile value="http://hl7.eu/fhir/base/StructureDefinition/patient-eu-core"/>
               <security>
                  <system value="http://terminology.hl7.org/CodeSystem/v3-ActReason"/>
                  <code value="HTEST"/>
               </security>
               <security>
                  <system value="http://terminology.hl7.org/CodeSystem/v3-ActReason"/>
                  <code value="TRAIN"/>
               </security>
               <tag>
                  <system value="https://synderai.net/fhir/CodeSystem/tags"/>
                  <code value="synthetic"/>
                  <display value="SYNDERAI Synthetic data"/>
               </tag>
            </meta>
            <text>
               <status value="generated"/>
               <div xmlns="http://www.w3.org/1999/xhtml">
                  <table class="hl7__ips">
                     <tr>
                        <td>Alfred Rémy</td>
                        <td>male</td>
                        <td>05-Jul-1967</td>
                     </tr>
                  </table>
               </div>
            </text>
            <extension url="http://hl7.org/fhir/StructureDefinition/patient-nationality">
               <valueCodeableConcept>
                  <coding>
                     <system value="http://hl7.org/fhir/ValueSet/country"/>
                     <code value="FR"/>
                  </coding>
               </valueCodeableConcept>
            </extension>
            <identifier>
               <type>
                  <coding>
                     <system value="http://terminology.hl7.org/CodeSystem/v2-0203"/>
                     <code value="PT"/>
                  </coding>
               </type>
               <system value="http://ec.europa.eu/identifier/eci"/>
               <value value="9962-084919-2"/>
            </identifier>
            <identifier>
               <type>
                  <coding>
                     <system value="http://terminology.hl7.org/CodeSystem/v2-0203"/>
                     <code value="MR"/>
                  </coding>
               </type>
               <system value="http://local.setting.eu/identifier"/>
               <value value="cc3b7d7f-bed4-5811-99b9-3468e2f4203c"/>
            </identifier>
            <name>
               <family value="Rémy"/>
            </name>
            <name>
               <given value="Alfred"/>
            </name>
            <name>
               <text value="Alfred Rémy"/>
            </name>
            <telecom>
               <system value="phone"/>
               <value value="+33 (0)4 73 74 17 67"/>
            </telecom>
            <gender value="male"/>
            <birthDate value="1967-07-05"/>
            <address>
               <use value="home"/>
               <type value="physical"/>
               <line value="88, rue de Jacquot"/>
               <city value="Paris"/>
               <postalCode value="75018"/>
               <country value="France"/>
            </address>
         </Patient>
      </resource>
   </entry>
   <entry>
      <fullUrl value="urn:uuid:60f38837-59fc-43db-95e8-135a15af102e"/>
      <resource>
         <ServiceRequest>
            <id value="60f38837-59fc-43db-95e8-135a15af102e"/>
            <meta>
               <profile value="http://hl7.eu/fhir/laboratory/StructureDefinition/ServiceRequest-eu-lab"/>
            </meta>
            <identifier>
               <system value="http://example.org"/>
               <value value="3b18db1a-46cc-4ee4-903c-38bb3c4b8147"/>
            </identifier>
            <status value="active"/>
            <intent value="order"/>
            <code>
               <coding>
                  <system value="http://snomed.info/sct"/>
                  <code value="108252007"/>
                  <display value="Laboratory procedure"/>
               </coding>
            </code>
            <subject>
               <reference value="urn:uuid:97691299-45a8-41e5-902b-f5cb78d57b4b"/>
               <display value="Alfred Rémy"/>
            </subject>
            <requester>
               <reference value="urn:uuid:5751ce50-6eaa-4d61-89b5-20ede997c7b3"/>
            </requester>
            <reasonCode>
               <coding>
                  <system value="http://snomed.info/sct"/>
                  <code value="271737000"/>
                  <display value="Anemia"/>
               </coding>
            </reasonCode>
            <reasonCode>
               <coding>
                  <system value="http://snomed.info/sct"/>
                  <code value="15777000"/>
                  <display value="Prediabetes"/>
               </coding>
            </reasonCode>
            <specimen>
               <reference value="urn:uuid:a5dc7da9-0a63-453b-a4c0-e71501158a23"/>
            </specimen>
            <specimen>
               <reference value="urn:uuid:7e7a6d6e-8b88-40c1-9e07-7222ac4c3a97"/>
            </specimen>
         </ServiceRequest>
      </resource>
   </entry>
   <entry>
      <fullUrl value="urn:uuid:5751ce50-6eaa-4d61-89b5-20ede997c7b3"/>
      <resource>
         <PractitionerRole>
            <id value="5751ce50-6eaa-4d61-89b5-20ede997c7b3"/>
            <meta>
               <profile value="http://hl7.eu/fhir/base/StructureDefinition/practitionerRole-eu"/>
            </meta>
            <text>
               <status value="generated"/>
               <div xmlns="http://www.w3.org/1999/xhtml">Provider Role Id: 5751ce50-6eaa-4d61-89b5-20ede997c7b3</div>
            </text>
            <organization>
               <reference value="urn:uuid:47923fdc-31c8-4338-aafa-66c56c25afc4"/>
            </organization>
         </PractitionerRole>
      </resource>
   </entry>
   <entry>
      <fullUrl value="urn:uuid:47923fdc-31c8-4338-aafa-66c56c25afc4"/>
      <resource>
         <Organization>
            <id value="47923fdc-31c8-4338-aafa-66c56c25afc4"/>
            <meta>
               <profile value="http://hl7.eu/fhir/base/StructureDefinition/organization-eu"/>
            </meta>
            <text>
               <status value="generated"/>
               <div xmlns="http://www.w3.org/1999/xhtml">Provider Organization: Maison des parents Irène Joliot-Curie</div>
            </text>
            <identifier>
               <system value="urn:oid:2.16.840.1.113883.2.51.999"/>
               <value value="b8a795a5-56e2-4e41-bbb8-d4ffb9b15c57"/>
               <assigner>
                  <display value="HL7 Europe"/>
               </assigner>
            </identifier>
            <name value="Maison des parents Irène Joliot-Curie"/>
            <address>
               <city value="Paris"/>
               <postalCode value="75005"/>
               <country value="France"/>
            </address>
         </Organization>
      </resource>
   </entry>
   <entry>
      <fullUrl value="urn:uuid:a5dc7da9-0a63-453b-a4c0-e71501158a23"/>
      <resource>
         <Specimen>
            <id value="a5dc7da9-0a63-453b-a4c0-e71501158a23"/>
            <meta>
               <profile value="http://hl7.eu/fhir/laboratory/StructureDefinition/Specimen-eu-lab"/>
            </meta>
            <text>
               <status value="generated"/>
               <div xmlns="http://www.w3.org/1999/xhtml">
                  <table class="hl7__eu__lab__report">
                     <tr>
                        <th>Specimen</th>
                        <th>Collection Date</th>
                     </tr>
                     <tr>
                        <td>Whole blood specimen (specimen)</td>
                        <td>
                           <span class="nb">15-Feb-2024</span>
                        </td>
                     </tr>
                  </table>
               </div>
            </text>
            <type>
               <coding>
                  <system value="http://snomed.info/sct"/>
                  <code value="258580003"/>
                  <display value="Whole blood specimen (specimen)"/>
               </coding>
            </type>
            <collection>
               <collectedDateTime value="2024-02-15"/>
            </collection>
         </Specimen>
      </resource>
   </entry>
   <entry>
      <fullUrl value="urn:uuid:7e7a6d6e-8b88-40c1-9e07-7222ac4c3a97"/>
      <resource>
         <Specimen>
            <id value="7e7a6d6e-8b88-40c1-9e07-7222ac4c3a97"/>
            <meta>
               <profile value="http://hl7.eu/fhir/laboratory/StructureDefinition/Specimen-eu-lab"/>
            </meta>
            <text>
               <status value="generated"/>
               <div xmlns="http://www.w3.org/1999/xhtml">
                  <table class="hl7__eu__lab__report">
                     <tr>
                        <th>Specimen</th>
                        <th>Collection Date</th>
                     </tr>
                     <tr>
                        <td>Acellular blood (serum or plasma) specimen</td>
                        <td>
                           <span class="nb">15-Feb-2024</span>
                        </td>
                     </tr>
                  </table>
               </div>
            </text>
            <type>
               <coding>
                  <system value="http://snomed.info/sct"/>
                  <code value="122592007"/>
                  <display value="Acellular blood (serum or plasma) specimen"/>
               </coding>
            </type>
            <collection>
               <collectedDateTime value="2024-02-15"/>
            </collection>
         </Specimen>
      </resource>
   </entry>
   <entry>
      <fullUrl value="urn:uuid:8b634992-68c5-440d-9b6c-7aada82d3f32"/>
      <resource>
         <Observation>
            <id value="8b634992-68c5-440d-9b6c-7aada82d3f32"/>
            <meta>
               <profile value="http://hl7.eu/fhir/laboratory/StructureDefinition/Observation-resultslab-eu-lab"/>
            </meta>
            <text>
               <status value="generated"/>
               <div xmlns="http://www.w3.org/1999/xhtml">
                  <table class="hl7__eu__lab__report">
                     <tr>
                        <th>Test</th>
                        <th>15-Feb-2024</th>
                        <th>Reference Range</th>
                        <th>Unit</th>
                     </tr>
                     <tr>
                        <td>Hemoglobin A1c/Hemoglobin.total in Blood</td>
                        <td>6.0</td>
                        <td>4.5 - 6.4</td>
                        <td/>
                        <td>%</td>
                     </tr>
                  </table>
               </div>
            </text>
            <status value="final"/>
            <category>
               <coding>
                  <system value="http://terminology.hl7.org/CodeSystem/observation-category"/>
                  <code value="laboratory"/>
               </coding>
            </category>
            <code>
               <coding>
                  <system value="http://loinc.org"/>
                  <code value="4548-4"/>
                  <display value="Hemoglobin A1c/Hemoglobin.total in Blood"/>
               </coding>
               <text value="Hemoglobin A1c/Hemoglobin.total in Blood"/>
            </code>
            <subject>
               <reference value="urn:uuid:97691299-45a8-41e5-902b-f5cb78d57b4b"/>
               <display value="Alfred Rémy"/>
            </subject>
            <effectiveDateTime value="2024-02-15T06:54:36Z"/>
            <performer>
               <display value="The Central European Lab"/>
            </performer>
            <valueQuantity>
               <value value="6"/>
               <unit value="%"/>
               <system value="http://unitsofmeasure.org"/>
               <code value="%"/>
            </valueQuantity>
            <specimen>
               <reference value="urn:uuid:a5dc7da9-0a63-453b-a4c0-e71501158a23"/>
            </specimen>
            <referenceRange>
               <low>
                  <value value="4.5"/>
                  <system value="http://unitsofmeasure.org"/>
                  <code value="%"/>
               </low>
            </referenceRange>
            <referenceRange>
               <high>
                  <value value="6.4"/>
                  <system value="http://unitsofmeasure.org"/>
                  <code value="%"/>
               </high>
            </referenceRange>
         </Observation>
      </resource>
   </entry>
   <entry>
      <fullUrl value="urn:uuid:c7b2e0b8-6510-47a7-8b30-796b6446c174"/>
      <resource>
         <Observation>
            <id value="c7b2e0b8-6510-47a7-8b30-796b6446c174"/>
            <meta>
               <profile value="http://hl7.eu/fhir/laboratory/StructureDefinition/Observation-resultslab-eu-lab"/>
            </meta>
            <text>
               <status value="generated"/>
               <div xmlns="http://www.w3.org/1999/xhtml">
                  <table class="hl7__eu__lab__report">
                     <tr>
                        <th>Test</th>
                        <th>15-Feb-2024</th>
                        <th>Reference Range</th>
                        <th>Unit</th>
                     </tr>
                     <tr>
                        <td>Glucose [Mass/volume] in Blood</td>
                        <td>95.1</td>
                        <td>70 - 99</td>
                        <td/>
                        <td>mg/dL</td>
                     </tr>
                  </table>
               </div>
            </text>
            <status value="final"/>
            <category>
               <coding>
                  <system value="http://terminology.hl7.org/CodeSystem/observation-category"/>
                  <code value="laboratory"/>
               </coding>
            </category>
            <code>
               <coding>
                  <system value="http://loinc.org"/>
                  <code value="2339-0"/>
                  <display value="Glucose [Mass/volume] in Blood"/>
               </coding>
               <text value="Glucose [Mass/volume] in Blood"/>
            </code>
            <subject>
               <reference value="urn:uuid:97691299-45a8-41e5-902b-f5cb78d57b4b"/>
               <display value="Alfred Rémy"/>
            </subject>
            <effectiveDateTime value="2024-02-15T06:54:36Z"/>
            <performer>
               <display value="The Central European Lab"/>
            </performer>
            <valueQuantity>
               <value value="95.1"/>
               <unit value="mg/dL"/>
               <system value="http://unitsofmeasure.org"/>
               <code value="mg/dL"/>
            </valueQuantity>
            <specimen>
               <reference value="urn:uuid:a5dc7da9-0a63-453b-a4c0-e71501158a23"/>
            </specimen>
            <referenceRange>
               <low>
                  <value value="70"/>
                  <system value="http://unitsofmeasure.org"/>
                  <code value="mg/dL"/>
               </low>
            </referenceRange>
            <referenceRange>
               <high>
                  <value value="99"/>
                  <system value="http://unitsofmeasure.org"/>
                  <code value="mg/dL"/>
               </high>
            </referenceRange>
         </Observation>
      </resource>
   </entry>
   <entry>
      <fullUrl value="urn:uuid:9e50aaab-1b9c-4e57-b1cc-5d6acf334d75"/>
      <resource>
         <Observation>
            <id value="9e50aaab-1b9c-4e57-b1cc-5d6acf334d75"/>
            <meta>
               <profile value="http://hl7.eu/fhir/laboratory/StructureDefinition/Observation-resultslab-eu-lab"/>
            </meta>
            <text>
               <status value="generated"/>
               <div xmlns="http://www.w3.org/1999/xhtml">
                  <table class="hl7__eu__lab__report">
                     <tr>
                        <th>Test</th>
                        <th>15-Feb-2024</th>
                        <th>Reference Range</th>
                        <th>Unit</th>
                     </tr>
                     <tr>
                        <td>Urea nitrogen [Mass/volume] in Blood</td>
                        <td>16.0</td>
                        <td>7 - 20</td>
                        <td/>
                        <td>mg/dL</td>
                     </tr>
                  </table>
               </div>
            </text>
            <status value="final"/>
            <category>
               <coding>
                  <system value="http://terminology.hl7.org/CodeSystem/observation-category"/>
                  <code value="laboratory"/>
               </coding>
            </category>
            <code>
               <coding>
                  <system value="http://loinc.org"/>
                  <code value="6299-2"/>
                  <display value="Urea nitrogen [Mass/volume] in Blood"/>
               </coding>
               <text value="Urea nitrogen [Mass/volume] in Blood"/>
            </code>
            <subject>
               <reference value="urn:uuid:97691299-45a8-41e5-902b-f5cb78d57b4b"/>
               <display value="Alfred Rémy"/>
            </subject>
            <effectiveDateTime value="2024-02-15T06:54:36Z"/>
            <performer>
               <display value="The Central European Lab"/>
            </performer>
            <valueQuantity>
               <value value="16"/>
               <unit value="mg/dL"/>
               <system value="http://unitsofmeasure.org"/>
               <code value="mg/dL"/>
            </valueQuantity>
            <specimen>
               <reference value="urn:uuid:a5dc7da9-0a63-453b-a4c0-e71501158a23"/>
            </specimen>
            <referenceRange>
               <low>
                  <value value="7"/>
                  <system value="http://unitsofmeasure.org"/>
                  <code value="mg/dL"/>
               </low>
            </referenceRange>
            <referenceRange>
               <high>
                  <value value="20"/>
                  <system value="http://unitsofmeasure.org"/>
                  <code value="mg/dL"/>
               </high>
            </referenceRange>
         </Observation>
      </resource>
   </entry>
   <entry>
      <fullUrl value="urn:uuid:798961c9-0a2c-4d9d-9d50-b3264b1098f7"/>
      <resource>
         <Observation>
            <id value="798961c9-0a2c-4d9d-9d50-b3264b1098f7"/>
            <meta>
               <profile value="http://hl7.eu/fhir/laboratory/StructureDefinition/Observation-resultslab-eu-lab"/>
            </meta>
            <text>
               <status value="generated"/>
               <div xmlns="http://www.w3.org/1999/xhtml">
                  <table class="hl7__eu__lab__report">
                     <tr>
                        <th>Test</th>
                        <th>15-Feb-2024</th>
                        <th>Reference Range</th>
                        <th>Unit</th>
                     </tr>
                     <tr>
                        <td>Creatinine [Mass/volume] in Blood</td>
                        <td>1.2</td>
                        <td>0.7 - 1.3</td>
                        <td/>
                        <td>mg/dL</td>
                     </tr>
                  </table>
               </div>
            </text>
            <status value="final"/>
            <category>
               <coding>
                  <system value="http://terminology.hl7.org/CodeSystem/observation-category"/>
                  <code value="laboratory"/>
               </coding>
            </category>
            <code>
               <coding>
                  <system value="http://loinc.org"/>
                  <code value="38483-4"/>
                  <display value="Creatinine [Mass/volume] in Blood"/>
               </coding>
               <text value="Creatinine [Mass/volume] in Blood"/>
            </code>
            <subject>
               <reference value="urn:uuid:97691299-45a8-41e5-902b-f5cb78d57b4b"/>
               <display value="Alfred Rémy"/>
            </subject>
            <effectiveDateTime value="2024-02-15T06:54:36Z"/>
            <performer>
               <display value="The Central European Lab"/>
            </performer>
            <valueQuantity>
               <value value="1.2"/>
               <unit value="mg/dL"/>
               <system value="http://unitsofmeasure.org"/>
               <code value="mg/dL"/>
            </valueQuantity>
            <specimen>
               <reference value="urn:uuid:a5dc7da9-0a63-453b-a4c0-e71501158a23"/>
            </specimen>
            <referenceRange>
               <low>
                  <value value="0.7"/>
                  <system value="http://unitsofmeasure.org"/>
                  <code value="mg/dL"/>
               </low>
            </referenceRange>
            <referenceRange>
               <high>
                  <value value="1.3"/>
                  <system value="http://unitsofmeasure.org"/>
                  <code value="mg/dL"/>
               </high>
            </referenceRange>
         </Observation>
      </resource>
   </entry>
   <entry>
      <fullUrl value="urn:uuid:695cd32c-35b9-45fc-81e2-ff6548bed85f"/>
      <resource>
         <Observation>
            <id value="695cd32c-35b9-45fc-81e2-ff6548bed85f"/>
            <meta>
               <profile value="http://hl7.eu/fhir/laboratory/StructureDefinition/Observation-resultslab-eu-lab"/>
            </meta>
            <text>
               <status value="generated"/>
               <div xmlns="http://www.w3.org/1999/xhtml">
                  <table class="hl7__eu__lab__report">
                     <tr>
                        <th>Test</th>
                        <th>15-Feb-2024</th>
                        <th>Reference Range</th>
                        <th>Unit</th>
                     </tr>
                     <tr>
                        <td>Calcium [Mass/volume] in Blood</td>
                        <td>10.2</td>
                        <td>8.5 - 10.5</td>
                        <td/>
                        <td>mg/dL</td>
                     </tr>
                  </table>
               </div>
            </text>
            <status value="final"/>
            <category>
               <coding>
                  <system value="http://terminology.hl7.org/CodeSystem/observation-category"/>
                  <code value="laboratory"/>
               </coding>
            </category>
            <code>
               <coding>
                  <system value="http://loinc.org"/>
                  <code value="49765-1"/>
                  <display value="Calcium [Mass/volume] in Blood"/>
               </coding>
               <text value="Calcium [Mass/volume] in Blood"/>
            </code>
            <subject>
               <reference value="urn:uuid:97691299-45a8-41e5-902b-f5cb78d57b4b"/>
               <display value="Alfred Rémy"/>
            </subject>
            <effectiveDateTime value="2024-02-15T06:54:36Z"/>
            <performer>
               <display value="The Central European Lab"/>
            </performer>
            <valueQuantity>
               <value value="10.2"/>
               <unit value="mg/dL"/>
               <system value="http://unitsofmeasure.org"/>
               <code value="mg/dL"/>
            </valueQuantity>
            <specimen>
               <reference value="urn:uuid:a5dc7da9-0a63-453b-a4c0-e71501158a23"/>
            </specimen>
            <referenceRange>
               <low>
                  <value value="8.5"/>
                  <system value="http://unitsofmeasure.org"/>
                  <code value="mg/dL"/>
               </low>
            </referenceRange>
            <referenceRange>
               <high>
                  <value value="10.5"/>
                  <system value="http://unitsofmeasure.org"/>
                  <code value="mg/dL"/>
               </high>
            </referenceRange>
         </Observation>
      </resource>
   </entry>
   <entry>
      <fullUrl value="urn:uuid:4b9f3fdf-e017-467d-bf3d-4a9434430cc4"/>
      <resource>
         <Observation>
            <id value="4b9f3fdf-e017-467d-bf3d-4a9434430cc4"/>
            <meta>
               <profile value="http://hl7.eu/fhir/laboratory/StructureDefinition/Observation-resultslab-eu-lab"/>
            </meta>
            <text>
               <status value="generated"/>
               <div xmlns="http://www.w3.org/1999/xhtml">
                  <table class="hl7__eu__lab__report">
                     <tr>
                        <th>Test</th>
                        <th>15-Feb-2024</th>
                        <th>Reference Range</th>
                        <th>Unit</th>
                     </tr>
                     <tr>
                        <td>Sodium [Moles/volume] in Blood</td>
                        <td>137.4</td>
                        <td>135 - 145</td>
                        <td/>
                        <td>mmol/L</td>
                     </tr>
                  </table>
               </div>
            </text>
            <status value="final"/>
            <category>
               <coding>
                  <system value="http://terminology.hl7.org/CodeSystem/observation-category"/>
                  <code value="laboratory"/>
               </coding>
            </category>
            <code>
               <coding>
                  <system value="http://loinc.org"/>
                  <code value="2947-0"/>
                  <display value="Sodium [Moles/volume] in Blood"/>
               </coding>
               <text value="Sodium [Moles/volume] in Blood"/>
            </code>
            <subject>
               <reference value="urn:uuid:97691299-45a8-41e5-902b-f5cb78d57b4b"/>
               <display value="Alfred Rémy"/>
            </subject>
            <effectiveDateTime value="2024-02-15T06:54:36Z"/>
            <performer>
               <display value="The Central European Lab"/>
            </performer>
            <valueQuantity>
               <value value="137.4"/>
               <unit value="mmol/L"/>
               <system value="http://unitsofmeasure.org"/>
               <code value="mmol/L"/>
            </valueQuantity>
            <specimen>
               <reference value="urn:uuid:a5dc7da9-0a63-453b-a4c0-e71501158a23"/>
            </specimen>
            <referenceRange>
               <low>
                  <value value="135"/>
                  <system value="http://unitsofmeasure.org"/>
                  <code value="mmol/L"/>
               </low>
            </referenceRange>
            <referenceRange>
               <high>
                  <value value="145"/>
                  <system value="http://unitsofmeasure.org"/>
                  <code value="mmol/L"/>
               </high>
            </referenceRange>
         </Observation>
      </resource>
   </entry>
   <entry>
      <fullUrl value="urn:uuid:3e8857da-e5f9-479f-931f-18205904d220"/>
      <resource>
         <Observation>
            <id value="3e8857da-e5f9-479f-931f-18205904d220"/>
            <meta>
               <profile value="http://hl7.eu/fhir/laboratory/StructureDefinition/Observation-resultslab-eu-lab"/>
            </meta>
            <text>
               <status value="generated"/>
               <div xmlns="http://www.w3.org/1999/xhtml">
                  <table class="hl7__eu__lab__report">
                     <tr>
                        <th>Test</th>
                        <th>15-Feb-2024</th>
                        <th>Reference Range</th>
                        <th>Unit</th>
                     </tr>
                     <tr>
                        <td>Potassium [Moles/volume] in Blood</td>
                        <td>4.9</td>
                        <td>3.5 - 5.3</td>
                        <td/>
                        <td>mmol/L</td>
                     </tr>
                  </table>
               </div>
            </text>
            <status value="final"/>
            <category>
               <coding>
                  <system value="http://terminology.hl7.org/CodeSystem/observation-category"/>
                  <code value="laboratory"/>
               </coding>
            </category>
            <code>
               <coding>
                  <system value="http://loinc.org"/>
                  <code value="6298-4"/>
                  <display value="Potassium [Moles/volume] in Blood"/>
               </coding>
               <text value="Potassium [Moles/volume] in Blood"/>
            </code>
            <subject>
               <reference value="urn:uuid:97691299-45a8-41e5-902b-f5cb78d57b4b"/>
               <display value="Alfred Rémy"/>
            </subject>
            <effectiveDateTime value="2024-02-15T06:54:36Z"/>
            <performer>
               <display value="The Central European Lab"/>
            </performer>
            <valueQuantity>
               <value value="4.9"/>
               <unit value="mmol/L"/>
               <system value="http://unitsofmeasure.org"/>
               <code value="mmol/L"/>
            </valueQuantity>
            <specimen>
               <reference value="urn:uuid:a5dc7da9-0a63-453b-a4c0-e71501158a23"/>
            </specimen>
            <referenceRange>
               <low>
                  <value value="3.5"/>
                  <system value="http://unitsofmeasure.org"/>
                  <code value="mmol/L"/>
               </low>
            </referenceRange>
            <referenceRange>
               <high>
                  <value value="5.3"/>
                  <system value="http://unitsofmeasure.org"/>
                  <code value="mmol/L"/>
               </high>
            </referenceRange>
         </Observation>
      </resource>
   </entry>
   <entry>
      <fullUrl value="urn:uuid:9191b028-edf2-4228-91aa-521445f274da"/>
      <resource>
         <Observation>
            <id value="9191b028-edf2-4228-91aa-521445f274da"/>
            <meta>
               <profile value="http://hl7.eu/fhir/laboratory/StructureDefinition/Observation-resultslab-eu-lab"/>
            </meta>
            <text>
               <status value="generated"/>
               <div xmlns="http://www.w3.org/1999/xhtml">
                  <table class="hl7__eu__lab__report">
                     <tr>
                        <th>Test</th>
                        <th>15-Feb-2024</th>
                        <th>Reference Range</th>
                        <th>Unit</th>
                     </tr>
                     <tr>
                        <td>Chloride [Moles/volume] in Blood</td>
                        <td>107.4</td>
                        <td>98 - 110</td>
                        <td/>
                        <td>mmol/L</td>
                     </tr>
                  </table>
               </div>
            </text>
            <status value="final"/>
            <category>
               <coding>
                  <system value="http://terminology.hl7.org/CodeSystem/observation-category"/>
                  <code value="laboratory"/>
               </coding>
            </category>
            <code>
               <coding>
                  <system value="http://loinc.org"/>
                  <code value="2069-3"/>
                  <display value="Chloride [Moles/volume] in Blood"/>
               </coding>
               <text value="Chloride [Moles/volume] in Blood"/>
            </code>
            <subject>
               <reference value="urn:uuid:97691299-45a8-41e5-902b-f5cb78d57b4b"/>
               <display value="Alfred Rémy"/>
            </subject>
            <effectiveDateTime value="2024-02-15T06:54:36Z"/>
            <performer>
               <display value="The Central European Lab"/>
            </performer>
            <valueQuantity>
               <value value="107.4"/>
               <unit value="mmol/L"/>
               <system value="http://unitsofmeasure.org"/>
               <code value="mmol/L"/>
            </valueQuantity>
            <specimen>
               <reference value="urn:uuid:a5dc7da9-0a63-453b-a4c0-e71501158a23"/>
            </specimen>
            <referenceRange>
               <low>
                  <value value="98"/>
                  <system value="http://unitsofmeasure.org"/>
                  <code value="mmol/L"/>
               </low>
            </referenceRange>
            <referenceRange>
               <high>
                  <value value="110"/>
                  <system value="http://unitsofmeasure.org"/>
                  <code value="mmol/L"/>
               </high>
            </referenceRange>
         </Observation>
      </resource>
   </entry>
   <entry>
      <fullUrl value="urn:uuid:279276cf-90d4-416c-aaa8-162b64b84280"/>
      <resource>
         <Observation>
            <id value="279276cf-90d4-416c-aaa8-162b64b84280"/>
            <meta>
               <profile value="http://hl7.eu/fhir/laboratory/StructureDefinition/Observation-resultslab-eu-lab"/>
            </meta>
            <text>
               <status value="generated"/>
               <div xmlns="http://www.w3.org/1999/xhtml">
                  <table class="hl7__eu__lab__report">
                     <tr>
                        <th>Test</th>
                        <th>15-Feb-2024</th>
                        <th>Reference Range</th>
                        <th>Unit</th>
                     </tr>
                     <tr>
                        <td>Carbon dioxide, total [Moles/volume] in Blood</td>
                        <td>22.5</td>
                        <td>22 - 29</td>
                        <td/>
                        <td>mmol/L</td>
                     </tr>
                  </table>
               </div>
            </text>
            <status value="final"/>
            <category>
               <coding>
                  <system value="http://terminology.hl7.org/CodeSystem/observation-category"/>
                  <code value="laboratory"/>
               </coding>
            </category>
            <code>
               <coding>
                  <system value="http://loinc.org"/>
                  <code value="20565-8"/>
                  <display value="Carbon dioxide, total [Moles/volume] in Blood"/>
               </coding>
               <text value="Carbon dioxide, total [Moles/volume] in Blood"/>
            </code>
            <subject>
               <reference value="urn:uuid:97691299-45a8-41e5-902b-f5cb78d57b4b"/>
               <display value="Alfred Rémy"/>
            </subject>
            <effectiveDateTime value="2024-02-15T06:54:36Z"/>
            <performer>
               <display value="The Central European Lab"/>
            </performer>
            <valueQuantity>
               <value value="22.5"/>
               <unit value="mmol/L"/>
               <system value="http://unitsofmeasure.org"/>
               <code value="mmol/L"/>
            </valueQuantity>
            <specimen>
               <reference value="urn:uuid:a5dc7da9-0a63-453b-a4c0-e71501158a23"/>
            </specimen>
            <referenceRange>
               <low>
                  <value value="22"/>
                  <system value="http://unitsofmeasure.org"/>
                  <code value="mmol/L"/>
               </low>
            </referenceRange>
            <referenceRange>
               <high>
                  <value value="29"/>
                  <system value="http://unitsofmeasure.org"/>
                  <code value="mmol/L"/>
               </high>
            </referenceRange>
         </Observation>
      </resource>
   </entry>
   <entry>
      <fullUrl value="urn:uuid:f2fc2ee8-ce1a-46be-82dc-8350fdb73bec"/>
      <resource>
         <Observation>
            <id value="f2fc2ee8-ce1a-46be-82dc-8350fdb73bec"/>
            <meta>
               <profile value="http://hl7.eu/fhir/laboratory/StructureDefinition/Observation-resultslab-eu-lab"/>
            </meta>
            <text>
               <status value="generated"/>
               <div xmlns="http://www.w3.org/1999/xhtml">
                  <table class="hl7__eu__lab__report">
                     <tr>
                        <th>Test</th>
                        <th>15-Feb-2024</th>
                        <th>Reference Range</th>
                        <th>Unit</th>
                     </tr>
                     <tr>
                        <td>Cholesterol [Mass/volume] in Serum or Plasma</td>
                        <td>148.7</td>
                        <td>125 - 200</td>
                        <td/>
                        <td>mg/dL</td>
                     </tr>
                  </table>
               </div>
            </text>
            <status value="final"/>
            <category>
               <coding>
                  <system value="http://terminology.hl7.org/CodeSystem/observation-category"/>
                  <code value="laboratory"/>
               </coding>
            </category>
            <code>
               <coding>
                  <system value="http://loinc.org"/>
                  <code value="2093-3"/>
                  <display value="Cholesterol [Mass/volume] in Serum or Plasma"/>
               </coding>
               <text value="Cholesterol [Mass/volume] in Serum or Plasma"/>
            </code>
            <subject>
               <reference value="urn:uuid:97691299-45a8-41e5-902b-f5cb78d57b4b"/>
               <display value="Alfred Rémy"/>
            </subject>
            <effectiveDateTime value="2024-02-15T06:54:36Z"/>
            <performer>
               <display value="The Central European Lab"/>
            </performer>
            <valueQuantity>
               <value value="148.7"/>
               <unit value="mg/dL"/>
               <system value="http://unitsofmeasure.org"/>
               <code value="mg/dL"/>
            </valueQuantity>
            <specimen>
               <reference value="urn:uuid:7e7a6d6e-8b88-40c1-9e07-7222ac4c3a97"/>
            </specimen>
            <referenceRange>
               <low>
                  <value value="125"/>
                  <system value="http://unitsofmeasure.org"/>
                  <code value="mg/dL"/>
               </low>
            </referenceRange>
            <referenceRange>
               <high>
                  <value value="200"/>
                  <system value="http://unitsofmeasure.org"/>
                  <code value="mg/dL"/>
               </high>
            </referenceRange>
         </Observation>
      </resource>
   </entry>
   <entry>
      <fullUrl value="urn:uuid:b8c62b3e-a184-48ab-86ce-e8985d6355fa"/>
      <resource>
         <Observation>
            <id value="b8c62b3e-a184-48ab-86ce-e8985d6355fa"/>
            <meta>
               <profile value="http://hl7.eu/fhir/laboratory/StructureDefinition/Observation-resultslab-eu-lab"/>
            </meta>
            <text>
               <status value="generated"/>
               <div xmlns="http://www.w3.org/1999/xhtml">
                  <table class="hl7__eu__lab__report">
                     <tr>
                        <th>Test</th>
                        <th>15-Feb-2024</th>
                        <th>Reference Range</th>
                        <th>Unit</th>
                     </tr>
                     <tr>
                        <td>Triglyceride [Mass/volume] in Serum or Plasma</td>
                        <td>103.3</td>
                        <td>0 - 150</td>
                        <td/>
                        <td>mg/dL</td>
                     </tr>
                  </table>
               </div>
            </text>
            <status value="final"/>
            <category>
               <coding>
                  <system value="http://terminology.hl7.org/CodeSystem/observation-category"/>
                  <code value="laboratory"/>
               </coding>
            </category>
            <code>
               <coding>
                  <system value="http://loinc.org"/>
                  <code value="2571-8"/>
                  <display value="Triglyceride [Mass/volume] in Serum or Plasma"/>
               </coding>
               <text value="Triglyceride [Mass/volume] in Serum or Plasma"/>
            </code>
            <subject>
               <reference value="urn:uuid:97691299-45a8-41e5-902b-f5cb78d57b4b"/>
               <display value="Alfred Rémy"/>
            </subject>
            <effectiveDateTime value="2024-02-15T06:54:36Z"/>
            <performer>
               <display value="The Central European Lab"/>
            </performer>
            <valueQuantity>
               <value value="103.3"/>
               <unit value="mg/dL"/>
               <system value="http://unitsofmeasure.org"/>
               <code value="mg/dL"/>
            </valueQuantity>
            <specimen>
               <reference value="urn:uuid:7e7a6d6e-8b88-40c1-9e07-7222ac4c3a97"/>
            </specimen>
            <referenceRange>
               <low>
                  <value value="0"/>
                  <system value="http://unitsofmeasure.org"/>
                  <code value="mg/dL"/>
               </low>
            </referenceRange>
            <referenceRange>
               <high>
                  <value value="150"/>
                  <system value="http://unitsofmeasure.org"/>
                  <code value="mg/dL"/>
               </high>
            </referenceRange>
         </Observation>
      </resource>
   </entry>
   <entry>
      <fullUrl value="urn:uuid:688cb671-b50e-4d0f-895d-342a3dbcfede"/>
      <resource>
         <Observation>
            <id value="688cb671-b50e-4d0f-895d-342a3dbcfede"/>
            <meta>
               <profile value="http://hl7.eu/fhir/laboratory/StructureDefinition/Observation-resultslab-eu-lab"/>
            </meta>
            <text>
               <status value="generated"/>
               <div xmlns="http://www.w3.org/1999/xhtml">
                  <table class="hl7__eu__lab__report">
                     <tr>
                        <th>Test</th>
                        <th>15-Feb-2024</th>
                        <th>Reference Range</th>
                        <th>Unit</th>
                     </tr>
                     <tr>
                        <td>Cholesterol in LDL [Mass/volume] in Serum or Plasma by Direct assay</td>
                        <td>93.2</td>
                        <td>0 - 130</td>
                        <td/>
                        <td>mg/dL</td>
                     </tr>
                  </table>
               </div>
            </text>
            <status value="final"/>
            <category>
               <coding>
                  <system value="http://terminology.hl7.org/CodeSystem/observation-category"/>
                  <code value="laboratory"/>
               </coding>
            </category>
            <code>
               <coding>
                  <system value="http://loinc.org"/>
                  <code value="18262-6"/>
                  <display value="Cholesterol in LDL [Mass/volume] in Serum or Plasma by Direct assay"/>
               </coding>
               <text value="Cholesterol in LDL [Mass/volume] in Serum or Plasma by Direct assay"/>
            </code>
            <subject>
               <reference value="urn:uuid:97691299-45a8-41e5-902b-f5cb78d57b4b"/>
               <display value="Alfred Rémy"/>
            </subject>
            <effectiveDateTime value="2024-02-15T06:54:36Z"/>
            <performer>
               <display value="The Central European Lab"/>
            </performer>
            <valueQuantity>
               <value value="93.2"/>
               <unit value="mg/dL"/>
               <system value="http://unitsofmeasure.org"/>
               <code value="mg/dL"/>
            </valueQuantity>
            <specimen>
               <reference value="urn:uuid:7e7a6d6e-8b88-40c1-9e07-7222ac4c3a97"/>
            </specimen>
            <referenceRange>
               <low>
                  <value value="0"/>
                  <system value="http://unitsofmeasure.org"/>
                  <code value="mg/dL"/>
               </low>
            </referenceRange>
            <referenceRange>
               <high>
                  <value value="130"/>
                  <system value="http://unitsofmeasure.org"/>
                  <code value="mg/dL"/>
               </high>
            </referenceRange>
         </Observation>
      </resource>
   </entry>
   <entry>
      <fullUrl value="urn:uuid:d90d17f6-c7c4-4816-92c8-4583b2911377"/>
      <resource>
         <Observation>
            <id value="d90d17f6-c7c4-4816-92c8-4583b2911377"/>
            <meta>
               <profile value="http://hl7.eu/fhir/laboratory/StructureDefinition/Observation-resultslab-eu-lab"/>
            </meta>
            <text>
               <status value="generated"/>
               <div xmlns="http://www.w3.org/1999/xhtml">
                  <table class="hl7__eu__lab__report">
                     <tr>
                        <th>Test</th>
                        <th>15-Feb-2024</th>
                        <th>Reference Range</th>
                        <th>Unit</th>
                     </tr>
                     <tr>
                        <td>Cholesterol in HDL [Mass/volume] in Serum or Plasma</td>
                        <td>34.8</td>
                        <td>40 - 60</td>
                        <td>L</td>
                        <td>mg/dL</td>
                     </tr>
                  </table>
               </div>
            </text>
            <status value="final"/>
            <category>
               <coding>
                  <system value="http://terminology.hl7.org/CodeSystem/observation-category"/>
                  <code value="laboratory"/>
               </coding>
            </category>
            <code>
               <coding>
                  <system value="http://loinc.org"/>
                  <code value="2085-9"/>
                  <display value="Cholesterol in HDL [Mass/volume] in Serum or Plasma"/>
               </coding>
               <text value="Cholesterol in HDL [Mass/volume] in Serum or Plasma"/>
            </code>
            <subject>
               <reference value="urn:uuid:97691299-45a8-41e5-902b-f5cb78d57b4b"/>
               <display value="Alfred Rémy"/>
            </subject>
            <effectiveDateTime value="2024-02-15T06:54:36Z"/>
            <performer>
               <display value="The Central European Lab"/>
            </performer>
            <valueQuantity>
               <value value="34.8"/>
               <unit value="mg/dL"/>
               <system value="http://unitsofmeasure.org"/>
               <code value="mg/dL"/>
            </valueQuantity>
            <interpretation>
               <coding>
                  <system value="http://terminology.hl7.org/CodeSystem/v3-ObservationInterpretation"/>
                  <code value="L"/>
                  <display value="Low"/>
               </coding>
            </interpretation>
            <specimen>
               <reference value="urn:uuid:7e7a6d6e-8b88-40c1-9e07-7222ac4c3a97"/>
            </specimen>
            <referenceRange>
               <low>
                  <value value="40"/>
                  <system value="http://unitsofmeasure.org"/>
                  <code value="mg/dL"/>
               </low>
            </referenceRange>
            <referenceRange>
               <high>
                  <value value="60"/>
                  <system value="http://unitsofmeasure.org"/>
                  <code value="mg/dL"/>
               </high>
            </referenceRange>
         </Observation>
      </resource>
   </entry>
   <entry>
      <fullUrl value="urn:uuid:e051ce9f-1cea-458b-940f-eec633940448"/>
      <resource>
         <Device>
            <id value="e051ce9f-1cea-458b-940f-eec633940448"/>
            <text>
               <status value="generated"/>
               <div xmlns="http://www.w3.org/1999/xhtml">SYNDERAI Synthetic Generator v5.0</div>
            </text>
            <status value="active&#34;"/>
            <distinctIdentifier value="synderai-generator-50"/>
            <manufacturer value="SYNDERAI Project"/>
            <deviceName>
               <name value="SYNDERAI Synthetic Generator"/>
               <type value="manufacturer-name"/>
            </deviceName>
            <version>
               <value value="5.0"/>
            </version>
         </Device>
      </resource>
   </entry>
   <entry>
      <fullUrl value="urn:uuid:b6f246c2-f8ad-4453-a06b-8be31b02a6ea"/>
      <resource>
         <Provenance>
            <id value="b6f246c2-f8ad-4453-a06b-8be31b02a6ea"/>
            <text>
               <status value="generated"/>
               <div xmlns="http://www.w3.org/1999/xhtml">Provenance for SYNDERAI Synthetic Example Data Resource</div>
            </text>
            <target>
               <reference value="Patient/97691299-45a8-41e5-902b-f5cb78d57b4b"/>
            </target>
            <target>
               <reference value="Bundle/989882a8-0540-4e76-b115-1d26a3118f26"/>
            </target>
            <target>
               <reference value="Composition/f288b18c-85e8-4617-95b8-20c9b6578568"/>
            </target>
            <target>
               <reference value="PractitionerRole/69588c84-e4e5-4def-89c8-f1ac284a5a9d"/>
            </target>
            <target>
               <reference value="Practitioner/3dee7efa-ba5a-40aa-8725-852cd5326e2b"/>
            </target>
            <target>
               <reference value="PractitionerRole/5751ce50-6eaa-4d61-89b5-20ede997c7b3"/>
            </target>
            <target>
               <reference value="Organization/47923fdc-31c8-4338-aafa-66c56c25afc4"/>
            </target>
            <recorded value="2024-02-15T07:54:36Z"/>
            <policy value="https://synderai.net/synderai-synthetic-data-policy"/>
            <reason>
               <text value="Interoperability Testing and Training (non-clinical use)"/>
            </reason>
            <activity>
               <text value="Synthetic Example Data Generation"/>
            </activity>
            <agent>
               <type>
                  <text value="author"/>
               </type>
               <who>
                  <reference value="Device/e051ce9f-1cea-458b-940f-eec633940448"/>
               </who>
            </agent>
         </Provenance>
      </resource>
   </entry>
   <entry>
      <fullUrl value="urn:uuid:69588c84-e4e5-4def-89c8-f1ac284a5a9d"/>
      <resource>
         <PractitionerRole>
            <id value="69588c84-e4e5-4def-89c8-f1ac284a5a9d"/>
            <meta>
               <profile value="http://hl7.eu/fhir/base/StructureDefinition/practitionerRole-eu"/>
            </meta>
            <text>
               <status value="generated"/>
               <div xmlns="http://www.w3.org/1999/xhtml">Laboratory Role Id: 69588c84-e4e5-4def-89c8-f1ac284a5a9d</div>
            </text>
            <practitioner>
               <reference value="urn:uuid:3dee7efa-ba5a-40aa-8725-852cd5326e2b"/>
            </practitioner>
         </PractitionerRole>
      </resource>
   </entry>
   <entry>
      <fullUrl value="urn:uuid:3dee7efa-ba5a-40aa-8725-852cd5326e2b"/>
      <resource>
         <Practitioner>
            <id value="3dee7efa-ba5a-40aa-8725-852cd5326e2b"/>
            <meta>
               <profile value="http://hl7.eu/fhir/base/StructureDefinition/practitioner-eu"/>
            </meta>
            <text>
               <status value="generated"/>
               <div xmlns="http://www.w3.org/1999/xhtml">Laboratory: Laboratoire Central Européenne, 1000 Brussels, Belgium</div>
            </text>
            <identifier>
               <system value="urn:oid:2.16.840.1.113883.2.51.999"/>
               <value value="6067f637-7f58-435d-a0af-d8c06b860efd"/>
               <assigner>
                  <display value="HL7 Europe"/>
               </assigner>
            </identifier>
            <name>
               <family value="Ample"/>
               <given value="Ex"/>
               <prefix value="dr"/>
            </name>
            <address>
               <line value="Laboratoire Central Européenne"/>
               <line value="Boulevard du Jardin Botanique 32"/>
               <city value="Brussels"/>
               <postalCode value="1000"/>
               <country value="Belgium"/>
            </address>
         </Practitioner>
      </resource>
   </entry>
</Bundle>