{
  "resourceType": "Bundle",
  "id": "3e464dc7-71c5-4b80-9c87-f42c2619c55f",
  "meta": {
    "profile": [
      "http://hl7.eu/fhir/laboratory/StructureDefinition/Bundle-eu-lab"
    ]
  },
  "identifier": {
    "assigner": {
      "display": "HL7 Europe"
    },
    "system": "urn:oid:2.16.840.1.113883.2.51.999",
    "value": "312dd522-7918-442e-9403-989319d2cfc0"
  },
  "entry": [
    {
      "fullUrl": "urn:uuid:8f2b1feb-7ad9-4daf-83bb-e26497c3f30a",
      "resource": {
        "resourceType": "Composition",
        "id": "8f2b1feb-7ad9-4daf-83bb-e26497c3f30a",
        "meta": {
          "profile": [
            "http://hl7.eu/fhir/laboratory/StructureDefinition/Composition-eu-lab"
          ]
        },
        "identifier": {
          "assigner": {
            "display": "HL7 Europe"
          },
          "system": "urn:oid:2.16.840.1.113883.2.51.999",
          "value": "bad9b7a6-d9e6-487c-89ea-a901ea268b3b"
        },
        "author": [
          {
            "reference": "urn:uuid:bfa50fea-7703-4ce8-acfc-aa010d3e095a"
          }
        ],
        "category": [
          {
            "coding": [
              {
                "code": "26436-6",
                "system": "http://loinc.org",
                "display": "Laboratory studies (set)"
              }
            ]
          }
        ],
        "type": {
          "coding": [
            {
              "code": "11502-2",
              "system": "http://loinc.org",
              "display": "Laboratory report"
            }
          ],
          "text": "Laboratory Report"
        },
        "section": [
          {
            "code": {
              "coding": [
                {
                  "code": "26436-6",
                  "system": "http://loinc.org",
                  "display": "Laboratory studies (set)"
                }
              ],
              "text": "Laboratory studies"
            },
            "section": [
              {
                "code": {
                  "coding": [
                    {
                      "code": "$18719-5",
                      "system": "http://loinc.org",
                      "display": "Chemistry studies (set)"
                    }
                  ],
                  "text": "Chemistry"
                },
                "entry": [
                  {
                    "reference": "urn:uuid:db434bd0-b139-42ee-b556-e25b4dbd9156"
                  },
                  {
                    "reference": "urn:uuid:df18caa1-a9e7-412b-b137-5e1358260d81"
                  },
                  {
                    "reference": "urn:uuid:8aee0ad4-17c5-4d2d-a1de-da20be39b793"
                  },
                  {
                    "reference": "urn:uuid:333219d6-21f6-43a4-b48b-0aa43472913c"
                  },
                  {
                    "reference": "urn:uuid:38a44469-bf51-4437-ae64-85bd36efddb9"
                  },
                  {
                    "reference": "urn:uuid:edaff150-786c-4797-a3d3-0f12cd3050f5"
                  },
                  {
                    "reference": "urn:uuid:2dbe6bce-6e3b-453f-b231-f49031708ebe"
                  },
                  {
                    "reference": "urn:uuid:bb240e87-72f6-4eac-86e7-ea63722bb58c"
                  },
                  {
                    "reference": "urn:uuid:b10f83cd-b9e4-4ecb-af32-1549402639f1"
                  },
                  {
                    "reference": "urn:uuid:1fe55fb6-a169-47d6-a242-ba211c169a44"
                  },
                  {
                    "reference": "urn:uuid:3da3ab79-d763-40f7-ac0e-0b893e65ff97"
                  },
                  {
                    "reference": "urn:uuid:6647beb2-3789-4772-997e-4d7cdc25bc30"
                  },
                  {
                    "reference": "urn:uuid:cb7b5e11-da55-47a1-8ccd-21151d8fea91"
                  },
                  {
                    "reference": "urn:uuid:b44efcca-eca8-46e5-8482-c26b74d6197d"
                  },
                  {
                    "reference": "urn:uuid:8426a708-a9f4-4647-9514-99aae88f3f3d"
                  },
                  {
                    "reference": "urn:uuid:72480d2f-1882-411e-81ea-0b62a2666658"
                  }
                ],
                "text": {
                  "status": "generated",
                  "div": "<div xmlns=\"http://www.w3.org/1999/xhtml\"><h3>Chemistry</h3><table class=\"hl7__eu__lab__report\"><thead><tr><th>Test</th><th>12-DEC-2015</th><th>Reference&#xA0;Range</th><th>Unit</th></tr></thead><tbody><tr><td>Glucose [Mass/volume] in Blood</td><td>70.1</td><td>70 - 140</td><td>mg/dL</td></tr><tr><td>Urea nitrogen [Mass/volume] in Blood</td><td>9.3</td><td>7 - 30</td><td>mg/dL</td></tr><tr><td>Creatinine [Mass/volume] in Blood</td><td><strong>3.0 H</strong></td><td>0.5 - 1.3</td><td>mg/dL</td></tr><tr><td>Calcium [Mass/volume] in Blood</td><td>9.8</td><td>8.6 - 10.2</td><td>mg/dL</td></tr><tr><td>Sodium [Moles/volume] in Blood</td><td>139.1</td><td>135 - 145</td><td>mmol/L</td></tr><tr><td>Potassium [Moles/volume] in Blood</td><td>4.9</td><td>3.5 - 5.1</td><td>mmol/L</td></tr><tr><td>Chloride [Moles/volume] in Blood</td><td>109.6</td><td>98 - 114</td><td>mmol/L</td></tr><tr><td>Carbon dioxide, total [Moles/volume] in Blood</td><td>22.8</td><td>22 - 32</td><td>mmol/L</td></tr><tr><td>Protein [Mass/volume] in Serum or Plasma</td><td>7.0</td><td>6 - 8.3</td><td>g/dL</td></tr><tr><td>Albumin [Mass/volume] in Serum or Plasma</td><td>4.3</td><td>3.5 - 5.5</td><td>g/dL</td></tr><tr><td>Globulin [Mass/volume] in Serum by calculation</td><td>3.0</td><td>2 - 3.5</td><td>g/L</td></tr><tr><td>Bilirubin.total [Mass/volume] in Serum or Plasma</td><td>0.6</td><td>0.3 - 1.2</td><td>mg/dL</td></tr><tr><td>Alkaline phosphatase [Enzymatic activity/volume] in Serum or Plasma</td><td>130.5</td><td>44 - 142</td><td>U/L</td></tr><tr><td>Alanine aminotransferase [Enzymatic activity/volume] in Serum or Plasma</td><td>27.0</td><td>7 - 40</td><td>U/L</td></tr><tr><td>Aspartate aminotransferase [Enzymatic activity/volume] in Serum or Plasma</td><td>24.7</td><td>10 - 40</td><td>U/L</td></tr><tr><td>Ketones [Presence] in Urine by Test strip</td><td>Urine ketone test = +++</td><td></td><td></td></tr></tbody></table></div>"
                },
                "title": "Chemistry"
              },
              {
                "code": {
                  "coding": [
                    {
                      "code": "$18729-4",
                      "system": "http://loinc.org",
                      "display": "Urinalysis studies (set)"
                    }
                  ],
                  "text": "Urinalysis"
                },
                "entry": [
                  {
                    "reference": "urn:uuid:dcb1f695-4890-46f1-98d0-9131add99f6d"
                  },
                  {
                    "reference": "urn:uuid:0061ce66-8862-4ef2-be84-d1a04f13f689"
                  },
                  {
                    "reference": "urn:uuid:1503d731-c763-40d7-8d01-8612ac774fb5"
                  },
                  {
                    "reference": "urn:uuid:cc798885-43c1-4589-862e-2e4df515fffc"
                  },
                  {
                    "reference": "urn:uuid:abc4ceb5-7890-4b83-bd3b-187a955a491f"
                  },
                  {
                    "reference": "urn:uuid:8c9f9467-219d-4580-9c20-c815606829c0"
                  },
                  {
                    "reference": "urn:uuid:013e49cf-4896-46b5-a436-9b2574d7a458"
                  },
                  {
                    "reference": "urn:uuid:0fe1cb8b-ca49-4c2a-b2b6-810700a24db1"
                  },
                  {
                    "reference": "urn:uuid:4fc0456f-df18-4e50-ab1d-5d5f3ae8204d"
                  },
                  {
                    "reference": "urn:uuid:e300a504-e710-4dc1-ba9b-3628fd186bd6"
                  },
                  {
                    "reference": "urn:uuid:2ac6c5ab-0a3e-411c-866c-a1262ba9cb12"
                  },
                  {
                    "reference": "urn:uuid:70f3a3ba-d053-43b6-aff5-dda8c97853a9"
                  }
                ],
                "text": {
                  "status": "generated",
                  "div": "<div xmlns=\"http://www.w3.org/1999/xhtml\"><h3>Urinalysis</h3><table class=\"hl7__eu__lab__report\"><thead><tr><th>Test</th><th>12-DEC-2015</th><th>Reference&#xA0;Range</th><th>Unit</th></tr></thead><tbody><tr><td>Glucose [Mass/volume] in Urine by Test strip</td><td><strong>0.8 H</strong></td><td>0.8 - 0</td><td>mg/dL</td></tr><tr><td>Glucose [Presence] in Urine by Test strip</td><td>++</td><td></td><td></td></tr><tr><td>Bilirubin.total [Mass/volume] in Urine by Test strip</td><td>0.4</td><td>0 - 1.5</td><td>mg/dL</td></tr><tr><td>Bilirubin.total [Presence] in Urine by Test strip</td><td>Finding of bilirubin in urine</td><td></td><td></td></tr><tr><td>Ketones [Mass/volume] in Urine by Test strip</td><td><strong>9.2 H</strong></td><td>0 - 8</td><td>mg/dL</td></tr><tr><td>Specific gravity of Urine by Test strip</td><td><strong>1.0 L</strong></td><td>1.01 - 1.03</td><td>{nominal}</td></tr><tr><td>pH of Urine by Test strip</td><td>5.6</td><td>4.6 - 7.5</td><td>pH</td></tr><tr><td>Protein [Mass/volume] in Urine by Test strip</td><td><strong>427.4 H</strong></td><td>0 - 14</td><td>mg/dL</td></tr><tr><td>Protein [Presence] in Urine by Test strip</td><td>Urine protein test = +++</td><td></td><td></td></tr><tr><td>Nitrite [Presence] in Urine by Test strip</td><td>Urine nitrite negative</td><td></td><td></td></tr><tr><td>Hemoglobin [Presence] in Urine by Test strip</td><td>Urine blood test = negative</td><td></td><td></td></tr><tr><td>Leukocyte esterase [Presence] in Urine by Test strip</td><td>Urine leukocyte test negative</td><td></td><td></td></tr></tbody></table></div>"
                },
                "title": "Urinalysis"
              },
              {
                "code": {
                  "coding": [
                    {
                      "code": "$LP7846-1",
                      "system": "http://loinc.org",
                      "display": "Specimen information"
                    }
                  ],
                  "text": "Specimen information"
                },
                "entry": [
                  {
                    "reference": "urn:uuid:a8faa81e-b9d1-4cf4-b83b-f1e22950c27d"
                  },
                  {
                    "reference": "urn:uuid:e87a0b56-bbea-466d-95c7-1475c010235c"
                  },
                  {
                    "reference": "urn:uuid:84d10217-6dfa-45b2-bf22-1824181d8a18"
                  },
                  {
                    "reference": "urn:uuid:3537a3c9-f617-4aed-a262-e113649f7cc8"
                  }
                ],
                "text": {
                  "status": "generated",
                  "div": "<div xmlns=\"http://www.w3.org/1999/xhtml\"><h3>Specimen information</h3><table class=\"hl7__eu__lab__report\"><thead><tr><th>Test</th><th>12-DEC-2015</th><th>Specimen</th><th></th></tr></thead><tbody><tr><td>Appearance of Urine</td><td>Cloudy urine</td><td>Urine</td><td></td></tr><tr><td>Odor of Urine</td><td>Urine smell ammoniacal</td><td>Urine</td><td></td></tr><tr><td>Clarity of Urine</td><td>Translucent</td><td>Urine</td><td></td></tr><tr><td>Color of Urine</td><td>Brown color</td><td>Urine</td><td></td></tr></tbody></table></div>"
                },
                "title": "Specimen information"
              }
            ],
            "title": "Laboratory Report"
          },
          {
            "text": {
              "status": "generated",
              "div": "<div xmlns=\"http://www.w3.org/1999/xhtml\"><h3>Annotation</h3><table class=\"hl7__eu__lab__report\"><tr><th>Conclusion and Recommendations based on this report and previous findings known to us</th></tr><tr><td>The patient shows markedly elevated serum creatinine, indicating significant renal impairment. Urinalysis reveals proteinuria, glycosuria, and ketonuria, with low specific gravity and abnormal urine appearance (cloudy, brown, ammoniacal), suggesting possible nephrotic syndrome or advanced diabetic nephropathy. No evidence of urinary tract infection. Liver enzymes and electrolytes are within normal limits. Recommend urgent nephrology evaluation and further assessment of underlying etiology.</td></tr></table></div>"
            },
            "code": {
              "coding": [
                {
                  "system": "http://loinc.org",
                  "code": "48767-8",
                  "display": "Annotation comment"
                }
              ]
            },
            "title": "Annotation comment"
          }
        ],
        "status": "final",
        "subject": {
          "reference": "urn:uuid:c9c935c1-41cf-479b-93d8-f88e594cd060",
          "display": "Maria Nohlmans"
        },
        "date": "2015-12-12T17:58:39Z",
        "title": "Laboratory Report",
        "confidentiality": "N"
      }
    },
    {
      "fullUrl": "urn:uuid:f90b1e14-45db-4c25-a973-0310316f9ed6",
      "resource": {
        "resourceType": "DiagnosticReport",
        "id": "f90b1e14-45db-4c25-a973-0310316f9ed6",
        "meta": {
          "profile": [
            "http://hl7.eu/fhir/laboratory/StructureDefinition/DiagnosticReport-eu-lab"
          ]
        },
        "identifier": [
          {
            "assigner": {
              "display": "HL7 Europe"
            },
            "system": "urn:oid:2.16.840.1.113883.2.51.999",
            "value": "4ca508f5-efad-4ca9-b8d5-bfc2eda83460"
          }
        ],
        "extension": [
          {
            "url": "http://hl7.org/fhir/5.0/StructureDefinition/extension-DiagnosticReport.composition",
            "valueReference": {
              "reference": "urn:uuid:bad9b7a6-d9e6-487c-89ea-a901ea268b3b"
            }
          }
        ],
        "category": [
          {
            "coding": [
              {
                "code": "26436-6",
                "system": "http://loinc.org",
                "display": "Laboratory studies (set)"
              }
            ]
          }
        ],
        "specimen": [
          {
            "reference": "urn:uuid:2a1b0ae3-3e63-4cde-a581-c2d18800053b"
          },
          {
            "reference": "urn:uuid:f9c3c69a-2129-48af-952b-9b5ff9c3609f"
          },
          {
            "reference": "urn:uuid:31a0b97f-bd44-4a9c-b73d-40d2294e8027"
          },
          {
            "reference": "urn:uuid:be0f419a-beac-4d4b-af2e-9903bcc60f18"
          }
        ],
        "result": [
          {
            "reference": "urn:uuid:db434bd0-b139-42ee-b556-e25b4dbd9156"
          },
          {
            "reference": "urn:uuid:df18caa1-a9e7-412b-b137-5e1358260d81"
          },
          {
            "reference": "urn:uuid:8aee0ad4-17c5-4d2d-a1de-da20be39b793"
          },
          {
            "reference": "urn:uuid:333219d6-21f6-43a4-b48b-0aa43472913c"
          },
          {
            "reference": "urn:uuid:38a44469-bf51-4437-ae64-85bd36efddb9"
          },
          {
            "reference": "urn:uuid:edaff150-786c-4797-a3d3-0f12cd3050f5"
          },
          {
            "reference": "urn:uuid:2dbe6bce-6e3b-453f-b231-f49031708ebe"
          },
          {
            "reference": "urn:uuid:bb240e87-72f6-4eac-86e7-ea63722bb58c"
          },
          {
            "reference": "urn:uuid:b10f83cd-b9e4-4ecb-af32-1549402639f1"
          },
          {
            "reference": "urn:uuid:1fe55fb6-a169-47d6-a242-ba211c169a44"
          },
          {
            "reference": "urn:uuid:3da3ab79-d763-40f7-ac0e-0b893e65ff97"
          },
          {
            "reference": "urn:uuid:6647beb2-3789-4772-997e-4d7cdc25bc30"
          },
          {
            "reference": "urn:uuid:cb7b5e11-da55-47a1-8ccd-21151d8fea91"
          },
          {
            "reference": "urn:uuid:b44efcca-eca8-46e5-8482-c26b74d6197d"
          },
          {
            "reference": "urn:uuid:8426a708-a9f4-4647-9514-99aae88f3f3d"
          },
          {
            "reference": "urn:uuid:a8faa81e-b9d1-4cf4-b83b-f1e22950c27d"
          },
          {
            "reference": "urn:uuid:e87a0b56-bbea-466d-95c7-1475c010235c"
          },
          {
            "reference": "urn:uuid:84d10217-6dfa-45b2-bf22-1824181d8a18"
          },
          {
            "reference": "urn:uuid:3537a3c9-f617-4aed-a262-e113649f7cc8"
          },
          {
            "reference": "urn:uuid:dcb1f695-4890-46f1-98d0-9131add99f6d"
          },
          {
            "reference": "urn:uuid:0061ce66-8862-4ef2-be84-d1a04f13f689"
          },
          {
            "reference": "urn:uuid:1503d731-c763-40d7-8d01-8612ac774fb5"
          },
          {
            "reference": "urn:uuid:cc798885-43c1-4589-862e-2e4df515fffc"
          },
          {
            "reference": "urn:uuid:abc4ceb5-7890-4b83-bd3b-187a955a491f"
          },
          {
            "reference": "urn:uuid:72480d2f-1882-411e-81ea-0b62a2666658"
          },
          {
            "reference": "urn:uuid:8c9f9467-219d-4580-9c20-c815606829c0"
          },
          {
            "reference": "urn:uuid:013e49cf-4896-46b5-a436-9b2574d7a458"
          },
          {
            "reference": "urn:uuid:0fe1cb8b-ca49-4c2a-b2b6-810700a24db1"
          },
          {
            "reference": "urn:uuid:4fc0456f-df18-4e50-ab1d-5d5f3ae8204d"
          },
          {
            "reference": "urn:uuid:e300a504-e710-4dc1-ba9b-3628fd186bd6"
          },
          {
            "reference": "urn:uuid:2ac6c5ab-0a3e-411c-866c-a1262ba9cb12"
          },
          {
            "reference": "urn:uuid:70f3a3ba-d053-43b6-aff5-dda8c97853a9"
          }
        ],
        "status": "registered",
        "code": {
          "coding": [
            {
              "code": "11502-2",
              "system": "http://loinc.org",
              "display": "Laboratory report"
            }
          ]
        },
        "subject": {
          "reference": "urn:uuid:c9c935c1-41cf-479b-93d8-f88e594cd060",
          "display": "Maria Nohlmans"
        }
      }
    },
    {
      "fullUrl": "urn:uuid:c9c935c1-41cf-479b-93d8-f88e594cd060",
      "resource": {
        "resourceType": "Patient",
        "id": "c9c935c1-41cf-479b-93d8-f88e594cd060",
        "meta": {
          "security": [
            {
              "system": "http://terminology.hl7.org/CodeSystem/v3-ActReason",
              "code": "HTEST"
            },
            {
              "system": "http://terminology.hl7.org/CodeSystem/v3-ActReason",
              "code": "TRAIN"
            }
          ],
          "tag": [
            {
              "system": "https://synderai.net/fhir/CodeSystem/tags",
              "code": "synthetic",
              "display": "SYNDERAI Synthetic data"
            }
          ],
          "profile": [
            "http://hl7.eu/fhir/base/StructureDefinition/patient-eu-core"
          ]
        },
        "identifier": [
          {
            "type": {
              "coding": [
                {
                  "code": "PT",
                  "system": "http://terminology.hl7.org/CodeSystem/v2-0203"
                }
              ]
            },
            "system": "http://ec.europa.eu/identifier/eci",
            "value": "6886-506417-1"
          },
          {
            "type": {
              "coding": [
                {
                  "code": "MR",
                  "system": "http://terminology.hl7.org/CodeSystem/v2-0203"
                }
              ]
            },
            "system": "http://local.setting.eu/identifier",
            "value": "2cb21ed6-b617-b1f3-2290-589a710de5ee"
          }
        ],
        "name": [
          {
            "family": "Nohlmans"
          },
          {
            "given": [
              "Maria"
            ]
          },
          {
            "text": "Maria Nohlmans"
          }
        ],
        "address": [
          {
            "line": [
              "Alfons-Wulff-Weg 1"
            ],
            "use": "home",
            "type": "physical",
            "postalCode": "25813",
            "city": "Husum",
            "country": "Germany"
          }
        ],
        "telecom": [
          {
            "system": "phone",
            "value": "+49(0)1911 105501"
          }
        ],
        "extension": [
          {
            "url": "http://hl7.org/fhir/StructureDefinition/patient-nationality",
            "valueCodeableConcept": {
              "coding": [
                {
                  "code": "DE",
                  "system": "http://hl7.org/fhir/ValueSet/country"
                }
              ]
            }
          }
        ],
        "text": {
          "status": "generated",
          "div": "<div xmlns=\"http://www.w3.org/1999/xhtml\"><table class=\"hl7__ips\"><tr><td>Maria Nohlmans</td><td>female</td><td>11-Jun-1947</td></tr></table></div>"
        },
        "gender": "female",
        "birthDate": "1947-06-11"
      }
    },
    {
      "fullUrl": "urn:uuid:c041b15d-9d3c-430b-b18c-d692c0e93dca",
      "resource": {
        "resourceType": "ServiceRequest",
        "id": "c041b15d-9d3c-430b-b18c-d692c0e93dca",
        "meta": {
          "profile": [
            "http://hl7.eu/fhir/laboratory/StructureDefinition/ServiceRequest-eu-lab"
          ]
        },
        "identifier": [
          {
            "system": "http://example.org",
            "value": "4eea387f-db10-41d2-9716-1a3a49cc7f7c"
          }
        ],
        "specimen": [
          {
            "reference": "urn:uuid:2a1b0ae3-3e63-4cde-a581-c2d18800053b"
          },
          {
            "reference": "urn:uuid:f9c3c69a-2129-48af-952b-9b5ff9c3609f"
          },
          {
            "reference": "urn:uuid:31a0b97f-bd44-4a9c-b73d-40d2294e8027"
          },
          {
            "reference": "urn:uuid:be0f419a-beac-4d4b-af2e-9903bcc60f18"
          }
        ],
        "reasonCode": [
          {
            "coding": [
              {
                "code": "401314000",
                "system": "http://snomed.info/sct",
                "display": "Acute non-ST segment elevation myocardial infarction"
              }
            ]
          },
          {
            "coding": [
              {
                "code": "157141000119108",
                "system": "http://snomed.info/sct",
                "display": "Proteinuria due to type 2 diabetes mellitus"
              }
            ]
          },
          {
            "coding": [
              {
                "code": "237602007",
                "system": "http://snomed.info/sct",
                "display": "Metabolic syndrome X"
              }
            ]
          },
          {
            "coding": [
              {
                "code": "90781000119102",
                "system": "http://snomed.info/sct",
                "display": "Microalbuminuria due to type 2 diabetes mellitus"
              }
            ]
          },
          {
            "coding": [
              {
                "code": "127013003",
                "system": "http://snomed.info/sct",
                "display": "Disorder of kidney due to diabetes mellitus"
              }
            ]
          },
          {
            "coding": [
              {
                "code": "59621000",
                "system": "http://snomed.info/sct",
                "display": "Essential hypertension"
              }
            ]
          },
          {
            "coding": [
              {
                "code": "271737000",
                "system": "http://snomed.info/sct",
                "display": "Anemia"
              }
            ]
          },
          {
            "coding": [
              {
                "code": "15777000",
                "system": "http://snomed.info/sct",
                "display": "Prediabetes"
              }
            ]
          }
        ],
        "status": "active",
        "intent": "order",
        "code": {
          "coding": [
            {
              "code": "108252007",
              "system": "http://snomed.info/sct",
              "display": "Laboratory procedure"
            }
          ]
        },
        "subject": {
          "reference": "urn:uuid:c9c935c1-41cf-479b-93d8-f88e594cd060",
          "display": "Maria Nohlmans"
        },
        "requester": {
          "reference": "urn:uuid:7835bae7-1300-4554-b0d7-bc6faf4266f1"
        }
      }
    },
    {
      "fullUrl": "urn:uuid:7835bae7-1300-4554-b0d7-bc6faf4266f1",
      "resource": {
        "resourceType": "PractitionerRole",
        "id": "7835bae7-1300-4554-b0d7-bc6faf4266f1",
        "meta": {
          "profile": [
            "http://hl7.eu/fhir/base/StructureDefinition/practitionerRole-eu"
          ]
        },
        "text": {
          "status": "generated",
          "div": "<div xmlns=\"http://www.w3.org/1999/xhtml\">Provider Role Id: 7835bae7-1300-4554-b0d7-bc6faf4266f1</div>"
        },
        "organization": {
          "reference": "urn:uuid:51383f5a-de53-4dab-808c-b5f898133952"
        }
      }
    },
    {
      "fullUrl": "urn:uuid:51383f5a-de53-4dab-808c-b5f898133952",
      "resource": {
        "resourceType": "Organization",
        "id": "51383f5a-de53-4dab-808c-b5f898133952",
        "meta": {
          "profile": [
            "http://hl7.eu/fhir/base/StructureDefinition/organization-eu"
          ]
        },
        "identifier": [
          {
            "assigner": {
              "display": "HL7 Europe"
            },
            "system": "urn:oid:2.16.840.1.113883.2.51.999",
            "value": "c45ed7f8-a641-4551-9d7d-6703a8d764f2"
          }
        ],
        "address": [
          {
            "line": [
              "Brinckmannstraße 35"
            ],
            "city": "Husum",
            "postalCode": "25813",
            "country": "Germany"
          }
        ],
        "text": {
          "status": "generated",
          "div": "<div xmlns=\"http://www.w3.org/1999/xhtml\">Provider Organization: Dr. Wolfram Hussels Kieferorthopäde</div>"
        },
        "name": "Dr. Wolfram Hussels Kieferorthopäde"
      }
    },
    {
      "fullUrl": "urn:uuid:2a1b0ae3-3e63-4cde-a581-c2d18800053b",
      "resource": {
        "resourceType": "Specimen",
        "id": "2a1b0ae3-3e63-4cde-a581-c2d18800053b",
        "meta": {
          "profile": [
            "http://hl7.eu/fhir/laboratory/StructureDefinition/Specimen-eu-lab"
          ]
        },
        "collection": {
          "collectedDateTime": "2015-12-12"
        },
        "text": {
          "status": "generated",
          "div": "<div xmlns=\"http://www.w3.org/1999/xhtml\"><table class=\"hl7__eu__lab__report\"><tr><th>Specimen</th><th>Collection Date</th></tr><tr><td>Whole blood specimen (specimen)</td><td><span class=\"nb\">12-Dec-2015</span></td></tr></table></div>"
        },
        "type": {
          "coding": [
            {
              "code": "258580003",
              "system": "http://snomed.info/sct",
              "display": "Whole blood specimen (specimen)"
            }
          ]
        }
      }
    },
    {
      "fullUrl": "urn:uuid:f9c3c69a-2129-48af-952b-9b5ff9c3609f",
      "resource": {
        "resourceType": "Specimen",
        "id": "f9c3c69a-2129-48af-952b-9b5ff9c3609f",
        "meta": {
          "profile": [
            "http://hl7.eu/fhir/laboratory/StructureDefinition/Specimen-eu-lab"
          ]
        },
        "collection": {
          "collectedDateTime": "2015-12-12"
        },
        "text": {
          "status": "generated",
          "div": "<div xmlns=\"http://www.w3.org/1999/xhtml\"><table class=\"hl7__eu__lab__report\"><tr><th>Specimen</th><th>Collection Date</th></tr><tr><td>Acellular blood (serum or plasma) specimen</td><td><span class=\"nb\">12-Dec-2015</span></td></tr></table></div>"
        },
        "type": {
          "coding": [
            {
              "code": "122592007",
              "system": "http://snomed.info/sct",
              "display": "Acellular blood (serum or plasma) specimen"
            }
          ]
        }
      }
    },
    {
      "fullUrl": "urn:uuid:31a0b97f-bd44-4a9c-b73d-40d2294e8027",
      "resource": {
        "resourceType": "Specimen",
        "id": "31a0b97f-bd44-4a9c-b73d-40d2294e8027",
        "meta": {
          "profile": [
            "http://hl7.eu/fhir/laboratory/StructureDefinition/Specimen-eu-lab"
          ]
        },
        "collection": {
          "collectedDateTime": "2015-12-12"
        },
        "text": {
          "status": "generated",
          "div": "<div xmlns=\"http://www.w3.org/1999/xhtml\"><table class=\"hl7__eu__lab__report\"><tr><th>Specimen</th><th>Collection Date</th></tr><tr><td>Serum specimen</td><td><span class=\"nb\">12-Dec-2015</span></td></tr></table></div>"
        },
        "type": {
          "coding": [
            {
              "code": "119364003",
              "system": "http://snomed.info/sct",
              "display": "Serum specimen"
            }
          ]
        }
      }
    },
    {
      "fullUrl": "urn:uuid:be0f419a-beac-4d4b-af2e-9903bcc60f18",
      "resource": {
        "resourceType": "Specimen",
        "id": "be0f419a-beac-4d4b-af2e-9903bcc60f18",
        "meta": {
          "profile": [
            "http://hl7.eu/fhir/laboratory/StructureDefinition/Specimen-eu-lab"
          ]
        },
        "collection": {
          "collectedDateTime": "2015-12-12"
        },
        "text": {
          "status": "generated",
          "div": "<div xmlns=\"http://www.w3.org/1999/xhtml\"><table class=\"hl7__eu__lab__report\"><tr><th>Specimen</th><th>Collection Date</th></tr><tr><td>Urine specimen</td><td><span class=\"nb\">12-Dec-2015</span></td></tr></table></div>"
        },
        "type": {
          "coding": [
            {
              "code": "122575003",
              "system": "http://snomed.info/sct",
              "display": "Urine specimen"
            }
          ]
        }
      }
    },
    {
      "fullUrl": "urn:uuid:db434bd0-b139-42ee-b556-e25b4dbd9156",
      "resource": {
        "resourceType": "Observation",
        "id": "db434bd0-b139-42ee-b556-e25b4dbd9156",
        "meta": {
          "profile": [
            "http://hl7.eu/fhir/laboratory/StructureDefinition/Observation-resultslab-eu-lab"
          ]
        },
        "performer": [
          {
            "display": "The Central European Lab"
          }
        ],
        "category": [
          {
            "coding": [
              {
                "system": "http://terminology.hl7.org/CodeSystem/observation-category",
                "code": "laboratory"
              }
            ]
          }
        ],
        "code": {
          "coding": [
            {
              "code": "2339-0",
              "system": "http://loinc.org",
              "display": "Glucose [Mass/volume] in Blood"
            }
          ],
          "text": "Glucose [Mass/volume] in Blood"
        },
        "valueQuantity": {
          "system": "http://unitsofmeasure.org",
          "value": 70.1,
          "unit": "mg/dL",
          "code": "mg/dL"
        },
        "referenceRange": [
          {
            "low": {
              "value": 70,
              "code": "mg/dL",
              "system": "http://unitsofmeasure.org"
            }
          },
          {
            "high": {
              "value": 140,
              "code": "mg/dL",
              "system": "http://unitsofmeasure.org"
            }
          }
        ],
        "text": {
          "status": "generated",
          "div": "<div xmlns=\"http://www.w3.org/1999/xhtml\"><table class=\"hl7__eu__lab__report\"><tr><th>Test</th><th>12-Dec-2015</th><th>Reference&#xA0;Range</th><th>Unit</th></tr><tr><td>Glucose [Mass/volume] in Blood</td><td>70.1</td><td>70 - 140</td><td></td><td>mg/dL</td></tr></table></div>"
        },
        "status": "final",
        "subject": {
          "reference": "urn:uuid:c9c935c1-41cf-479b-93d8-f88e594cd060",
          "display": "Maria Nohlmans"
        },
        "effectiveDateTime": "2015-12-12T16:58:39Z",
        "specimen": {
          "reference": "urn:uuid:2a1b0ae3-3e63-4cde-a581-c2d18800053b"
        }
      }
    },
    {
      "fullUrl": "urn:uuid:df18caa1-a9e7-412b-b137-5e1358260d81",
      "resource": {
        "resourceType": "Observation",
        "id": "df18caa1-a9e7-412b-b137-5e1358260d81",
        "meta": {
          "profile": [
            "http://hl7.eu/fhir/laboratory/StructureDefinition/Observation-resultslab-eu-lab"
          ]
        },
        "performer": [
          {
            "display": "The Central European Lab"
          }
        ],
        "category": [
          {
            "coding": [
              {
                "system": "http://terminology.hl7.org/CodeSystem/observation-category",
                "code": "laboratory"
              }
            ]
          }
        ],
        "code": {
          "coding": [
            {
              "code": "6299-2",
              "system": "http://loinc.org",
              "display": "Urea nitrogen [Mass/volume] in Blood"
            }
          ],
          "text": "Urea nitrogen [Mass/volume] in Blood"
        },
        "valueQuantity": {
          "system": "http://unitsofmeasure.org",
          "value": 9.3,
          "unit": "mg/dL",
          "code": "mg/dL"
        },
        "referenceRange": [
          {
            "low": {
              "value": 7,
              "code": "mg/dL",
              "system": "http://unitsofmeasure.org"
            }
          },
          {
            "high": {
              "value": 30,
              "code": "mg/dL",
              "system": "http://unitsofmeasure.org"
            }
          }
        ],
        "text": {
          "status": "generated",
          "div": "<div xmlns=\"http://www.w3.org/1999/xhtml\"><table class=\"hl7__eu__lab__report\"><tr><th>Test</th><th>12-Dec-2015</th><th>Reference&#xA0;Range</th><th>Unit</th></tr><tr><td>Urea nitrogen [Mass/volume] in Blood</td><td>9.3</td><td>7 - 30</td><td></td><td>mg/dL</td></tr></table></div>"
        },
        "status": "final",
        "subject": {
          "reference": "urn:uuid:c9c935c1-41cf-479b-93d8-f88e594cd060",
          "display": "Maria Nohlmans"
        },
        "effectiveDateTime": "2015-12-12T16:58:39Z",
        "specimen": {
          "reference": "urn:uuid:2a1b0ae3-3e63-4cde-a581-c2d18800053b"
        }
      }
    },
    {
      "fullUrl": "urn:uuid:8aee0ad4-17c5-4d2d-a1de-da20be39b793",
      "resource": {
        "resourceType": "Observation",
        "id": "8aee0ad4-17c5-4d2d-a1de-da20be39b793",
        "meta": {
          "profile": [
            "http://hl7.eu/fhir/laboratory/StructureDefinition/Observation-resultslab-eu-lab"
          ]
        },
        "performer": [
          {
            "display": "The Central European Lab"
          }
        ],
        "category": [
          {
            "coding": [
              {
                "system": "http://terminology.hl7.org/CodeSystem/observation-category",
                "code": "laboratory"
              }
            ]
          }
        ],
        "code": {
          "coding": [
            {
              "code": "38483-4",
              "system": "http://loinc.org",
              "display": "Creatinine [Mass/volume] in Blood"
            }
          ],
          "text": "Creatinine [Mass/volume] in Blood"
        },
        "valueQuantity": {
          "system": "http://unitsofmeasure.org",
          "value": 3,
          "unit": "mg/dL",
          "code": "mg/dL"
        },
        "referenceRange": [
          {
            "low": {
              "value": 0.5,
              "code": "mg/dL",
              "system": "http://unitsofmeasure.org"
            }
          },
          {
            "high": {
              "value": 1.3,
              "code": "mg/dL",
              "system": "http://unitsofmeasure.org"
            }
          }
        ],
        "interpretation": [
          {
            "coding": [
              {
                "code": "H",
                "system": "http://terminology.hl7.org/CodeSystem/v3-ObservationInterpretation",
                "display": "High"
              }
            ]
          }
        ],
        "text": {
          "status": "generated",
          "div": "<div xmlns=\"http://www.w3.org/1999/xhtml\"><table class=\"hl7__eu__lab__report\"><tr><th>Test</th><th>12-Dec-2015</th><th>Reference&#xA0;Range</th><th>Unit</th></tr><tr><td>Creatinine [Mass/volume] in Blood</td><td>3.0</td><td>0.5 - 1.3</td><td>H</td><td>mg/dL</td></tr></table></div>"
        },
        "status": "final",
        "subject": {
          "reference": "urn:uuid:c9c935c1-41cf-479b-93d8-f88e594cd060",
          "display": "Maria Nohlmans"
        },
        "effectiveDateTime": "2015-12-12T16:58:39Z",
        "specimen": {
          "reference": "urn:uuid:2a1b0ae3-3e63-4cde-a581-c2d18800053b"
        }
      }
    },
    {
      "fullUrl": "urn:uuid:333219d6-21f6-43a4-b48b-0aa43472913c",
      "resource": {
        "resourceType": "Observation",
        "id": "333219d6-21f6-43a4-b48b-0aa43472913c",
        "meta": {
          "profile": [
            "http://hl7.eu/fhir/laboratory/StructureDefinition/Observation-resultslab-eu-lab"
          ]
        },
        "performer": [
          {
            "display": "The Central European Lab"
          }
        ],
        "category": [
          {
            "coding": [
              {
                "system": "http://terminology.hl7.org/CodeSystem/observation-category",
                "code": "laboratory"
              }
            ]
          }
        ],
        "code": {
          "coding": [
            {
              "code": "49765-1",
              "system": "http://loinc.org",
              "display": "Calcium [Mass/volume] in Blood"
            }
          ],
          "text": "Calcium [Mass/volume] in Blood"
        },
        "valueQuantity": {
          "system": "http://unitsofmeasure.org",
          "value": 9.8,
          "unit": "mg/dL",
          "code": "mg/dL"
        },
        "referenceRange": [
          {
            "low": {
              "value": 8.6,
              "code": "mg/dL",
              "system": "http://unitsofmeasure.org"
            }
          },
          {
            "high": {
              "value": 10.2,
              "code": "mg/dL",
              "system": "http://unitsofmeasure.org"
            }
          }
        ],
        "text": {
          "status": "generated",
          "div": "<div xmlns=\"http://www.w3.org/1999/xhtml\"><table class=\"hl7__eu__lab__report\"><tr><th>Test</th><th>12-Dec-2015</th><th>Reference&#xA0;Range</th><th>Unit</th></tr><tr><td>Calcium [Mass/volume] in Blood</td><td>9.8</td><td>8.6 - 10.2</td><td></td><td>mg/dL</td></tr></table></div>"
        },
        "status": "final",
        "subject": {
          "reference": "urn:uuid:c9c935c1-41cf-479b-93d8-f88e594cd060",
          "display": "Maria Nohlmans"
        },
        "effectiveDateTime": "2015-12-12T16:58:39Z",
        "specimen": {
          "reference": "urn:uuid:2a1b0ae3-3e63-4cde-a581-c2d18800053b"
        }
      }
    },
    {
      "fullUrl": "urn:uuid:38a44469-bf51-4437-ae64-85bd36efddb9",
      "resource": {
        "resourceType": "Observation",
        "id": "38a44469-bf51-4437-ae64-85bd36efddb9",
        "meta": {
          "profile": [
            "http://hl7.eu/fhir/laboratory/StructureDefinition/Observation-resultslab-eu-lab"
          ]
        },
        "performer": [
          {
            "display": "The Central European Lab"
          }
        ],
        "category": [
          {
            "coding": [
              {
                "system": "http://terminology.hl7.org/CodeSystem/observation-category",
                "code": "laboratory"
              }
            ]
          }
        ],
        "code": {
          "coding": [
            {
              "code": "2947-0",
              "system": "http://loinc.org",
              "display": "Sodium [Moles/volume] in Blood"
            }
          ],
          "text": "Sodium [Moles/volume] in Blood"
        },
        "valueQuantity": {
          "system": "http://unitsofmeasure.org",
          "value": 139.1,
          "unit": "mmol/L",
          "code": "mmol/L"
        },
        "referenceRange": [
          {
            "low": {
              "value": 135,
              "code": "mmol/L",
              "system": "http://unitsofmeasure.org"
            }
          },
          {
            "high": {
              "value": 145,
              "code": "mmol/L",
              "system": "http://unitsofmeasure.org"
            }
          }
        ],
        "text": {
          "status": "generated",
          "div": "<div xmlns=\"http://www.w3.org/1999/xhtml\"><table class=\"hl7__eu__lab__report\"><tr><th>Test</th><th>12-Dec-2015</th><th>Reference&#xA0;Range</th><th>Unit</th></tr><tr><td>Sodium [Moles/volume] in Blood</td><td>139.1</td><td>135 - 145</td><td></td><td>mmol/L</td></tr></table></div>"
        },
        "status": "final",
        "subject": {
          "reference": "urn:uuid:c9c935c1-41cf-479b-93d8-f88e594cd060",
          "display": "Maria Nohlmans"
        },
        "effectiveDateTime": "2015-12-12T16:58:39Z",
        "specimen": {
          "reference": "urn:uuid:2a1b0ae3-3e63-4cde-a581-c2d18800053b"
        }
      }
    },
    {
      "fullUrl": "urn:uuid:edaff150-786c-4797-a3d3-0f12cd3050f5",
      "resource": {
        "resourceType": "Observation",
        "id": "edaff150-786c-4797-a3d3-0f12cd3050f5",
        "meta": {
          "profile": [
            "http://hl7.eu/fhir/laboratory/StructureDefinition/Observation-resultslab-eu-lab"
          ]
        },
        "performer": [
          {
            "display": "The Central European Lab"
          }
        ],
        "category": [
          {
            "coding": [
              {
                "system": "http://terminology.hl7.org/CodeSystem/observation-category",
                "code": "laboratory"
              }
            ]
          }
        ],
        "code": {
          "coding": [
            {
              "code": "6298-4",
              "system": "http://loinc.org",
              "display": "Potassium [Moles/volume] in Blood"
            }
          ],
          "text": "Potassium [Moles/volume] in Blood"
        },
        "valueQuantity": {
          "system": "http://unitsofmeasure.org",
          "value": 4.9,
          "unit": "mmol/L",
          "code": "mmol/L"
        },
        "referenceRange": [
          {
            "low": {
              "value": 3.5,
              "code": "mmol/L",
              "system": "http://unitsofmeasure.org"
            }
          },
          {
            "high": {
              "value": 5.1,
              "code": "mmol/L",
              "system": "http://unitsofmeasure.org"
            }
          }
        ],
        "text": {
          "status": "generated",
          "div": "<div xmlns=\"http://www.w3.org/1999/xhtml\"><table class=\"hl7__eu__lab__report\"><tr><th>Test</th><th>12-Dec-2015</th><th>Reference&#xA0;Range</th><th>Unit</th></tr><tr><td>Potassium [Moles/volume] in Blood</td><td>4.9</td><td>3.5 - 5.1</td><td></td><td>mmol/L</td></tr></table></div>"
        },
        "status": "final",
        "subject": {
          "reference": "urn:uuid:c9c935c1-41cf-479b-93d8-f88e594cd060",
          "display": "Maria Nohlmans"
        },
        "effectiveDateTime": "2015-12-12T16:58:39Z",
        "specimen": {
          "reference": "urn:uuid:2a1b0ae3-3e63-4cde-a581-c2d18800053b"
        }
      }
    },
    {
      "fullUrl": "urn:uuid:2dbe6bce-6e3b-453f-b231-f49031708ebe",
      "resource": {
        "resourceType": "Observation",
        "id": "2dbe6bce-6e3b-453f-b231-f49031708ebe",
        "meta": {
          "profile": [
            "http://hl7.eu/fhir/laboratory/StructureDefinition/Observation-resultslab-eu-lab"
          ]
        },
        "performer": [
          {
            "display": "The Central European Lab"
          }
        ],
        "category": [
          {
            "coding": [
              {
                "system": "http://terminology.hl7.org/CodeSystem/observation-category",
                "code": "laboratory"
              }
            ]
          }
        ],
        "code": {
          "coding": [
            {
              "code": "2069-3",
              "system": "http://loinc.org",
              "display": "Chloride [Moles/volume] in Blood"
            }
          ],
          "text": "Chloride [Moles/volume] in Blood"
        },
        "valueQuantity": {
          "system": "http://unitsofmeasure.org",
          "value": 109.6,
          "unit": "mmol/L",
          "code": "mmol/L"
        },
        "referenceRange": [
          {
            "low": {
              "value": 98,
              "code": "mmol/L",
              "system": "http://unitsofmeasure.org"
            }
          },
          {
            "high": {
              "value": 114,
              "code": "mmol/L",
              "system": "http://unitsofmeasure.org"
            }
          }
        ],
        "text": {
          "status": "generated",
          "div": "<div xmlns=\"http://www.w3.org/1999/xhtml\"><table class=\"hl7__eu__lab__report\"><tr><th>Test</th><th>12-Dec-2015</th><th>Reference&#xA0;Range</th><th>Unit</th></tr><tr><td>Chloride [Moles/volume] in Blood</td><td>109.6</td><td>98 - 114</td><td></td><td>mmol/L</td></tr></table></div>"
        },
        "status": "final",
        "subject": {
          "reference": "urn:uuid:c9c935c1-41cf-479b-93d8-f88e594cd060",
          "display": "Maria Nohlmans"
        },
        "effectiveDateTime": "2015-12-12T16:58:39Z",
        "specimen": {
          "reference": "urn:uuid:2a1b0ae3-3e63-4cde-a581-c2d18800053b"
        }
      }
    },
    {
      "fullUrl": "urn:uuid:bb240e87-72f6-4eac-86e7-ea63722bb58c",
      "resource": {
        "resourceType": "Observation",
        "id": "bb240e87-72f6-4eac-86e7-ea63722bb58c",
        "meta": {
          "profile": [
            "http://hl7.eu/fhir/laboratory/StructureDefinition/Observation-resultslab-eu-lab"
          ]
        },
        "performer": [
          {
            "display": "The Central European Lab"
          }
        ],
        "category": [
          {
            "coding": [
              {
                "system": "http://terminology.hl7.org/CodeSystem/observation-category",
                "code": "laboratory"
              }
            ]
          }
        ],
        "code": {
          "coding": [
            {
              "code": "20565-8",
              "system": "http://loinc.org",
              "display": "Carbon dioxide, total [Moles/volume] in Blood"
            }
          ],
          "text": "Carbon dioxide, total [Moles/volume] in Blood"
        },
        "valueQuantity": {
          "system": "http://unitsofmeasure.org",
          "value": 22.8,
          "unit": "mmol/L",
          "code": "mmol/L"
        },
        "referenceRange": [
          {
            "low": {
              "value": 22,
              "code": "mmol/L",
              "system": "http://unitsofmeasure.org"
            }
          },
          {
            "high": {
              "value": 32,
              "code": "mmol/L",
              "system": "http://unitsofmeasure.org"
            }
          }
        ],
        "text": {
          "status": "generated",
          "div": "<div xmlns=\"http://www.w3.org/1999/xhtml\"><table class=\"hl7__eu__lab__report\"><tr><th>Test</th><th>12-Dec-2015</th><th>Reference&#xA0;Range</th><th>Unit</th></tr><tr><td>Carbon dioxide, total [Moles/volume] in Blood</td><td>22.8</td><td>22 - 32</td><td></td><td>mmol/L</td></tr></table></div>"
        },
        "status": "final",
        "subject": {
          "reference": "urn:uuid:c9c935c1-41cf-479b-93d8-f88e594cd060",
          "display": "Maria Nohlmans"
        },
        "effectiveDateTime": "2015-12-12T16:58:39Z",
        "specimen": {
          "reference": "urn:uuid:2a1b0ae3-3e63-4cde-a581-c2d18800053b"
        }
      }
    },
    {
      "fullUrl": "urn:uuid:b10f83cd-b9e4-4ecb-af32-1549402639f1",
      "resource": {
        "resourceType": "Observation",
        "id": "b10f83cd-b9e4-4ecb-af32-1549402639f1",
        "meta": {
          "profile": [
            "http://hl7.eu/fhir/laboratory/StructureDefinition/Observation-resultslab-eu-lab"
          ]
        },
        "performer": [
          {
            "display": "The Central European Lab"
          }
        ],
        "category": [
          {
            "coding": [
              {
                "system": "http://terminology.hl7.org/CodeSystem/observation-category",
                "code": "laboratory"
              }
            ]
          }
        ],
        "code": {
          "coding": [
            {
              "code": "2885-2",
              "system": "http://loinc.org",
              "display": "Protein [Mass/volume] in Serum or Plasma"
            }
          ],
          "text": "Protein [Mass/volume] in Serum or Plasma"
        },
        "valueQuantity": {
          "system": "http://unitsofmeasure.org",
          "value": 7,
          "unit": "g/dL",
          "code": "g/dL"
        },
        "referenceRange": [
          {
            "low": {
              "value": 6,
              "code": "g/dL",
              "system": "http://unitsofmeasure.org"
            }
          },
          {
            "high": {
              "value": 8.3,
              "code": "g/dL",
              "system": "http://unitsofmeasure.org"
            }
          }
        ],
        "text": {
          "status": "generated",
          "div": "<div xmlns=\"http://www.w3.org/1999/xhtml\"><table class=\"hl7__eu__lab__report\"><tr><th>Test</th><th>12-Dec-2015</th><th>Reference&#xA0;Range</th><th>Unit</th></tr><tr><td>Protein [Mass/volume] in Serum or Plasma</td><td>7.0</td><td>6 - 8.3</td><td></td><td>g/dL</td></tr></table></div>"
        },
        "status": "final",
        "subject": {
          "reference": "urn:uuid:c9c935c1-41cf-479b-93d8-f88e594cd060",
          "display": "Maria Nohlmans"
        },
        "effectiveDateTime": "2015-12-12T16:58:39Z",
        "specimen": {
          "reference": "urn:uuid:f9c3c69a-2129-48af-952b-9b5ff9c3609f"
        }
      }
    },
    {
      "fullUrl": "urn:uuid:1fe55fb6-a169-47d6-a242-ba211c169a44",
      "resource": {
        "resourceType": "Observation",
        "id": "1fe55fb6-a169-47d6-a242-ba211c169a44",
        "meta": {
          "profile": [
            "http://hl7.eu/fhir/laboratory/StructureDefinition/Observation-resultslab-eu-lab"
          ]
        },
        "performer": [
          {
            "display": "The Central European Lab"
          }
        ],
        "category": [
          {
            "coding": [
              {
                "system": "http://terminology.hl7.org/CodeSystem/observation-category",
                "code": "laboratory"
              }
            ]
          }
        ],
        "code": {
          "coding": [
            {
              "code": "1751-7",
              "system": "http://loinc.org",
              "display": "Albumin [Mass/volume] in Serum or Plasma"
            }
          ],
          "text": "Albumin [Mass/volume] in Serum or Plasma"
        },
        "valueQuantity": {
          "system": "http://unitsofmeasure.org",
          "value": 4.3,
          "unit": "g/dL",
          "code": "g/dL"
        },
        "referenceRange": [
          {
            "low": {
              "value": 3.5,
              "code": "g/dL",
              "system": "http://unitsofmeasure.org"
            }
          },
          {
            "high": {
              "value": 5.5,
              "code": "g/dL",
              "system": "http://unitsofmeasure.org"
            }
          }
        ],
        "text": {
          "status": "generated",
          "div": "<div xmlns=\"http://www.w3.org/1999/xhtml\"><table class=\"hl7__eu__lab__report\"><tr><th>Test</th><th>12-Dec-2015</th><th>Reference&#xA0;Range</th><th>Unit</th></tr><tr><td>Albumin [Mass/volume] in Serum or Plasma</td><td>4.3</td><td>3.5 - 5.5</td><td></td><td>g/dL</td></tr></table></div>"
        },
        "status": "final",
        "subject": {
          "reference": "urn:uuid:c9c935c1-41cf-479b-93d8-f88e594cd060",
          "display": "Maria Nohlmans"
        },
        "effectiveDateTime": "2015-12-12T16:58:39Z",
        "specimen": {
          "reference": "urn:uuid:f9c3c69a-2129-48af-952b-9b5ff9c3609f"
        }
      }
    },
    {
      "fullUrl": "urn:uuid:3da3ab79-d763-40f7-ac0e-0b893e65ff97",
      "resource": {
        "resourceType": "Observation",
        "id": "3da3ab79-d763-40f7-ac0e-0b893e65ff97",
        "meta": {
          "profile": [
            "http://hl7.eu/fhir/laboratory/StructureDefinition/Observation-resultslab-eu-lab"
          ]
        },
        "performer": [
          {
            "display": "The Central European Lab"
          }
        ],
        "category": [
          {
            "coding": [
              {
                "system": "http://terminology.hl7.org/CodeSystem/observation-category",
                "code": "laboratory"
              }
            ]
          }
        ],
        "code": {
          "coding": [
            {
              "code": "10834-0",
              "system": "http://loinc.org",
              "display": "Globulin [Mass/volume] in Serum by calculation"
            }
          ],
          "text": "Globulin [Mass/volume] in Serum by calculation"
        },
        "valueQuantity": {
          "system": "http://unitsofmeasure.org",
          "value": 3,
          "unit": "g/L",
          "code": "g/L"
        },
        "referenceRange": [
          {
            "low": {
              "value": 2,
              "code": "g/L",
              "system": "http://unitsofmeasure.org"
            }
          },
          {
            "high": {
              "value": 3.5,
              "code": "g/L",
              "system": "http://unitsofmeasure.org"
            }
          }
        ],
        "text": {
          "status": "generated",
          "div": "<div xmlns=\"http://www.w3.org/1999/xhtml\"><table class=\"hl7__eu__lab__report\"><tr><th>Test</th><th>12-Dec-2015</th><th>Reference&#xA0;Range</th><th>Unit</th></tr><tr><td>Globulin [Mass/volume] in Serum by calculation</td><td>3.0</td><td>2 - 3.5</td><td></td><td>g/L</td></tr></table></div>"
        },
        "status": "final",
        "subject": {
          "reference": "urn:uuid:c9c935c1-41cf-479b-93d8-f88e594cd060",
          "display": "Maria Nohlmans"
        },
        "effectiveDateTime": "2015-12-12T16:58:39Z",
        "specimen": {
          "reference": "urn:uuid:31a0b97f-bd44-4a9c-b73d-40d2294e8027"
        }
      }
    },
    {
      "fullUrl": "urn:uuid:6647beb2-3789-4772-997e-4d7cdc25bc30",
      "resource": {
        "resourceType": "Observation",
        "id": "6647beb2-3789-4772-997e-4d7cdc25bc30",
        "meta": {
          "profile": [
            "http://hl7.eu/fhir/laboratory/StructureDefinition/Observation-resultslab-eu-lab"
          ]
        },
        "performer": [
          {
            "display": "The Central European Lab"
          }
        ],
        "category": [
          {
            "coding": [
              {
                "system": "http://terminology.hl7.org/CodeSystem/observation-category",
                "code": "laboratory"
              }
            ]
          }
        ],
        "code": {
          "coding": [
            {
              "code": "1975-2",
              "system": "http://loinc.org",
              "display": "Bilirubin.total [Mass/volume] in Serum or Plasma"
            }
          ],
          "text": "Bilirubin.total [Mass/volume] in Serum or Plasma"
        },
        "valueQuantity": {
          "system": "http://unitsofmeasure.org",
          "value": 0.6,
          "unit": "mg/dL",
          "code": "mg/dL"
        },
        "referenceRange": [
          {
            "low": {
              "value": 0.3,
              "code": "mg/dL",
              "system": "http://unitsofmeasure.org"
            }
          },
          {
            "high": {
              "value": 1.2,
              "code": "mg/dL",
              "system": "http://unitsofmeasure.org"
            }
          }
        ],
        "text": {
          "status": "generated",
          "div": "<div xmlns=\"http://www.w3.org/1999/xhtml\"><table class=\"hl7__eu__lab__report\"><tr><th>Test</th><th>12-Dec-2015</th><th>Reference&#xA0;Range</th><th>Unit</th></tr><tr><td>Bilirubin.total [Mass/volume] in Serum or Plasma</td><td>0.6</td><td>0.3 - 1.2</td><td></td><td>mg/dL</td></tr></table></div>"
        },
        "status": "final",
        "subject": {
          "reference": "urn:uuid:c9c935c1-41cf-479b-93d8-f88e594cd060",
          "display": "Maria Nohlmans"
        },
        "effectiveDateTime": "2015-12-12T16:58:39Z",
        "specimen": {
          "reference": "urn:uuid:f9c3c69a-2129-48af-952b-9b5ff9c3609f"
        }
      }
    },
    {
      "fullUrl": "urn:uuid:cb7b5e11-da55-47a1-8ccd-21151d8fea91",
      "resource": {
        "resourceType": "Observation",
        "id": "cb7b5e11-da55-47a1-8ccd-21151d8fea91",
        "meta": {
          "profile": [
            "http://hl7.eu/fhir/laboratory/StructureDefinition/Observation-resultslab-eu-lab"
          ]
        },
        "performer": [
          {
            "display": "The Central European Lab"
          }
        ],
        "category": [
          {
            "coding": [
              {
                "system": "http://terminology.hl7.org/CodeSystem/observation-category",
                "code": "laboratory"
              }
            ]
          }
        ],
        "code": {
          "coding": [
            {
              "code": "6768-6",
              "system": "http://loinc.org",
              "display": "Alkaline phosphatase [Enzymatic activity/volume] in Serum or Plasma"
            }
          ],
          "text": "Alkaline phosphatase [Enzymatic activity/volume] in Serum or Plasma"
        },
        "valueQuantity": {
          "system": "http://unitsofmeasure.org",
          "value": 130.5,
          "unit": "U/L",
          "code": "U/L"
        },
        "referenceRange": [
          {
            "low": {
              "value": 44,
              "code": "U/L",
              "system": "http://unitsofmeasure.org"
            }
          },
          {
            "high": {
              "value": 142,
              "code": "U/L",
              "system": "http://unitsofmeasure.org"
            }
          }
        ],
        "text": {
          "status": "generated",
          "div": "<div xmlns=\"http://www.w3.org/1999/xhtml\"><table class=\"hl7__eu__lab__report\"><tr><th>Test</th><th>12-Dec-2015</th><th>Reference&#xA0;Range</th><th>Unit</th></tr><tr><td>Alkaline phosphatase [Enzymatic activity/volume] in Serum or Plasma</td><td>130.5</td><td>44 - 142</td><td></td><td>U/L</td></tr></table></div>"
        },
        "status": "final",
        "subject": {
          "reference": "urn:uuid:c9c935c1-41cf-479b-93d8-f88e594cd060",
          "display": "Maria Nohlmans"
        },
        "effectiveDateTime": "2015-12-12T16:58:39Z",
        "specimen": {
          "reference": "urn:uuid:f9c3c69a-2129-48af-952b-9b5ff9c3609f"
        }
      }
    },
    {
      "fullUrl": "urn:uuid:b44efcca-eca8-46e5-8482-c26b74d6197d",
      "resource": {
        "resourceType": "Observation",
        "id": "b44efcca-eca8-46e5-8482-c26b74d6197d",
        "meta": {
          "profile": [
            "http://hl7.eu/fhir/laboratory/StructureDefinition/Observation-resultslab-eu-lab"
          ]
        },
        "performer": [
          {
            "display": "The Central European Lab"
          }
        ],
        "category": [
          {
            "coding": [
              {
                "system": "http://terminology.hl7.org/CodeSystem/observation-category",
                "code": "laboratory"
              }
            ]
          }
        ],
        "code": {
          "coding": [
            {
              "code": "1742-6",
              "system": "http://loinc.org",
              "display": "Alanine aminotransferase [Enzymatic activity/volume] in Serum or Plasma"
            }
          ],
          "text": "Alanine aminotransferase [Enzymatic activity/volume] in Serum or Plasma"
        },
        "valueQuantity": {
          "system": "http://unitsofmeasure.org",
          "value": 27,
          "unit": "U/L",
          "code": "U/L"
        },
        "referenceRange": [
          {
            "low": {
              "value": 7,
              "code": "U/L",
              "system": "http://unitsofmeasure.org"
            }
          },
          {
            "high": {
              "value": 40,
              "code": "U/L",
              "system": "http://unitsofmeasure.org"
            }
          }
        ],
        "text": {
          "status": "generated",
          "div": "<div xmlns=\"http://www.w3.org/1999/xhtml\"><table class=\"hl7__eu__lab__report\"><tr><th>Test</th><th>12-Dec-2015</th><th>Reference&#xA0;Range</th><th>Unit</th></tr><tr><td>Alanine aminotransferase [Enzymatic activity/volume] in Serum or Plasma</td><td>27.0</td><td>7 - 40</td><td></td><td>U/L</td></tr></table></div>"
        },
        "status": "final",
        "subject": {
          "reference": "urn:uuid:c9c935c1-41cf-479b-93d8-f88e594cd060",
          "display": "Maria Nohlmans"
        },
        "effectiveDateTime": "2015-12-12T16:58:39Z",
        "specimen": {
          "reference": "urn:uuid:f9c3c69a-2129-48af-952b-9b5ff9c3609f"
        }
      }
    },
    {
      "fullUrl": "urn:uuid:8426a708-a9f4-4647-9514-99aae88f3f3d",
      "resource": {
        "resourceType": "Observation",
        "id": "8426a708-a9f4-4647-9514-99aae88f3f3d",
        "meta": {
          "profile": [
            "http://hl7.eu/fhir/laboratory/StructureDefinition/Observation-resultslab-eu-lab"
          ]
        },
        "performer": [
          {
            "display": "The Central European Lab"
          }
        ],
        "category": [
          {
            "coding": [
              {
                "system": "http://terminology.hl7.org/CodeSystem/observation-category",
                "code": "laboratory"
              }
            ]
          }
        ],
        "code": {
          "coding": [
            {
              "code": "1920-8",
              "system": "http://loinc.org",
              "display": "Aspartate aminotransferase [Enzymatic activity/volume] in Serum or Plasma"
            }
          ],
          "text": "Aspartate aminotransferase [Enzymatic activity/volume] in Serum or Plasma"
        },
        "valueQuantity": {
          "system": "http://unitsofmeasure.org",
          "value": 24.7,
          "unit": "U/L",
          "code": "U/L"
        },
        "referenceRange": [
          {
            "low": {
              "value": 10,
              "code": "U/L",
              "system": "http://unitsofmeasure.org"
            }
          },
          {
            "high": {
              "value": 40,
              "code": "U/L",
              "system": "http://unitsofmeasure.org"
            }
          }
        ],
        "text": {
          "status": "generated",
          "div": "<div xmlns=\"http://www.w3.org/1999/xhtml\"><table class=\"hl7__eu__lab__report\"><tr><th>Test</th><th>12-Dec-2015</th><th>Reference&#xA0;Range</th><th>Unit</th></tr><tr><td>Aspartate aminotransferase [Enzymatic activity/volume] in Serum or Plasma</td><td>24.7</td><td>10 - 40</td><td></td><td>U/L</td></tr></table></div>"
        },
        "status": "final",
        "subject": {
          "reference": "urn:uuid:c9c935c1-41cf-479b-93d8-f88e594cd060",
          "display": "Maria Nohlmans"
        },
        "effectiveDateTime": "2015-12-12T16:58:39Z",
        "specimen": {
          "reference": "urn:uuid:f9c3c69a-2129-48af-952b-9b5ff9c3609f"
        }
      }
    },
    {
      "fullUrl": "urn:uuid:a8faa81e-b9d1-4cf4-b83b-f1e22950c27d",
      "resource": {
        "resourceType": "Observation",
        "id": "a8faa81e-b9d1-4cf4-b83b-f1e22950c27d",
        "meta": {
          "profile": [
            "http://hl7.eu/fhir/laboratory/StructureDefinition/Observation-resultslab-eu-lab"
          ]
        },
        "performer": [
          {
            "display": "The Central European Lab"
          }
        ],
        "category": [
          {
            "coding": [
              {
                "system": "http://terminology.hl7.org/CodeSystem/observation-category",
                "code": "laboratory"
              }
            ]
          }
        ],
        "code": {
          "coding": [
            {
              "code": "5767-9",
              "system": "http://loinc.org",
              "display": "Appearance of Urine"
            }
          ],
          "text": "Appearance of Urine"
        },
        "text": {
          "status": "generated",
          "div": "<div xmlns=\"http://www.w3.org/1999/xhtml\"><table class=\"hl7__eu__lab__report\"><tr><th>Test</th><th>12-Dec-2015</th><th>Reference&#xA0;Range</th><th>Unit</th></tr><tr><td>Appearance of Urine</td></tr></table></div>"
        },
        "status": "final",
        "subject": {
          "reference": "urn:uuid:c9c935c1-41cf-479b-93d8-f88e594cd060",
          "display": "Maria Nohlmans"
        },
        "effectiveDateTime": "2015-12-12T16:58:39Z",
        "specimen": {
          "reference": "urn:uuid:be0f419a-beac-4d4b-af2e-9903bcc60f18"
        }
      }
    },
    {
      "fullUrl": "urn:uuid:e87a0b56-bbea-466d-95c7-1475c010235c",
      "resource": {
        "resourceType": "Observation",
        "id": "e87a0b56-bbea-466d-95c7-1475c010235c",
        "meta": {
          "profile": [
            "http://hl7.eu/fhir/laboratory/StructureDefinition/Observation-resultslab-eu-lab"
          ]
        },
        "performer": [
          {
            "display": "The Central European Lab"
          }
        ],
        "category": [
          {
            "coding": [
              {
                "system": "http://terminology.hl7.org/CodeSystem/observation-category",
                "code": "laboratory"
              }
            ]
          }
        ],
        "code": {
          "coding": [
            {
              "code": "34533-0",
              "system": "http://loinc.org",
              "display": "Odor of Urine"
            }
          ],
          "text": "Odor of Urine"
        },
        "text": {
          "status": "generated",
          "div": "<div xmlns=\"http://www.w3.org/1999/xhtml\"><table class=\"hl7__eu__lab__report\"><tr><th>Test</th><th>12-Dec-2015</th><th>Reference&#xA0;Range</th><th>Unit</th></tr><tr><td>Odor of Urine</td></tr></table></div>"
        },
        "status": "final",
        "subject": {
          "reference": "urn:uuid:c9c935c1-41cf-479b-93d8-f88e594cd060",
          "display": "Maria Nohlmans"
        },
        "effectiveDateTime": "2015-12-12T16:58:39Z",
        "specimen": {
          "reference": "urn:uuid:be0f419a-beac-4d4b-af2e-9903bcc60f18"
        }
      }
    },
    {
      "fullUrl": "urn:uuid:84d10217-6dfa-45b2-bf22-1824181d8a18",
      "resource": {
        "resourceType": "Observation",
        "id": "84d10217-6dfa-45b2-bf22-1824181d8a18",
        "meta": {
          "profile": [
            "http://hl7.eu/fhir/laboratory/StructureDefinition/Observation-resultslab-eu-lab"
          ]
        },
        "performer": [
          {
            "display": "The Central European Lab"
          }
        ],
        "category": [
          {
            "coding": [
              {
                "system": "http://terminology.hl7.org/CodeSystem/observation-category",
                "code": "laboratory"
              }
            ]
          }
        ],
        "code": {
          "coding": [
            {
              "code": "32167-9",
              "system": "http://loinc.org",
              "display": "Clarity of Urine"
            }
          ],
          "text": "Clarity of Urine"
        },
        "text": {
          "status": "generated",
          "div": "<div xmlns=\"http://www.w3.org/1999/xhtml\"><table class=\"hl7__eu__lab__report\"><tr><th>Test</th><th>12-Dec-2015</th><th>Reference&#xA0;Range</th><th>Unit</th></tr><tr><td>Clarity of Urine</td></tr></table></div>"
        },
        "status": "final",
        "subject": {
          "reference": "urn:uuid:c9c935c1-41cf-479b-93d8-f88e594cd060",
          "display": "Maria Nohlmans"
        },
        "effectiveDateTime": "2015-12-12T16:58:39Z",
        "specimen": {
          "reference": "urn:uuid:be0f419a-beac-4d4b-af2e-9903bcc60f18"
        }
      }
    },
    {
      "fullUrl": "urn:uuid:3537a3c9-f617-4aed-a262-e113649f7cc8",
      "resource": {
        "resourceType": "Observation",
        "id": "3537a3c9-f617-4aed-a262-e113649f7cc8",
        "meta": {
          "profile": [
            "http://hl7.eu/fhir/laboratory/StructureDefinition/Observation-resultslab-eu-lab"
          ]
        },
        "performer": [
          {
            "display": "The Central European Lab"
          }
        ],
        "category": [
          {
            "coding": [
              {
                "system": "http://terminology.hl7.org/CodeSystem/observation-category",
                "code": "laboratory"
              }
            ]
          }
        ],
        "code": {
          "coding": [
            {
              "code": "5778-6",
              "system": "http://loinc.org",
              "display": "Color of Urine"
            }
          ],
          "text": "Color of Urine"
        },
        "text": {
          "status": "generated",
          "div": "<div xmlns=\"http://www.w3.org/1999/xhtml\"><table class=\"hl7__eu__lab__report\"><tr><th>Test</th><th>12-Dec-2015</th><th>Reference&#xA0;Range</th><th>Unit</th></tr><tr><td>Color of Urine</td></tr></table></div>"
        },
        "status": "final",
        "subject": {
          "reference": "urn:uuid:c9c935c1-41cf-479b-93d8-f88e594cd060",
          "display": "Maria Nohlmans"
        },
        "effectiveDateTime": "2015-12-12T16:58:39Z",
        "specimen": {
          "reference": "urn:uuid:be0f419a-beac-4d4b-af2e-9903bcc60f18"
        }
      }
    },
    {
      "fullUrl": "urn:uuid:dcb1f695-4890-46f1-98d0-9131add99f6d",
      "resource": {
        "resourceType": "Observation",
        "id": "dcb1f695-4890-46f1-98d0-9131add99f6d",
        "meta": {
          "profile": [
            "http://hl7.eu/fhir/laboratory/StructureDefinition/Observation-resultslab-eu-lab"
          ]
        },
        "performer": [
          {
            "display": "The Central European Lab"
          }
        ],
        "category": [
          {
            "coding": [
              {
                "system": "http://terminology.hl7.org/CodeSystem/observation-category",
                "code": "laboratory"
              }
            ]
          }
        ],
        "code": {
          "coding": [
            {
              "code": "5792-7",
              "system": "http://loinc.org",
              "display": "Glucose [Mass/volume] in Urine by Test strip"
            }
          ],
          "text": "Glucose [Mass/volume] in Urine by Test strip"
        },
        "valueQuantity": {
          "system": "http://unitsofmeasure.org",
          "value": 0.8,
          "unit": "mg/dL",
          "code": "mg/dL"
        },
        "referenceRange": [
          {
            "low": {
              "value": 0.8,
              "code": "mg/dL",
              "system": "http://unitsofmeasure.org"
            }
          },
          {
            "high": {
              "value": 0,
              "code": "mg/dL",
              "system": "http://unitsofmeasure.org"
            }
          }
        ],
        "interpretation": [
          {
            "coding": [
              {
                "code": "H",
                "system": "http://terminology.hl7.org/CodeSystem/v3-ObservationInterpretation",
                "display": "High"
              }
            ]
          }
        ],
        "text": {
          "status": "generated",
          "div": "<div xmlns=\"http://www.w3.org/1999/xhtml\"><table class=\"hl7__eu__lab__report\"><tr><th>Test</th><th>12-Dec-2015</th><th>Reference&#xA0;Range</th><th>Unit</th></tr><tr><td>Glucose [Mass/volume] in Urine by Test strip</td><td>0.8</td><td>0.8 - 0</td><td>H</td><td>mg/dL</td></tr></table></div>"
        },
        "status": "final",
        "subject": {
          "reference": "urn:uuid:c9c935c1-41cf-479b-93d8-f88e594cd060",
          "display": "Maria Nohlmans"
        },
        "effectiveDateTime": "2015-12-12T16:58:39Z",
        "specimen": {
          "reference": "urn:uuid:be0f419a-beac-4d4b-af2e-9903bcc60f18"
        }
      }
    },
    {
      "fullUrl": "urn:uuid:0061ce66-8862-4ef2-be84-d1a04f13f689",
      "resource": {
        "resourceType": "Observation",
        "id": "0061ce66-8862-4ef2-be84-d1a04f13f689",
        "meta": {
          "profile": [
            "http://hl7.eu/fhir/laboratory/StructureDefinition/Observation-resultslab-eu-lab"
          ]
        },
        "performer": [
          {
            "display": "The Central European Lab"
          }
        ],
        "category": [
          {
            "coding": [
              {
                "system": "http://terminology.hl7.org/CodeSystem/observation-category",
                "code": "laboratory"
              }
            ]
          }
        ],
        "code": {
          "coding": [
            {
              "code": "25428-4",
              "system": "http://loinc.org",
              "display": "Glucose [Presence] in Urine by Test strip"
            }
          ],
          "text": "Glucose [Presence] in Urine by Test strip"
        },
        "text": {
          "status": "generated",
          "div": "<div xmlns=\"http://www.w3.org/1999/xhtml\"><table class=\"hl7__eu__lab__report\"><tr><th>Test</th><th>12-Dec-2015</th><th>Reference&#xA0;Range</th><th>Unit</th></tr><tr><td>Glucose [Presence] in Urine by Test strip</td></tr></table></div>"
        },
        "status": "final",
        "subject": {
          "reference": "urn:uuid:c9c935c1-41cf-479b-93d8-f88e594cd060",
          "display": "Maria Nohlmans"
        },
        "effectiveDateTime": "2015-12-12T16:58:39Z",
        "specimen": {
          "reference": "urn:uuid:be0f419a-beac-4d4b-af2e-9903bcc60f18"
        }
      }
    },
    {
      "fullUrl": "urn:uuid:1503d731-c763-40d7-8d01-8612ac774fb5",
      "resource": {
        "resourceType": "Observation",
        "id": "1503d731-c763-40d7-8d01-8612ac774fb5",
        "meta": {
          "profile": [
            "http://hl7.eu/fhir/laboratory/StructureDefinition/Observation-resultslab-eu-lab"
          ]
        },
        "performer": [
          {
            "display": "The Central European Lab"
          }
        ],
        "category": [
          {
            "coding": [
              {
                "system": "http://terminology.hl7.org/CodeSystem/observation-category",
                "code": "laboratory"
              }
            ]
          }
        ],
        "code": {
          "coding": [
            {
              "code": "20505-4",
              "system": "http://loinc.org",
              "display": "Bilirubin.total [Mass/volume] in Urine by Test strip"
            }
          ],
          "text": "Bilirubin.total [Mass/volume] in Urine by Test strip"
        },
        "valueQuantity": {
          "system": "http://unitsofmeasure.org",
          "value": 0.4,
          "unit": "mg/dL",
          "code": "mg/dL"
        },
        "referenceRange": [
          {
            "low": {
              "value": 0,
              "code": "mg/dL",
              "system": "http://unitsofmeasure.org"
            }
          },
          {
            "high": {
              "value": 1.5,
              "code": "mg/dL",
              "system": "http://unitsofmeasure.org"
            }
          }
        ],
        "text": {
          "status": "generated",
          "div": "<div xmlns=\"http://www.w3.org/1999/xhtml\"><table class=\"hl7__eu__lab__report\"><tr><th>Test</th><th>12-Dec-2015</th><th>Reference&#xA0;Range</th><th>Unit</th></tr><tr><td>Bilirubin.total [Mass/volume] in Urine by Test strip</td><td>0.4</td><td>0 - 1.5</td><td></td><td>mg/dL</td></tr></table></div>"
        },
        "status": "final",
        "subject": {
          "reference": "urn:uuid:c9c935c1-41cf-479b-93d8-f88e594cd060",
          "display": "Maria Nohlmans"
        },
        "effectiveDateTime": "2015-12-12T16:58:39Z",
        "specimen": {
          "reference": "urn:uuid:be0f419a-beac-4d4b-af2e-9903bcc60f18"
        }
      }
    },
    {
      "fullUrl": "urn:uuid:cc798885-43c1-4589-862e-2e4df515fffc",
      "resource": {
        "resourceType": "Observation",
        "id": "cc798885-43c1-4589-862e-2e4df515fffc",
        "meta": {
          "profile": [
            "http://hl7.eu/fhir/laboratory/StructureDefinition/Observation-resultslab-eu-lab"
          ]
        },
        "performer": [
          {
            "display": "The Central European Lab"
          }
        ],
        "category": [
          {
            "coding": [
              {
                "system": "http://terminology.hl7.org/CodeSystem/observation-category",
                "code": "laboratory"
              }
            ]
          }
        ],
        "code": {
          "coding": [
            {
              "code": "5770-3",
              "system": "http://loinc.org",
              "display": "Bilirubin.total [Presence] in Urine by Test strip"
            }
          ],
          "text": "Bilirubin.total [Presence] in Urine by Test strip"
        },
        "text": {
          "status": "generated",
          "div": "<div xmlns=\"http://www.w3.org/1999/xhtml\"><table class=\"hl7__eu__lab__report\"><tr><th>Test</th><th>12-Dec-2015</th><th>Reference&#xA0;Range</th><th>Unit</th></tr><tr><td>Bilirubin.total [Presence] in Urine by Test strip</td></tr></table></div>"
        },
        "status": "final",
        "subject": {
          "reference": "urn:uuid:c9c935c1-41cf-479b-93d8-f88e594cd060",
          "display": "Maria Nohlmans"
        },
        "effectiveDateTime": "2015-12-12T16:58:39Z",
        "specimen": {
          "reference": "urn:uuid:be0f419a-beac-4d4b-af2e-9903bcc60f18"
        }
      }
    },
    {
      "fullUrl": "urn:uuid:abc4ceb5-7890-4b83-bd3b-187a955a491f",
      "resource": {
        "resourceType": "Observation",
        "id": "abc4ceb5-7890-4b83-bd3b-187a955a491f",
        "meta": {
          "profile": [
            "http://hl7.eu/fhir/laboratory/StructureDefinition/Observation-resultslab-eu-lab"
          ]
        },
        "performer": [
          {
            "display": "The Central European Lab"
          }
        ],
        "category": [
          {
            "coding": [
              {
                "system": "http://terminology.hl7.org/CodeSystem/observation-category",
                "code": "laboratory"
              }
            ]
          }
        ],
        "code": {
          "coding": [
            {
              "code": "5797-6",
              "system": "http://loinc.org",
              "display": "Ketones [Mass/volume] in Urine by Test strip"
            }
          ],
          "text": "Ketones [Mass/volume] in Urine by Test strip"
        },
        "valueQuantity": {
          "system": "http://unitsofmeasure.org",
          "value": 9.2,
          "unit": "mg/dL",
          "code": "mg/dL"
        },
        "referenceRange": [
          {
            "low": {
              "value": 0,
              "code": "mg/dL",
              "system": "http://unitsofmeasure.org"
            }
          },
          {
            "high": {
              "value": 8,
              "code": "mg/dL",
              "system": "http://unitsofmeasure.org"
            }
          }
        ],
        "interpretation": [
          {
            "coding": [
              {
                "code": "H",
                "system": "http://terminology.hl7.org/CodeSystem/v3-ObservationInterpretation",
                "display": "High"
              }
            ]
          }
        ],
        "text": {
          "status": "generated",
          "div": "<div xmlns=\"http://www.w3.org/1999/xhtml\"><table class=\"hl7__eu__lab__report\"><tr><th>Test</th><th>12-Dec-2015</th><th>Reference&#xA0;Range</th><th>Unit</th></tr><tr><td>Ketones [Mass/volume] in Urine by Test strip</td><td>9.2</td><td>0 - 8</td><td>H</td><td>mg/dL</td></tr></table></div>"
        },
        "status": "final",
        "subject": {
          "reference": "urn:uuid:c9c935c1-41cf-479b-93d8-f88e594cd060",
          "display": "Maria Nohlmans"
        },
        "effectiveDateTime": "2015-12-12T16:58:39Z",
        "specimen": {
          "reference": "urn:uuid:be0f419a-beac-4d4b-af2e-9903bcc60f18"
        }
      }
    },
    {
      "fullUrl": "urn:uuid:72480d2f-1882-411e-81ea-0b62a2666658",
      "resource": {
        "resourceType": "Observation",
        "id": "72480d2f-1882-411e-81ea-0b62a2666658",
        "meta": {
          "profile": [
            "http://hl7.eu/fhir/laboratory/StructureDefinition/Observation-resultslab-eu-lab"
          ]
        },
        "performer": [
          {
            "display": "The Central European Lab"
          }
        ],
        "category": [
          {
            "coding": [
              {
                "system": "http://terminology.hl7.org/CodeSystem/observation-category",
                "code": "laboratory"
              }
            ]
          }
        ],
        "code": {
          "coding": [
            {
              "code": "2514-8",
              "system": "http://loinc.org",
              "display": "Ketones [Presence] in Urine by Test strip"
            }
          ],
          "text": "Ketones [Presence] in Urine by Test strip"
        },
        "text": {
          "status": "generated",
          "div": "<div xmlns=\"http://www.w3.org/1999/xhtml\"><table class=\"hl7__eu__lab__report\"><tr><th>Test</th><th>12-Dec-2015</th><th>Reference&#xA0;Range</th><th>Unit</th></tr><tr><td>Ketones [Presence] in Urine by Test strip</td></tr></table></div>"
        },
        "status": "final",
        "subject": {
          "reference": "urn:uuid:c9c935c1-41cf-479b-93d8-f88e594cd060",
          "display": "Maria Nohlmans"
        },
        "effectiveDateTime": "2015-12-12T16:58:39Z",
        "specimen": {
          "reference": "urn:uuid:be0f419a-beac-4d4b-af2e-9903bcc60f18"
        }
      }
    },
    {
      "fullUrl": "urn:uuid:8c9f9467-219d-4580-9c20-c815606829c0",
      "resource": {
        "resourceType": "Observation",
        "id": "8c9f9467-219d-4580-9c20-c815606829c0",
        "meta": {
          "profile": [
            "http://hl7.eu/fhir/laboratory/StructureDefinition/Observation-resultslab-eu-lab"
          ]
        },
        "performer": [
          {
            "display": "The Central European Lab"
          }
        ],
        "category": [
          {
            "coding": [
              {
                "system": "http://terminology.hl7.org/CodeSystem/observation-category",
                "code": "laboratory"
              }
            ]
          }
        ],
        "code": {
          "coding": [
            {
              "code": "5811-5",
              "system": "http://loinc.org",
              "display": "Specific gravity of Urine by Test strip"
            }
          ],
          "text": "Specific gravity of Urine by Test strip"
        },
        "valueQuantity": {
          "system": "http://unitsofmeasure.org",
          "value": 1,
          "unit": "{nominal}",
          "code": "{nominal}"
        },
        "referenceRange": [
          {
            "low": {
              "value": 1.01,
              "code": "g/mL",
              "system": "http://unitsofmeasure.org"
            }
          },
          {
            "high": {
              "value": 1.03,
              "code": "g/mL",
              "system": "http://unitsofmeasure.org"
            }
          }
        ],
        "interpretation": [
          {
            "coding": [
              {
                "code": "L",
                "system": "http://terminology.hl7.org/CodeSystem/v3-ObservationInterpretation",
                "display": "Low"
              }
            ]
          }
        ],
        "text": {
          "status": "generated",
          "div": "<div xmlns=\"http://www.w3.org/1999/xhtml\"><table class=\"hl7__eu__lab__report\"><tr><th>Test</th><th>12-Dec-2015</th><th>Reference&#xA0;Range</th><th>Unit</th></tr><tr><td>Specific gravity of Urine by Test strip</td><td>1.0</td><td>1.01 - 1.03</td><td>L</td><td>{nominal}</td></tr></table></div>"
        },
        "status": "final",
        "subject": {
          "reference": "urn:uuid:c9c935c1-41cf-479b-93d8-f88e594cd060",
          "display": "Maria Nohlmans"
        },
        "effectiveDateTime": "2015-12-12T16:58:39Z",
        "specimen": {
          "reference": "urn:uuid:be0f419a-beac-4d4b-af2e-9903bcc60f18"
        }
      }
    },
    {
      "fullUrl": "urn:uuid:013e49cf-4896-46b5-a436-9b2574d7a458",
      "resource": {
        "resourceType": "Observation",
        "id": "013e49cf-4896-46b5-a436-9b2574d7a458",
        "meta": {
          "profile": [
            "http://hl7.eu/fhir/laboratory/StructureDefinition/Observation-resultslab-eu-lab"
          ]
        },
        "performer": [
          {
            "display": "The Central European Lab"
          }
        ],
        "category": [
          {
            "coding": [
              {
                "system": "http://terminology.hl7.org/CodeSystem/observation-category",
                "code": "laboratory"
              }
            ]
          }
        ],
        "code": {
          "coding": [
            {
              "code": "5803-2",
              "system": "http://loinc.org",
              "display": "pH of Urine by Test strip"
            }
          ],
          "text": "pH of Urine by Test strip"
        },
        "valueQuantity": {
          "system": "http://unitsofmeasure.org",
          "value": 5.6,
          "unit": "pH",
          "code": "pH"
        },
        "referenceRange": [
          {
            "low": {
              "value": 4.6,
              "code": "pH",
              "system": "http://unitsofmeasure.org"
            }
          },
          {
            "high": {
              "value": 7.5,
              "code": "pH",
              "system": "http://unitsofmeasure.org"
            }
          }
        ],
        "text": {
          "status": "generated",
          "div": "<div xmlns=\"http://www.w3.org/1999/xhtml\"><table class=\"hl7__eu__lab__report\"><tr><th>Test</th><th>12-Dec-2015</th><th>Reference&#xA0;Range</th><th>Unit</th></tr><tr><td>pH of Urine by Test strip</td><td>5.6</td><td>4.6 - 7.5</td><td></td><td>pH</td></tr></table></div>"
        },
        "status": "final",
        "subject": {
          "reference": "urn:uuid:c9c935c1-41cf-479b-93d8-f88e594cd060",
          "display": "Maria Nohlmans"
        },
        "effectiveDateTime": "2015-12-12T16:58:39Z",
        "specimen": {
          "reference": "urn:uuid:be0f419a-beac-4d4b-af2e-9903bcc60f18"
        }
      }
    },
    {
      "fullUrl": "urn:uuid:0fe1cb8b-ca49-4c2a-b2b6-810700a24db1",
      "resource": {
        "resourceType": "Observation",
        "id": "0fe1cb8b-ca49-4c2a-b2b6-810700a24db1",
        "meta": {
          "profile": [
            "http://hl7.eu/fhir/laboratory/StructureDefinition/Observation-resultslab-eu-lab"
          ]
        },
        "performer": [
          {
            "display": "The Central European Lab"
          }
        ],
        "category": [
          {
            "coding": [
              {
                "system": "http://terminology.hl7.org/CodeSystem/observation-category",
                "code": "laboratory"
              }
            ]
          }
        ],
        "code": {
          "coding": [
            {
              "code": "5804-0",
              "system": "http://loinc.org",
              "display": "Protein [Mass/volume] in Urine by Test strip"
            }
          ],
          "text": "Protein [Mass/volume] in Urine by Test strip"
        },
        "valueQuantity": {
          "system": "http://unitsofmeasure.org",
          "value": 427.4,
          "unit": "mg/dL",
          "code": "mg/dL"
        },
        "referenceRange": [
          {
            "low": {
              "value": 0,
              "code": "mg/dL",
              "system": "http://unitsofmeasure.org"
            }
          },
          {
            "high": {
              "value": 14,
              "code": "mg/dL",
              "system": "http://unitsofmeasure.org"
            }
          }
        ],
        "interpretation": [
          {
            "coding": [
              {
                "code": "H",
                "system": "http://terminology.hl7.org/CodeSystem/v3-ObservationInterpretation",
                "display": "High"
              }
            ]
          }
        ],
        "text": {
          "status": "generated",
          "div": "<div xmlns=\"http://www.w3.org/1999/xhtml\"><table class=\"hl7__eu__lab__report\"><tr><th>Test</th><th>12-Dec-2015</th><th>Reference&#xA0;Range</th><th>Unit</th></tr><tr><td>Protein [Mass/volume] in Urine by Test strip</td><td>427.4</td><td>0 - 14</td><td>H</td><td>mg/dL</td></tr></table></div>"
        },
        "status": "final",
        "subject": {
          "reference": "urn:uuid:c9c935c1-41cf-479b-93d8-f88e594cd060",
          "display": "Maria Nohlmans"
        },
        "effectiveDateTime": "2015-12-12T16:58:39Z",
        "specimen": {
          "reference": "urn:uuid:be0f419a-beac-4d4b-af2e-9903bcc60f18"
        }
      }
    },
    {
      "fullUrl": "urn:uuid:4fc0456f-df18-4e50-ab1d-5d5f3ae8204d",
      "resource": {
        "resourceType": "Observation",
        "id": "4fc0456f-df18-4e50-ab1d-5d5f3ae8204d",
        "meta": {
          "profile": [
            "http://hl7.eu/fhir/laboratory/StructureDefinition/Observation-resultslab-eu-lab"
          ]
        },
        "performer": [
          {
            "display": "The Central European Lab"
          }
        ],
        "category": [
          {
            "coding": [
              {
                "system": "http://terminology.hl7.org/CodeSystem/observation-category",
                "code": "laboratory"
              }
            ]
          }
        ],
        "code": {
          "coding": [
            {
              "code": "20454-5",
              "system": "http://loinc.org",
              "display": "Protein [Presence] in Urine by Test strip"
            }
          ],
          "text": "Protein [Presence] in Urine by Test strip"
        },
        "text": {
          "status": "generated",
          "div": "<div xmlns=\"http://www.w3.org/1999/xhtml\"><table class=\"hl7__eu__lab__report\"><tr><th>Test</th><th>12-Dec-2015</th><th>Reference&#xA0;Range</th><th>Unit</th></tr><tr><td>Protein [Presence] in Urine by Test strip</td></tr></table></div>"
        },
        "status": "final",
        "subject": {
          "reference": "urn:uuid:c9c935c1-41cf-479b-93d8-f88e594cd060",
          "display": "Maria Nohlmans"
        },
        "effectiveDateTime": "2015-12-12T16:58:39Z",
        "specimen": {
          "reference": "urn:uuid:be0f419a-beac-4d4b-af2e-9903bcc60f18"
        }
      }
    },
    {
      "fullUrl": "urn:uuid:e300a504-e710-4dc1-ba9b-3628fd186bd6",
      "resource": {
        "resourceType": "Observation",
        "id": "e300a504-e710-4dc1-ba9b-3628fd186bd6",
        "meta": {
          "profile": [
            "http://hl7.eu/fhir/laboratory/StructureDefinition/Observation-resultslab-eu-lab"
          ]
        },
        "performer": [
          {
            "display": "The Central European Lab"
          }
        ],
        "category": [
          {
            "coding": [
              {
                "system": "http://terminology.hl7.org/CodeSystem/observation-category",
                "code": "laboratory"
              }
            ]
          }
        ],
        "code": {
          "coding": [
            {
              "code": "5802-4",
              "system": "http://loinc.org",
              "display": "Nitrite [Presence] in Urine by Test strip"
            }
          ],
          "text": "Nitrite [Presence] in Urine by Test strip"
        },
        "text": {
          "status": "generated",
          "div": "<div xmlns=\"http://www.w3.org/1999/xhtml\"><table class=\"hl7__eu__lab__report\"><tr><th>Test</th><th>12-Dec-2015</th><th>Reference&#xA0;Range</th><th>Unit</th></tr><tr><td>Nitrite [Presence] in Urine by Test strip</td></tr></table></div>"
        },
        "status": "final",
        "subject": {
          "reference": "urn:uuid:c9c935c1-41cf-479b-93d8-f88e594cd060",
          "display": "Maria Nohlmans"
        },
        "effectiveDateTime": "2015-12-12T16:58:39Z",
        "specimen": {
          "reference": "urn:uuid:be0f419a-beac-4d4b-af2e-9903bcc60f18"
        }
      }
    },
    {
      "fullUrl": "urn:uuid:2ac6c5ab-0a3e-411c-866c-a1262ba9cb12",
      "resource": {
        "resourceType": "Observation",
        "id": "2ac6c5ab-0a3e-411c-866c-a1262ba9cb12",
        "meta": {
          "profile": [
            "http://hl7.eu/fhir/laboratory/StructureDefinition/Observation-resultslab-eu-lab"
          ]
        },
        "performer": [
          {
            "display": "The Central European Lab"
          }
        ],
        "category": [
          {
            "coding": [
              {
                "system": "http://terminology.hl7.org/CodeSystem/observation-category",
                "code": "laboratory"
              }
            ]
          }
        ],
        "code": {
          "coding": [
            {
              "code": "5794-3",
              "system": "http://loinc.org",
              "display": "Hemoglobin [Presence] in Urine by Test strip"
            }
          ],
          "text": "Hemoglobin [Presence] in Urine by Test strip"
        },
        "text": {
          "status": "generated",
          "div": "<div xmlns=\"http://www.w3.org/1999/xhtml\"><table class=\"hl7__eu__lab__report\"><tr><th>Test</th><th>12-Dec-2015</th><th>Reference&#xA0;Range</th><th>Unit</th></tr><tr><td>Hemoglobin [Presence] in Urine by Test strip</td></tr></table></div>"
        },
        "status": "final",
        "subject": {
          "reference": "urn:uuid:c9c935c1-41cf-479b-93d8-f88e594cd060",
          "display": "Maria Nohlmans"
        },
        "effectiveDateTime": "2015-12-12T16:58:39Z",
        "specimen": {
          "reference": "urn:uuid:be0f419a-beac-4d4b-af2e-9903bcc60f18"
        }
      }
    },
    {
      "fullUrl": "urn:uuid:70f3a3ba-d053-43b6-aff5-dda8c97853a9",
      "resource": {
        "resourceType": "Observation",
        "id": "70f3a3ba-d053-43b6-aff5-dda8c97853a9",
        "meta": {
          "profile": [
            "http://hl7.eu/fhir/laboratory/StructureDefinition/Observation-resultslab-eu-lab"
          ]
        },
        "performer": [
          {
            "display": "The Central European Lab"
          }
        ],
        "category": [
          {
            "coding": [
              {
                "system": "http://terminology.hl7.org/CodeSystem/observation-category",
                "code": "laboratory"
              }
            ]
          }
        ],
        "code": {
          "coding": [
            {
              "code": "5799-2",
              "system": "http://loinc.org",
              "display": "Leukocyte esterase [Presence] in Urine by Test strip"
            }
          ],
          "text": "Leukocyte esterase [Presence] in Urine by Test strip"
        },
        "text": {
          "status": "generated",
          "div": "<div xmlns=\"http://www.w3.org/1999/xhtml\"><table class=\"hl7__eu__lab__report\"><tr><th>Test</th><th>12-Dec-2015</th><th>Reference&#xA0;Range</th><th>Unit</th></tr><tr><td>Leukocyte esterase [Presence] in Urine by Test strip</td></tr></table></div>"
        },
        "status": "final",
        "subject": {
          "reference": "urn:uuid:c9c935c1-41cf-479b-93d8-f88e594cd060",
          "display": "Maria Nohlmans"
        },
        "effectiveDateTime": "2015-12-12T16:58:39Z",
        "specimen": {
          "reference": "urn:uuid:be0f419a-beac-4d4b-af2e-9903bcc60f18"
        }
      }
    },
    {
      "fullUrl": "urn:uuid:438e6c9f-cb19-4544-9da1-17ad40d785f7",
      "resource": {
        "resourceType": "Device",
        "id": "438e6c9f-cb19-4544-9da1-17ad40d785f7",
        "deviceName": [
          {
            "name": "SYNDERAI Synthetic Generator",
            "type": "manufacturer-name"
          }
        ],
        "version": [
          {
            "value": "5.0"
          }
        ],
        "text": {
          "status": "generated",
          "div": "<div xmlns=\"http://www.w3.org/1999/xhtml\">SYNDERAI Synthetic Generator v5.0</div>"
        },
        "status": "active\"",
        "distinctIdentifier": "synderai-generator-50",
        "manufacturer": "SYNDERAI Project"
      }
    },
    {
      "fullUrl": "urn:uuid:d3599c35-4328-4915-b381-207a47b14e3c",
      "resource": {
        "resourceType": "Provenance",
        "id": "d3599c35-4328-4915-b381-207a47b14e3c",
        "target": [
          {
            "reference": "Patient/c9c935c1-41cf-479b-93d8-f88e594cd060"
          },
          {
            "reference": "Bundle/3e464dc7-71c5-4b80-9c87-f42c2619c55f"
          },
          {
            "reference": "Composition/8f2b1feb-7ad9-4daf-83bb-e26497c3f30a"
          },
          {
            "reference": "PractitionerRole/bfa50fea-7703-4ce8-acfc-aa010d3e095a"
          },
          {
            "reference": "Practitioner/c11e22ae-dd30-4d64-869b-c1ba41420ec7"
          },
          {
            "reference": "PractitionerRole/7835bae7-1300-4554-b0d7-bc6faf4266f1"
          },
          {
            "reference": "Organization/51383f5a-de53-4dab-808c-b5f898133952"
          }
        ],
        "activity": {
          "text": "Synthetic Example Data Generation"
        },
        "policy": [
          "https://synderai.net/synderai-synthetic-data-policy"
        ],
        "agent": [
          {
            "type": {
              "text": "author"
            },
            "who": {
              "reference": "Device/438e6c9f-cb19-4544-9da1-17ad40d785f7"
            }
          }
        ],
        "reason": [
          {
            "text": "Interoperability Testing and Training (non-clinical use)"
          }
        ],
        "text": {
          "status": "generated",
          "div": "<div xmlns=\"http://www.w3.org/1999/xhtml\">Provenance for SYNDERAI Synthetic Example Data Resource</div>"
        },
        "recorded": "2015-12-12T17:58:39Z"
      }
    },
    {
      "fullUrl": "urn:uuid:bfa50fea-7703-4ce8-acfc-aa010d3e095a",
      "resource": {
        "resourceType": "PractitionerRole",
        "id": "bfa50fea-7703-4ce8-acfc-aa010d3e095a",
        "meta": {
          "profile": [
            "http://hl7.eu/fhir/base/StructureDefinition/practitionerRole-eu"
          ]
        },
        "text": {
          "status": "generated",
          "div": "<div xmlns=\"http://www.w3.org/1999/xhtml\">Laboratory Role Id: bfa50fea-7703-4ce8-acfc-aa010d3e095a</div>"
        },
        "practitioner": {
          "reference": "urn:uuid:c11e22ae-dd30-4d64-869b-c1ba41420ec7"
        }
      }
    },
    {
      "fullUrl": "urn:uuid:c11e22ae-dd30-4d64-869b-c1ba41420ec7",
      "resource": {
        "resourceType": "Practitioner",
        "id": "c11e22ae-dd30-4d64-869b-c1ba41420ec7",
        "meta": {
          "profile": [
            "http://hl7.eu/fhir/base/StructureDefinition/practitioner-eu"
          ]
        },
        "identifier": [
          {
            "assigner": {
              "display": "HL7 Europe"
            },
            "system": "urn:oid:2.16.840.1.113883.2.51.999",
            "value": "ba82748a-2583-4fb8-bd20-bcbbd1d6f7db"
          }
        ],
        "name": [
          {
            "prefix": [
              "dr"
            ],
            "given": [
              "Ex"
            ],
            "family": "Ample"
          }
        ],
        "address": [
          {
            "line": [
              "Laboratoire Central Européenne",
              "Boulevard du Jardin Botanique 32"
            ],
            "postalCode": "1000",
            "city": "Brussels",
            "country": "Belgium"
          }
        ],
        "text": {
          "status": "generated",
          "div": "<div xmlns=\"http://www.w3.org/1999/xhtml\">Laboratory: Laboratoire Central Européenne, 1000 Brussels, Belgium</div>"
        }
      }
    }
  ],
  "type": "document",
  "timestamp": "2015-12-12T17:58:39Z"
}
