{
  "resourceType": "Bundle",
  "id": "60305cf4-5495-4e57-b37d-f62b148e43af",
  "meta": {
    "profile": [
      "http://hl7.eu/fhir/laboratory/StructureDefinition/Bundle-eu-lab"
    ]
  },
  "identifier": {
    "assigner": {
      "display": "HL7 Europe"
    },
    "system": "urn:oid:2.16.840.1.113883.2.51.999",
    "value": "693f3b5b-513f-45f8-9676-056b85b3fc23"
  },
  "entry": [
    {
      "fullUrl": "urn:uuid:5624aefb-8d1a-47be-afce-20fb7e84830a",
      "resource": {
        "resourceType": "Composition",
        "id": "5624aefb-8d1a-47be-afce-20fb7e84830a",
        "meta": {
          "profile": [
            "http://hl7.eu/fhir/laboratory/StructureDefinition/Composition-eu-lab"
          ]
        },
        "identifier": {
          "assigner": {
            "display": "HL7 Europe"
          },
          "system": "urn:oid:2.16.840.1.113883.2.51.999",
          "value": "053e588f-12b6-489b-9873-a5585418031c"
        },
        "author": [
          {
            "reference": "urn:uuid:1127f785-23ed-4ad6-b633-43b98f427a96"
          }
        ],
        "category": [
          {
            "coding": [
              {
                "code": "26436-6",
                "system": "http://loinc.org",
                "display": "Laboratory studies (set)"
              }
            ]
          }
        ],
        "type": {
          "coding": [
            {
              "code": "11502-2",
              "system": "http://loinc.org",
              "display": "Laboratory report"
            }
          ],
          "text": "Laboratory Report"
        },
        "section": [
          {
            "code": {
              "coding": [
                {
                  "code": "26436-6",
                  "system": "http://loinc.org",
                  "display": "Laboratory studies (set)"
                }
              ],
              "text": "Laboratory studies"
            },
            "section": [
              {
                "code": {
                  "coding": [
                    {
                      "code": "$18719-5",
                      "system": "http://loinc.org",
                      "display": "Chemistry studies (set)"
                    }
                  ],
                  "text": "Chemistry"
                },
                "entry": [
                  {
                    "reference": "urn:uuid:01ee4c82-d1c7-4cce-ab51-13d589811073"
                  },
                  {
                    "reference": "urn:uuid:9d261e14-acf9-435e-91d1-29f9c55b8a1b"
                  },
                  {
                    "reference": "urn:uuid:d3ddc341-8ab0-4a53-bc25-8c38af7be072"
                  },
                  {
                    "reference": "urn:uuid:d8b6ec7f-d136-4dd2-80aa-3a792c6467ea"
                  },
                  {
                    "reference": "urn:uuid:c9d3d9a7-7d25-44ec-bc47-3887f15f043f"
                  },
                  {
                    "reference": "urn:uuid:431e1716-3c3c-467f-9c7d-3ce411bb0d0c"
                  },
                  {
                    "reference": "urn:uuid:55ee3f07-ce7a-466a-8066-a1cfa278dc5d"
                  },
                  {
                    "reference": "urn:uuid:757fec2f-dfe7-4cc0-8041-d6d60ad23b1e"
                  },
                  {
                    "reference": "urn:uuid:109b6261-e27e-4c87-aa5a-2790eb68f646"
                  },
                  {
                    "reference": "urn:uuid:25999243-ae78-4724-9a61-b4b3e7281d91"
                  }
                ],
                "text": {
                  "status": "generated",
                  "div": "<div xmlns=\"http://www.w3.org/1999/xhtml\"><h3>Chemistry</h3><table class=\"hl7__eu__lab__report\"><thead><tr><th>Test</th><th>24-MAY-2024</th><th>Reference&#xA0;Range</th><th>Unit</th></tr></thead><tbody><tr><td>Glucose [Mass/volume] in Serum or Plasma</td><td>81.5</td><td>70 - 140</td><td>mg/dL</td></tr><tr><td>Urea nitrogen [Mass/volume] in Serum or Plasma</td><td>8.2</td><td>7 - 20</td><td>mg/dL</td></tr><tr><td>Creatinine [Mass/volume] in Serum or Plasma</td><td><strong>2.1 H</strong></td><td>0.9 - 1.3</td><td>mg/dL</td></tr><tr><td>Calcium [Mass/volume] in Serum or Plasma</td><td>9.0</td><td>8.5 - 10.5</td><td>mg/dL</td></tr><tr><td>Sodium [Moles/volume] in Serum or Plasma</td><td>143.1</td><td>135 - 145</td><td>mmol/L</td></tr><tr><td>Potassium [Moles/volume] in Serum or Plasma</td><td>4.1</td><td>3.5 - 5.3</td><td>mmol/L</td></tr><tr><td>Chloride [Moles/volume] in Serum or Plasma</td><td><strong>108.6 H</strong></td><td>98 - 107</td><td>mmol/L</td></tr><tr><td>Carbon dioxide, total [Moles/volume] in Serum or Plasma</td><td>23.6</td><td>22 - 33</td><td>mmol/L</td></tr><tr><td>Ketones [Presence] in Urine by Test strip</td><td>Urine ketone test = ++</td><td></td><td></td></tr><tr><td>Hemoglobin A1c/Hemoglobin.total in Blood</td><td><strong>3.1 L</strong></td><td>4.3 - 6</td><td>%</td></tr></tbody></table></div>"
                },
                "title": "Chemistry"
              },
              {
                "code": {
                  "coding": [
                    {
                      "code": "$18729-4",
                      "system": "http://loinc.org",
                      "display": "Urinalysis studies (set)"
                    }
                  ],
                  "text": "Urinalysis"
                },
                "entry": [
                  {
                    "reference": "urn:uuid:59a74cfb-7515-40de-9073-b905f7639766"
                  },
                  {
                    "reference": "urn:uuid:c58baf38-a2f2-447d-9bf4-b55b3a86d2ba"
                  },
                  {
                    "reference": "urn:uuid:03db2f9c-4885-4f14-9ac5-bc8cbcfd5be2"
                  },
                  {
                    "reference": "urn:uuid:ea5c9e27-7d44-439f-ab52-59273a255115"
                  },
                  {
                    "reference": "urn:uuid:2e633b73-e045-4120-ba56-0fd2383e91d9"
                  },
                  {
                    "reference": "urn:uuid:1c2676d5-0157-405c-b6a4-82d3303f5e9d"
                  },
                  {
                    "reference": "urn:uuid:dc0f243f-67b9-40f4-8533-2d6faa2b63aa"
                  },
                  {
                    "reference": "urn:uuid:bf54240b-edea-4cf9-8435-29b45eac1d26"
                  },
                  {
                    "reference": "urn:uuid:2ca744a9-2c60-45a2-8795-3aa75b0263d9"
                  },
                  {
                    "reference": "urn:uuid:61d468e2-6ec6-430d-b2d0-4483fd54e4a4"
                  },
                  {
                    "reference": "urn:uuid:4494ef44-28a0-4db9-96e0-113e43d0f4bc"
                  },
                  {
                    "reference": "urn:uuid:184a55ed-3de3-4ae2-b246-73f56dc23f84"
                  }
                ],
                "text": {
                  "status": "generated",
                  "div": "<div xmlns=\"http://www.w3.org/1999/xhtml\"><h3>Urinalysis</h3><table class=\"hl7__eu__lab__report\"><thead><tr><th>Test</th><th>24-MAY-2024</th><th>Reference&#xA0;Range</th><th>Unit</th></tr></thead><tbody><tr><td>Glucose [Mass/volume] in Urine by Test strip</td><td><strong>2.0 H</strong></td><td>0 - 0.8</td><td>mg/dL</td></tr><tr><td>Glucose [Presence] in Urine by Test strip</td><td>++</td><td></td><td></td></tr><tr><td>Bilirubin.total [Mass/volume] in Urine by Test strip</td><td>0.8</td><td>0 - 1.9</td><td>mg/dL</td></tr><tr><td>Bilirubin.total [Presence] in Urine by Test strip</td><td>Finding of bilirubin in urine</td><td></td><td></td></tr><tr><td>Ketones [Mass/volume] in Urine by Test strip</td><td><strong>10.1 H</strong></td><td>0 - 3</td><td>mg/dL</td></tr><tr><td>Specific gravity of Urine by Test strip</td><td><strong>1.0 L</strong></td><td>1.01 - 1.03</td><td>{nominal}</td></tr><tr><td>pH of Urine by Test strip</td><td>6.5</td><td>4.5 - 7.5</td><td>pH</td></tr><tr><td>Protein [Mass/volume] in Urine by Test strip</td><td><strong>370.3 H</strong></td><td>0 - 149</td><td>mg/dL</td></tr><tr><td>Protein [Presence] in Urine by Test strip</td><td>Urine protein test = ++</td><td></td><td></td></tr><tr><td>Nitrite [Presence] in Urine by Test strip</td><td>Urine nitrite negative</td><td></td><td></td></tr><tr><td>Hemoglobin [Presence] in Urine by Test strip</td><td>Urine blood test = negative</td><td></td><td></td></tr><tr><td>Leukocyte esterase [Presence] in Urine by Test strip</td><td>Urine leukocyte test negative</td><td></td><td></td></tr></tbody></table></div>"
                },
                "title": "Urinalysis"
              },
              {
                "code": {
                  "coding": [
                    {
                      "code": "$LP7846-1",
                      "system": "http://loinc.org",
                      "display": "Specimen information"
                    }
                  ],
                  "text": "Specimen information"
                },
                "entry": [
                  {
                    "reference": "urn:uuid:fcff53da-6e21-4a9c-a822-08f5eeda944c"
                  },
                  {
                    "reference": "urn:uuid:8fc1652d-028a-4b07-a358-029354efbe15"
                  },
                  {
                    "reference": "urn:uuid:faf0cb04-e2a7-47ff-95ba-2e954cc9ca32"
                  },
                  {
                    "reference": "urn:uuid:2c717fa9-d9ef-4c2c-9026-65f1f0561ad6"
                  }
                ],
                "text": {
                  "status": "generated",
                  "div": "<div xmlns=\"http://www.w3.org/1999/xhtml\"><h3>Specimen information</h3><table class=\"hl7__eu__lab__report\"><thead><tr><th>Test</th><th>24-MAY-2024</th><th>Specimen</th><th></th></tr></thead><tbody><tr><td>Appearance of Urine</td><td>Cloudy urine</td><td>Urine</td><td></td></tr><tr><td>Odor of Urine</td><td>Urine smell ammoniacal</td><td>Urine</td><td></td></tr><tr><td>Clarity of Urine</td><td>Translucent</td><td>Urine</td><td></td></tr><tr><td>Color of Urine</td><td>Brown color</td><td>Urine</td><td></td></tr></tbody></table></div>"
                },
                "title": "Specimen information"
              }
            ],
            "title": "Laboratory Report"
          },
          {
            "text": {
              "status": "generated",
              "div": "<div xmlns=\"http://www.w3.org/1999/xhtml\"><h3>Annotation</h3><table class=\"hl7__eu__lab__report\"><tr><th>Conclusion and Recommendations based on this report and previous findings known to us</th></tr><tr><td>The patient shows elevated serum creatinine, proteinuria, glucosuria, and ketonuria, suggesting impaired renal function and possible diabetic or metabolic derangement, despite a low HbA1c. Urine is dilute, brown, and cloudy with ammoniacal odor, but no evidence of infection. Further evaluation for acute or chronic kidney disease and possible non-diabetic causes of glucosuria/ketonuria is recommended.</td></tr></table></div>"
            },
            "code": {
              "coding": [
                {
                  "system": "http://loinc.org",
                  "code": "48767-8",
                  "display": "Annotation comment"
                }
              ]
            },
            "title": "Annotation comment"
          }
        ],
        "status": "final",
        "subject": {
          "reference": "urn:uuid:ddf6b15e-4601-472f-9ec5-82269794a6bf",
          "display": "Victor Lagarde"
        },
        "date": "2024-05-24T06:48:18Z",
        "title": "Laboratory Report",
        "confidentiality": "N"
      }
    },
    {
      "fullUrl": "urn:uuid:0fe34bc9-751c-45ab-a665-da07e23b52e3",
      "resource": {
        "resourceType": "DiagnosticReport",
        "id": "0fe34bc9-751c-45ab-a665-da07e23b52e3",
        "meta": {
          "profile": [
            "http://hl7.eu/fhir/laboratory/StructureDefinition/DiagnosticReport-eu-lab"
          ]
        },
        "identifier": [
          {
            "assigner": {
              "display": "HL7 Europe"
            },
            "system": "urn:oid:2.16.840.1.113883.2.51.999",
            "value": "a705ce7c-22b6-4ae8-80b4-4b4c76632d3c"
          }
        ],
        "extension": [
          {
            "url": "http://hl7.org/fhir/5.0/StructureDefinition/extension-DiagnosticReport.composition",
            "valueReference": {
              "reference": "urn:uuid:053e588f-12b6-489b-9873-a5585418031c"
            }
          }
        ],
        "category": [
          {
            "coding": [
              {
                "code": "26436-6",
                "system": "http://loinc.org",
                "display": "Laboratory studies (set)"
              }
            ]
          }
        ],
        "specimen": [
          {
            "reference": "urn:uuid:c7fd4626-474a-46f4-857a-739abc4164e4"
          },
          {
            "reference": "urn:uuid:647ae129-cf7c-4964-8aa7-ccadf0beab59"
          },
          {
            "reference": "urn:uuid:8a878409-6005-4c5c-b27d-10c785397340"
          }
        ],
        "result": [
          {
            "reference": "urn:uuid:01ee4c82-d1c7-4cce-ab51-13d589811073"
          },
          {
            "reference": "urn:uuid:9d261e14-acf9-435e-91d1-29f9c55b8a1b"
          },
          {
            "reference": "urn:uuid:d3ddc341-8ab0-4a53-bc25-8c38af7be072"
          },
          {
            "reference": "urn:uuid:d8b6ec7f-d136-4dd2-80aa-3a792c6467ea"
          },
          {
            "reference": "urn:uuid:c9d3d9a7-7d25-44ec-bc47-3887f15f043f"
          },
          {
            "reference": "urn:uuid:431e1716-3c3c-467f-9c7d-3ce411bb0d0c"
          },
          {
            "reference": "urn:uuid:55ee3f07-ce7a-466a-8066-a1cfa278dc5d"
          },
          {
            "reference": "urn:uuid:757fec2f-dfe7-4cc0-8041-d6d60ad23b1e"
          },
          {
            "reference": "urn:uuid:fcff53da-6e21-4a9c-a822-08f5eeda944c"
          },
          {
            "reference": "urn:uuid:8fc1652d-028a-4b07-a358-029354efbe15"
          },
          {
            "reference": "urn:uuid:faf0cb04-e2a7-47ff-95ba-2e954cc9ca32"
          },
          {
            "reference": "urn:uuid:2c717fa9-d9ef-4c2c-9026-65f1f0561ad6"
          },
          {
            "reference": "urn:uuid:59a74cfb-7515-40de-9073-b905f7639766"
          },
          {
            "reference": "urn:uuid:c58baf38-a2f2-447d-9bf4-b55b3a86d2ba"
          },
          {
            "reference": "urn:uuid:03db2f9c-4885-4f14-9ac5-bc8cbcfd5be2"
          },
          {
            "reference": "urn:uuid:ea5c9e27-7d44-439f-ab52-59273a255115"
          },
          {
            "reference": "urn:uuid:2e633b73-e045-4120-ba56-0fd2383e91d9"
          },
          {
            "reference": "urn:uuid:109b6261-e27e-4c87-aa5a-2790eb68f646"
          },
          {
            "reference": "urn:uuid:1c2676d5-0157-405c-b6a4-82d3303f5e9d"
          },
          {
            "reference": "urn:uuid:dc0f243f-67b9-40f4-8533-2d6faa2b63aa"
          },
          {
            "reference": "urn:uuid:bf54240b-edea-4cf9-8435-29b45eac1d26"
          },
          {
            "reference": "urn:uuid:2ca744a9-2c60-45a2-8795-3aa75b0263d9"
          },
          {
            "reference": "urn:uuid:61d468e2-6ec6-430d-b2d0-4483fd54e4a4"
          },
          {
            "reference": "urn:uuid:4494ef44-28a0-4db9-96e0-113e43d0f4bc"
          },
          {
            "reference": "urn:uuid:184a55ed-3de3-4ae2-b246-73f56dc23f84"
          },
          {
            "reference": "urn:uuid:25999243-ae78-4724-9a61-b4b3e7281d91"
          }
        ],
        "status": "registered",
        "code": {
          "coding": [
            {
              "code": "11502-2",
              "system": "http://loinc.org",
              "display": "Laboratory report"
            }
          ]
        },
        "subject": {
          "reference": "urn:uuid:ddf6b15e-4601-472f-9ec5-82269794a6bf",
          "display": "Victor Lagarde"
        }
      }
    },
    {
      "fullUrl": "urn:uuid:ddf6b15e-4601-472f-9ec5-82269794a6bf",
      "resource": {
        "resourceType": "Patient",
        "id": "ddf6b15e-4601-472f-9ec5-82269794a6bf",
        "meta": {
          "security": [
            {
              "system": "http://terminology.hl7.org/CodeSystem/v3-ActReason",
              "code": "HTEST"
            },
            {
              "system": "http://terminology.hl7.org/CodeSystem/v3-ActReason",
              "code": "TRAIN"
            }
          ],
          "tag": [
            {
              "system": "https://synderai.net/fhir/CodeSystem/tags",
              "code": "synthetic",
              "display": "SYNDERAI Synthetic data"
            }
          ],
          "profile": [
            "http://hl7.eu/fhir/base/StructureDefinition/patient-eu-core"
          ]
        },
        "identifier": [
          {
            "type": {
              "coding": [
                {
                  "code": "PT",
                  "system": "http://terminology.hl7.org/CodeSystem/v2-0203"
                }
              ]
            },
            "system": "http://ec.europa.eu/identifier/eci",
            "value": "9925-001801-9"
          },
          {
            "type": {
              "coding": [
                {
                  "code": "MR",
                  "system": "http://terminology.hl7.org/CodeSystem/v2-0203"
                }
              ]
            },
            "system": "http://local.setting.eu/identifier",
            "value": "22c2dfd0-ac57-8833-2532-848f180896a4"
          }
        ],
        "name": [
          {
            "family": "Lagarde"
          },
          {
            "given": [
              "Victor"
            ]
          },
          {
            "text": "Victor Lagarde"
          }
        ],
        "address": [
          {
            "line": [
              "avenue Robert"
            ],
            "use": "home",
            "type": "physical",
            "postalCode": "80300",
            "city": "Albert",
            "country": "France"
          }
        ],
        "telecom": [
          {
            "system": "phone",
            "value": "0177941801"
          }
        ],
        "extension": [
          {
            "url": "http://hl7.org/fhir/StructureDefinition/patient-nationality",
            "valueCodeableConcept": {
              "coding": [
                {
                  "code": "FR",
                  "system": "http://hl7.org/fhir/ValueSet/country"
                }
              ]
            }
          }
        ],
        "text": {
          "status": "generated",
          "div": "<div xmlns=\"http://www.w3.org/1999/xhtml\"><table class=\"hl7__ips\"><tr><td>Victor Lagarde</td><td>male</td><td>31-Aug-1939</td></tr></table></div>"
        },
        "gender": "male",
        "birthDate": "1939-08-31"
      }
    },
    {
      "fullUrl": "urn:uuid:52105efd-4aa1-4dd5-b374-5e026488e1fa",
      "resource": {
        "resourceType": "ServiceRequest",
        "id": "52105efd-4aa1-4dd5-b374-5e026488e1fa",
        "meta": {
          "profile": [
            "http://hl7.eu/fhir/laboratory/StructureDefinition/ServiceRequest-eu-lab"
          ]
        },
        "identifier": [
          {
            "system": "http://example.org",
            "value": "84d8fb74-72a9-4088-969a-fd09d8f6c88a"
          }
        ],
        "specimen": [
          {
            "reference": "urn:uuid:c7fd4626-474a-46f4-857a-739abc4164e4"
          },
          {
            "reference": "urn:uuid:647ae129-cf7c-4964-8aa7-ccadf0beab59"
          },
          {
            "reference": "urn:uuid:8a878409-6005-4c5c-b27d-10c785397340"
          }
        ],
        "reasonCode": [
          {
            "coding": [
              {
                "code": "433144002",
                "system": "http://snomed.info/sct",
                "display": "Chronic kidney disease stage 3"
              }
            ]
          },
          {
            "coding": [
              {
                "code": "157141000119108",
                "system": "http://snomed.info/sct",
                "display": "Proteinuria due to type 2 diabetes mellitus"
              }
            ]
          },
          {
            "coding": [
              {
                "code": "431856006",
                "system": "http://snomed.info/sct",
                "display": "Chronic kidney disease stage 2"
              }
            ]
          },
          {
            "coding": [
              {
                "code": "90781000119102",
                "system": "http://snomed.info/sct",
                "display": "Microalbuminuria due to type 2 diabetes mellitus"
              }
            ]
          },
          {
            "coding": [
              {
                "code": "127013003",
                "system": "http://snomed.info/sct",
                "display": "Disorder of kidney due to diabetes mellitus"
              }
            ]
          },
          {
            "coding": [
              {
                "code": "431855005",
                "system": "http://snomed.info/sct",
                "display": "Chronic kidney disease stage 1"
              }
            ]
          },
          {
            "coding": [
              {
                "code": "55822004",
                "system": "http://snomed.info/sct",
                "display": "Hyperlipidemia"
              }
            ]
          },
          {
            "coding": [
              {
                "code": "59621000",
                "system": "http://snomed.info/sct",
                "display": "Essential hypertension"
              }
            ]
          },
          {
            "coding": [
              {
                "code": "237602007",
                "system": "http://snomed.info/sct",
                "display": "Metabolic syndrome X"
              }
            ]
          },
          {
            "coding": [
              {
                "code": "414545008",
                "system": "http://snomed.info/sct",
                "display": "Ischemic heart disease"
              }
            ]
          },
          {
            "coding": [
              {
                "code": "40055000",
                "system": "http://snomed.info/sct",
                "display": "Chronic sinusitis"
              }
            ]
          },
          {
            "coding": [
              {
                "code": "15777000",
                "system": "http://snomed.info/sct",
                "display": "Prediabetes"
              }
            ]
          },
          {
            "coding": [
              {
                "code": "271737000",
                "system": "http://snomed.info/sct",
                "display": "Anemia"
              }
            ]
          }
        ],
        "status": "active",
        "intent": "order",
        "code": {
          "coding": [
            {
              "code": "108252007",
              "system": "http://snomed.info/sct",
              "display": "Laboratory procedure"
            }
          ]
        },
        "subject": {
          "reference": "urn:uuid:ddf6b15e-4601-472f-9ec5-82269794a6bf",
          "display": "Victor Lagarde"
        },
        "requester": {
          "reference": "urn:uuid:eb9f903c-17db-43dd-afe9-9953ae216e78"
        }
      }
    },
    {
      "fullUrl": "urn:uuid:eb9f903c-17db-43dd-afe9-9953ae216e78",
      "resource": {
        "resourceType": "PractitionerRole",
        "id": "eb9f903c-17db-43dd-afe9-9953ae216e78",
        "meta": {
          "profile": [
            "http://hl7.eu/fhir/base/StructureDefinition/practitionerRole-eu"
          ]
        },
        "text": {
          "status": "generated",
          "div": "<div xmlns=\"http://www.w3.org/1999/xhtml\">Provider Role Id: eb9f903c-17db-43dd-afe9-9953ae216e78</div>"
        },
        "organization": {
          "reference": "urn:uuid:f9e1e69f-0935-4802-a2ed-796cecc96395"
        }
      }
    },
    {
      "fullUrl": "urn:uuid:f9e1e69f-0935-4802-a2ed-796cecc96395",
      "resource": {
        "resourceType": "Organization",
        "id": "f9e1e69f-0935-4802-a2ed-796cecc96395",
        "meta": {
          "profile": [
            "http://hl7.eu/fhir/base/StructureDefinition/organization-eu"
          ]
        },
        "identifier": [
          {
            "assigner": {
              "display": "HL7 Europe"
            },
            "system": "urn:oid:2.16.840.1.113883.2.51.999",
            "value": "0949f684-26ea-4838-bbb1-1999b648519c"
          }
        ],
        "address": [
          {
            "city": "Auxerre",
            "postalCode": "89000",
            "country": "France"
          }
        ],
        "text": {
          "status": "generated",
          "div": "<div xmlns=\"http://www.w3.org/1999/xhtml\">Provider Organization: Thiriot Didier (Cardiologie)</div>"
        },
        "name": "Thiriot Didier (Cardiologie)"
      }
    },
    {
      "fullUrl": "urn:uuid:c7fd4626-474a-46f4-857a-739abc4164e4",
      "resource": {
        "resourceType": "Specimen",
        "id": "c7fd4626-474a-46f4-857a-739abc4164e4",
        "meta": {
          "profile": [
            "http://hl7.eu/fhir/laboratory/StructureDefinition/Specimen-eu-lab"
          ]
        },
        "collection": {
          "collectedDateTime": "2024-05-24"
        },
        "text": {
          "status": "generated",
          "div": "<div xmlns=\"http://www.w3.org/1999/xhtml\"><table class=\"hl7__eu__lab__report\"><tr><th>Specimen</th><th>Collection Date</th></tr><tr><td>Acellular blood (serum or plasma) specimen</td><td><span class=\"nb\">24-May-2024</span></td></tr></table></div>"
        },
        "type": {
          "coding": [
            {
              "code": "122592007",
              "system": "http://snomed.info/sct",
              "display": "Acellular blood (serum or plasma) specimen"
            }
          ]
        }
      }
    },
    {
      "fullUrl": "urn:uuid:647ae129-cf7c-4964-8aa7-ccadf0beab59",
      "resource": {
        "resourceType": "Specimen",
        "id": "647ae129-cf7c-4964-8aa7-ccadf0beab59",
        "meta": {
          "profile": [
            "http://hl7.eu/fhir/laboratory/StructureDefinition/Specimen-eu-lab"
          ]
        },
        "collection": {
          "collectedDateTime": "2024-05-24"
        },
        "text": {
          "status": "generated",
          "div": "<div xmlns=\"http://www.w3.org/1999/xhtml\"><table class=\"hl7__eu__lab__report\"><tr><th>Specimen</th><th>Collection Date</th></tr><tr><td>Urine specimen</td><td><span class=\"nb\">24-May-2024</span></td></tr></table></div>"
        },
        "type": {
          "coding": [
            {
              "code": "122575003",
              "system": "http://snomed.info/sct",
              "display": "Urine specimen"
            }
          ]
        }
      }
    },
    {
      "fullUrl": "urn:uuid:8a878409-6005-4c5c-b27d-10c785397340",
      "resource": {
        "resourceType": "Specimen",
        "id": "8a878409-6005-4c5c-b27d-10c785397340",
        "meta": {
          "profile": [
            "http://hl7.eu/fhir/laboratory/StructureDefinition/Specimen-eu-lab"
          ]
        },
        "collection": {
          "collectedDateTime": "2024-05-24"
        },
        "text": {
          "status": "generated",
          "div": "<div xmlns=\"http://www.w3.org/1999/xhtml\"><table class=\"hl7__eu__lab__report\"><tr><th>Specimen</th><th>Collection Date</th></tr><tr><td>Whole blood specimen (specimen)</td><td><span class=\"nb\">24-May-2024</span></td></tr></table></div>"
        },
        "type": {
          "coding": [
            {
              "code": "258580003",
              "system": "http://snomed.info/sct",
              "display": "Whole blood specimen (specimen)"
            }
          ]
        }
      }
    },
    {
      "fullUrl": "urn:uuid:01ee4c82-d1c7-4cce-ab51-13d589811073",
      "resource": {
        "resourceType": "Observation",
        "id": "01ee4c82-d1c7-4cce-ab51-13d589811073",
        "meta": {
          "profile": [
            "http://hl7.eu/fhir/laboratory/StructureDefinition/Observation-resultslab-eu-lab"
          ]
        },
        "performer": [
          {
            "display": "The Central European Lab"
          }
        ],
        "category": [
          {
            "coding": [
              {
                "system": "http://terminology.hl7.org/CodeSystem/observation-category",
                "code": "laboratory"
              }
            ]
          }
        ],
        "code": {
          "coding": [
            {
              "code": "2345-7",
              "system": "http://loinc.org",
              "display": "Glucose [Mass/volume] in Serum or Plasma"
            }
          ],
          "text": "Glucose [Mass/volume] in Serum or Plasma"
        },
        "valueQuantity": {
          "system": "http://unitsofmeasure.org",
          "value": 81.5,
          "unit": "mg/dL",
          "code": "mg/dL"
        },
        "referenceRange": [
          {
            "low": {
              "value": 70,
              "code": "mg/dL",
              "system": "http://unitsofmeasure.org"
            }
          },
          {
            "high": {
              "value": 140,
              "code": "mg/dL",
              "system": "http://unitsofmeasure.org"
            }
          }
        ],
        "text": {
          "status": "generated",
          "div": "<div xmlns=\"http://www.w3.org/1999/xhtml\"><table class=\"hl7__eu__lab__report\"><tr><th>Test</th><th>24-May-2024</th><th>Reference&#xA0;Range</th><th>Unit</th></tr><tr><td>Glucose [Mass/volume] in Serum or Plasma</td><td>81.5</td><td>70 - 140</td><td></td><td>mg/dL</td></tr></table></div>"
        },
        "status": "final",
        "subject": {
          "reference": "urn:uuid:ddf6b15e-4601-472f-9ec5-82269794a6bf",
          "display": "Victor Lagarde"
        },
        "effectiveDateTime": "2024-05-24T04:48:18Z",
        "specimen": {
          "reference": "urn:uuid:c7fd4626-474a-46f4-857a-739abc4164e4"
        }
      }
    },
    {
      "fullUrl": "urn:uuid:9d261e14-acf9-435e-91d1-29f9c55b8a1b",
      "resource": {
        "resourceType": "Observation",
        "id": "9d261e14-acf9-435e-91d1-29f9c55b8a1b",
        "meta": {
          "profile": [
            "http://hl7.eu/fhir/laboratory/StructureDefinition/Observation-resultslab-eu-lab"
          ]
        },
        "performer": [
          {
            "display": "The Central European Lab"
          }
        ],
        "category": [
          {
            "coding": [
              {
                "system": "http://terminology.hl7.org/CodeSystem/observation-category",
                "code": "laboratory"
              }
            ]
          }
        ],
        "code": {
          "coding": [
            {
              "code": "3094-0",
              "system": "http://loinc.org",
              "display": "Urea nitrogen [Mass/volume] in Serum or Plasma"
            }
          ],
          "text": "Urea nitrogen [Mass/volume] in Serum or Plasma"
        },
        "valueQuantity": {
          "system": "http://unitsofmeasure.org",
          "value": 8.2,
          "unit": "mg/dL",
          "code": "mg/dL"
        },
        "referenceRange": [
          {
            "low": {
              "value": 7,
              "code": "mg/dL",
              "system": "http://unitsofmeasure.org"
            }
          },
          {
            "high": {
              "value": 20,
              "code": "mg/dL",
              "system": "http://unitsofmeasure.org"
            }
          }
        ],
        "text": {
          "status": "generated",
          "div": "<div xmlns=\"http://www.w3.org/1999/xhtml\"><table class=\"hl7__eu__lab__report\"><tr><th>Test</th><th>24-May-2024</th><th>Reference&#xA0;Range</th><th>Unit</th></tr><tr><td>Urea nitrogen [Mass/volume] in Serum or Plasma</td><td>8.2</td><td>7 - 20</td><td></td><td>mg/dL</td></tr></table></div>"
        },
        "status": "final",
        "subject": {
          "reference": "urn:uuid:ddf6b15e-4601-472f-9ec5-82269794a6bf",
          "display": "Victor Lagarde"
        },
        "effectiveDateTime": "2024-05-24T04:48:18Z",
        "specimen": {
          "reference": "urn:uuid:c7fd4626-474a-46f4-857a-739abc4164e4"
        }
      }
    },
    {
      "fullUrl": "urn:uuid:d3ddc341-8ab0-4a53-bc25-8c38af7be072",
      "resource": {
        "resourceType": "Observation",
        "id": "d3ddc341-8ab0-4a53-bc25-8c38af7be072",
        "meta": {
          "profile": [
            "http://hl7.eu/fhir/laboratory/StructureDefinition/Observation-resultslab-eu-lab"
          ]
        },
        "performer": [
          {
            "display": "The Central European Lab"
          }
        ],
        "category": [
          {
            "coding": [
              {
                "system": "http://terminology.hl7.org/CodeSystem/observation-category",
                "code": "laboratory"
              }
            ]
          }
        ],
        "code": {
          "coding": [
            {
              "code": "2160-0",
              "system": "http://loinc.org",
              "display": "Creatinine [Mass/volume] in Serum or Plasma"
            }
          ],
          "text": "Creatinine [Mass/volume] in Serum or Plasma"
        },
        "valueQuantity": {
          "system": "http://unitsofmeasure.org",
          "value": 2.1,
          "unit": "mg/dL",
          "code": "mg/dL"
        },
        "referenceRange": [
          {
            "low": {
              "value": 0.9,
              "code": "mg/dL",
              "system": "http://unitsofmeasure.org"
            }
          },
          {
            "high": {
              "value": 1.3,
              "code": "mg/dL",
              "system": "http://unitsofmeasure.org"
            }
          }
        ],
        "interpretation": [
          {
            "coding": [
              {
                "code": "H",
                "system": "http://terminology.hl7.org/CodeSystem/v3-ObservationInterpretation",
                "display": "High"
              }
            ]
          }
        ],
        "text": {
          "status": "generated",
          "div": "<div xmlns=\"http://www.w3.org/1999/xhtml\"><table class=\"hl7__eu__lab__report\"><tr><th>Test</th><th>24-May-2024</th><th>Reference&#xA0;Range</th><th>Unit</th></tr><tr><td>Creatinine [Mass/volume] in Serum or Plasma</td><td>2.1</td><td>0.9 - 1.3</td><td>H</td><td>mg/dL</td></tr></table></div>"
        },
        "status": "final",
        "subject": {
          "reference": "urn:uuid:ddf6b15e-4601-472f-9ec5-82269794a6bf",
          "display": "Victor Lagarde"
        },
        "effectiveDateTime": "2024-05-24T04:48:18Z",
        "specimen": {
          "reference": "urn:uuid:c7fd4626-474a-46f4-857a-739abc4164e4"
        }
      }
    },
    {
      "fullUrl": "urn:uuid:d8b6ec7f-d136-4dd2-80aa-3a792c6467ea",
      "resource": {
        "resourceType": "Observation",
        "id": "d8b6ec7f-d136-4dd2-80aa-3a792c6467ea",
        "meta": {
          "profile": [
            "http://hl7.eu/fhir/laboratory/StructureDefinition/Observation-resultslab-eu-lab"
          ]
        },
        "performer": [
          {
            "display": "The Central European Lab"
          }
        ],
        "category": [
          {
            "coding": [
              {
                "system": "http://terminology.hl7.org/CodeSystem/observation-category",
                "code": "laboratory"
              }
            ]
          }
        ],
        "code": {
          "coding": [
            {
              "code": "17861-6",
              "system": "http://loinc.org",
              "display": "Calcium [Mass/volume] in Serum or Plasma"
            }
          ],
          "text": "Calcium [Mass/volume] in Serum or Plasma"
        },
        "valueQuantity": {
          "system": "http://unitsofmeasure.org",
          "value": 9,
          "unit": "mg/dL",
          "code": "mg/dL"
        },
        "referenceRange": [
          {
            "low": {
              "value": 8.5,
              "code": "mg/dL",
              "system": "http://unitsofmeasure.org"
            }
          },
          {
            "high": {
              "value": 10.5,
              "code": "mg/dL",
              "system": "http://unitsofmeasure.org"
            }
          }
        ],
        "text": {
          "status": "generated",
          "div": "<div xmlns=\"http://www.w3.org/1999/xhtml\"><table class=\"hl7__eu__lab__report\"><tr><th>Test</th><th>24-May-2024</th><th>Reference&#xA0;Range</th><th>Unit</th></tr><tr><td>Calcium [Mass/volume] in Serum or Plasma</td><td>9.0</td><td>8.5 - 10.5</td><td></td><td>mg/dL</td></tr></table></div>"
        },
        "status": "final",
        "subject": {
          "reference": "urn:uuid:ddf6b15e-4601-472f-9ec5-82269794a6bf",
          "display": "Victor Lagarde"
        },
        "effectiveDateTime": "2024-05-24T04:48:18Z",
        "specimen": {
          "reference": "urn:uuid:c7fd4626-474a-46f4-857a-739abc4164e4"
        }
      }
    },
    {
      "fullUrl": "urn:uuid:c9d3d9a7-7d25-44ec-bc47-3887f15f043f",
      "resource": {
        "resourceType": "Observation",
        "id": "c9d3d9a7-7d25-44ec-bc47-3887f15f043f",
        "meta": {
          "profile": [
            "http://hl7.eu/fhir/laboratory/StructureDefinition/Observation-resultslab-eu-lab"
          ]
        },
        "performer": [
          {
            "display": "The Central European Lab"
          }
        ],
        "category": [
          {
            "coding": [
              {
                "system": "http://terminology.hl7.org/CodeSystem/observation-category",
                "code": "laboratory"
              }
            ]
          }
        ],
        "code": {
          "coding": [
            {
              "code": "2951-2",
              "system": "http://loinc.org",
              "display": "Sodium [Moles/volume] in Serum or Plasma"
            }
          ],
          "text": "Sodium [Moles/volume] in Serum or Plasma"
        },
        "valueQuantity": {
          "system": "http://unitsofmeasure.org",
          "value": 143.1,
          "unit": "mmol/L",
          "code": "mmol/L"
        },
        "referenceRange": [
          {
            "low": {
              "value": 135,
              "code": "mmol/L",
              "system": "http://unitsofmeasure.org"
            }
          },
          {
            "high": {
              "value": 145,
              "code": "mmol/L",
              "system": "http://unitsofmeasure.org"
            }
          }
        ],
        "text": {
          "status": "generated",
          "div": "<div xmlns=\"http://www.w3.org/1999/xhtml\"><table class=\"hl7__eu__lab__report\"><tr><th>Test</th><th>24-May-2024</th><th>Reference&#xA0;Range</th><th>Unit</th></tr><tr><td>Sodium [Moles/volume] in Serum or Plasma</td><td>143.1</td><td>135 - 145</td><td></td><td>mmol/L</td></tr></table></div>"
        },
        "status": "final",
        "subject": {
          "reference": "urn:uuid:ddf6b15e-4601-472f-9ec5-82269794a6bf",
          "display": "Victor Lagarde"
        },
        "effectiveDateTime": "2024-05-24T04:48:18Z",
        "specimen": {
          "reference": "urn:uuid:c7fd4626-474a-46f4-857a-739abc4164e4"
        }
      }
    },
    {
      "fullUrl": "urn:uuid:431e1716-3c3c-467f-9c7d-3ce411bb0d0c",
      "resource": {
        "resourceType": "Observation",
        "id": "431e1716-3c3c-467f-9c7d-3ce411bb0d0c",
        "meta": {
          "profile": [
            "http://hl7.eu/fhir/laboratory/StructureDefinition/Observation-resultslab-eu-lab"
          ]
        },
        "performer": [
          {
            "display": "The Central European Lab"
          }
        ],
        "category": [
          {
            "coding": [
              {
                "system": "http://terminology.hl7.org/CodeSystem/observation-category",
                "code": "laboratory"
              }
            ]
          }
        ],
        "code": {
          "coding": [
            {
              "code": "2823-3",
              "system": "http://loinc.org",
              "display": "Potassium [Moles/volume] in Serum or Plasma"
            }
          ],
          "text": "Potassium [Moles/volume] in Serum or Plasma"
        },
        "valueQuantity": {
          "system": "http://unitsofmeasure.org",
          "value": 4.1,
          "unit": "mmol/L",
          "code": "mmol/L"
        },
        "referenceRange": [
          {
            "low": {
              "value": 3.5,
              "code": "mmol/L",
              "system": "http://unitsofmeasure.org"
            }
          },
          {
            "high": {
              "value": 5.3,
              "code": "mmol/L",
              "system": "http://unitsofmeasure.org"
            }
          }
        ],
        "text": {
          "status": "generated",
          "div": "<div xmlns=\"http://www.w3.org/1999/xhtml\"><table class=\"hl7__eu__lab__report\"><tr><th>Test</th><th>24-May-2024</th><th>Reference&#xA0;Range</th><th>Unit</th></tr><tr><td>Potassium [Moles/volume] in Serum or Plasma</td><td>4.1</td><td>3.5 - 5.3</td><td></td><td>mmol/L</td></tr></table></div>"
        },
        "status": "final",
        "subject": {
          "reference": "urn:uuid:ddf6b15e-4601-472f-9ec5-82269794a6bf",
          "display": "Victor Lagarde"
        },
        "effectiveDateTime": "2024-05-24T04:48:18Z",
        "specimen": {
          "reference": "urn:uuid:c7fd4626-474a-46f4-857a-739abc4164e4"
        }
      }
    },
    {
      "fullUrl": "urn:uuid:55ee3f07-ce7a-466a-8066-a1cfa278dc5d",
      "resource": {
        "resourceType": "Observation",
        "id": "55ee3f07-ce7a-466a-8066-a1cfa278dc5d",
        "meta": {
          "profile": [
            "http://hl7.eu/fhir/laboratory/StructureDefinition/Observation-resultslab-eu-lab"
          ]
        },
        "performer": [
          {
            "display": "The Central European Lab"
          }
        ],
        "category": [
          {
            "coding": [
              {
                "system": "http://terminology.hl7.org/CodeSystem/observation-category",
                "code": "laboratory"
              }
            ]
          }
        ],
        "code": {
          "coding": [
            {
              "code": "2075-0",
              "system": "http://loinc.org",
              "display": "Chloride [Moles/volume] in Serum or Plasma"
            }
          ],
          "text": "Chloride [Moles/volume] in Serum or Plasma"
        },
        "valueQuantity": {
          "system": "http://unitsofmeasure.org",
          "value": 108.6,
          "unit": "mmol/L",
          "code": "mmol/L"
        },
        "referenceRange": [
          {
            "low": {
              "value": 98,
              "code": "mmol/L",
              "system": "http://unitsofmeasure.org"
            }
          },
          {
            "high": {
              "value": 107,
              "code": "mmol/L",
              "system": "http://unitsofmeasure.org"
            }
          }
        ],
        "interpretation": [
          {
            "coding": [
              {
                "code": "H",
                "system": "http://terminology.hl7.org/CodeSystem/v3-ObservationInterpretation",
                "display": "High"
              }
            ]
          }
        ],
        "text": {
          "status": "generated",
          "div": "<div xmlns=\"http://www.w3.org/1999/xhtml\"><table class=\"hl7__eu__lab__report\"><tr><th>Test</th><th>24-May-2024</th><th>Reference&#xA0;Range</th><th>Unit</th></tr><tr><td>Chloride [Moles/volume] in Serum or Plasma</td><td>108.6</td><td>98 - 107</td><td>H</td><td>mmol/L</td></tr></table></div>"
        },
        "status": "final",
        "subject": {
          "reference": "urn:uuid:ddf6b15e-4601-472f-9ec5-82269794a6bf",
          "display": "Victor Lagarde"
        },
        "effectiveDateTime": "2024-05-24T04:48:18Z",
        "specimen": {
          "reference": "urn:uuid:c7fd4626-474a-46f4-857a-739abc4164e4"
        }
      }
    },
    {
      "fullUrl": "urn:uuid:757fec2f-dfe7-4cc0-8041-d6d60ad23b1e",
      "resource": {
        "resourceType": "Observation",
        "id": "757fec2f-dfe7-4cc0-8041-d6d60ad23b1e",
        "meta": {
          "profile": [
            "http://hl7.eu/fhir/laboratory/StructureDefinition/Observation-resultslab-eu-lab"
          ]
        },
        "performer": [
          {
            "display": "The Central European Lab"
          }
        ],
        "category": [
          {
            "coding": [
              {
                "system": "http://terminology.hl7.org/CodeSystem/observation-category",
                "code": "laboratory"
              }
            ]
          }
        ],
        "code": {
          "coding": [
            {
              "code": "2028-9",
              "system": "http://loinc.org",
              "display": "Carbon dioxide, total [Moles/volume] in Serum or Plasma"
            }
          ],
          "text": "Carbon dioxide, total [Moles/volume] in Serum or Plasma"
        },
        "valueQuantity": {
          "system": "http://unitsofmeasure.org",
          "value": 23.6,
          "unit": "mmol/L",
          "code": "mmol/L"
        },
        "referenceRange": [
          {
            "low": {
              "value": 22,
              "code": "mmol/L",
              "system": "http://unitsofmeasure.org"
            }
          },
          {
            "high": {
              "value": 33,
              "code": "mmol/L",
              "system": "http://unitsofmeasure.org"
            }
          }
        ],
        "text": {
          "status": "generated",
          "div": "<div xmlns=\"http://www.w3.org/1999/xhtml\"><table class=\"hl7__eu__lab__report\"><tr><th>Test</th><th>24-May-2024</th><th>Reference&#xA0;Range</th><th>Unit</th></tr><tr><td>Carbon dioxide, total [Moles/volume] in Serum or Plasma</td><td>23.6</td><td>22 - 33</td><td></td><td>mmol/L</td></tr></table></div>"
        },
        "status": "final",
        "subject": {
          "reference": "urn:uuid:ddf6b15e-4601-472f-9ec5-82269794a6bf",
          "display": "Victor Lagarde"
        },
        "effectiveDateTime": "2024-05-24T04:48:18Z",
        "specimen": {
          "reference": "urn:uuid:c7fd4626-474a-46f4-857a-739abc4164e4"
        }
      }
    },
    {
      "fullUrl": "urn:uuid:fcff53da-6e21-4a9c-a822-08f5eeda944c",
      "resource": {
        "resourceType": "Observation",
        "id": "fcff53da-6e21-4a9c-a822-08f5eeda944c",
        "meta": {
          "profile": [
            "http://hl7.eu/fhir/laboratory/StructureDefinition/Observation-resultslab-eu-lab"
          ]
        },
        "performer": [
          {
            "display": "The Central European Lab"
          }
        ],
        "category": [
          {
            "coding": [
              {
                "system": "http://terminology.hl7.org/CodeSystem/observation-category",
                "code": "laboratory"
              }
            ]
          }
        ],
        "code": {
          "coding": [
            {
              "code": "5767-9",
              "system": "http://loinc.org",
              "display": "Appearance of Urine"
            }
          ],
          "text": "Appearance of Urine"
        },
        "text": {
          "status": "generated",
          "div": "<div xmlns=\"http://www.w3.org/1999/xhtml\"><table class=\"hl7__eu__lab__report\"><tr><th>Test</th><th>24-May-2024</th><th>Reference&#xA0;Range</th><th>Unit</th></tr><tr><td>Appearance of Urine</td></tr></table></div>"
        },
        "status": "final",
        "subject": {
          "reference": "urn:uuid:ddf6b15e-4601-472f-9ec5-82269794a6bf",
          "display": "Victor Lagarde"
        },
        "effectiveDateTime": "2024-05-24T04:48:18Z",
        "specimen": {
          "reference": "urn:uuid:647ae129-cf7c-4964-8aa7-ccadf0beab59"
        }
      }
    },
    {
      "fullUrl": "urn:uuid:8fc1652d-028a-4b07-a358-029354efbe15",
      "resource": {
        "resourceType": "Observation",
        "id": "8fc1652d-028a-4b07-a358-029354efbe15",
        "meta": {
          "profile": [
            "http://hl7.eu/fhir/laboratory/StructureDefinition/Observation-resultslab-eu-lab"
          ]
        },
        "performer": [
          {
            "display": "The Central European Lab"
          }
        ],
        "category": [
          {
            "coding": [
              {
                "system": "http://terminology.hl7.org/CodeSystem/observation-category",
                "code": "laboratory"
              }
            ]
          }
        ],
        "code": {
          "coding": [
            {
              "code": "34533-0",
              "system": "http://loinc.org",
              "display": "Odor of Urine"
            }
          ],
          "text": "Odor of Urine"
        },
        "text": {
          "status": "generated",
          "div": "<div xmlns=\"http://www.w3.org/1999/xhtml\"><table class=\"hl7__eu__lab__report\"><tr><th>Test</th><th>24-May-2024</th><th>Reference&#xA0;Range</th><th>Unit</th></tr><tr><td>Odor of Urine</td></tr></table></div>"
        },
        "status": "final",
        "subject": {
          "reference": "urn:uuid:ddf6b15e-4601-472f-9ec5-82269794a6bf",
          "display": "Victor Lagarde"
        },
        "effectiveDateTime": "2024-05-24T04:48:18Z",
        "specimen": {
          "reference": "urn:uuid:647ae129-cf7c-4964-8aa7-ccadf0beab59"
        }
      }
    },
    {
      "fullUrl": "urn:uuid:faf0cb04-e2a7-47ff-95ba-2e954cc9ca32",
      "resource": {
        "resourceType": "Observation",
        "id": "faf0cb04-e2a7-47ff-95ba-2e954cc9ca32",
        "meta": {
          "profile": [
            "http://hl7.eu/fhir/laboratory/StructureDefinition/Observation-resultslab-eu-lab"
          ]
        },
        "performer": [
          {
            "display": "The Central European Lab"
          }
        ],
        "category": [
          {
            "coding": [
              {
                "system": "http://terminology.hl7.org/CodeSystem/observation-category",
                "code": "laboratory"
              }
            ]
          }
        ],
        "code": {
          "coding": [
            {
              "code": "32167-9",
              "system": "http://loinc.org",
              "display": "Clarity of Urine"
            }
          ],
          "text": "Clarity of Urine"
        },
        "text": {
          "status": "generated",
          "div": "<div xmlns=\"http://www.w3.org/1999/xhtml\"><table class=\"hl7__eu__lab__report\"><tr><th>Test</th><th>24-May-2024</th><th>Reference&#xA0;Range</th><th>Unit</th></tr><tr><td>Clarity of Urine</td></tr></table></div>"
        },
        "status": "final",
        "subject": {
          "reference": "urn:uuid:ddf6b15e-4601-472f-9ec5-82269794a6bf",
          "display": "Victor Lagarde"
        },
        "effectiveDateTime": "2024-05-24T04:48:18Z",
        "specimen": {
          "reference": "urn:uuid:647ae129-cf7c-4964-8aa7-ccadf0beab59"
        }
      }
    },
    {
      "fullUrl": "urn:uuid:2c717fa9-d9ef-4c2c-9026-65f1f0561ad6",
      "resource": {
        "resourceType": "Observation",
        "id": "2c717fa9-d9ef-4c2c-9026-65f1f0561ad6",
        "meta": {
          "profile": [
            "http://hl7.eu/fhir/laboratory/StructureDefinition/Observation-resultslab-eu-lab"
          ]
        },
        "performer": [
          {
            "display": "The Central European Lab"
          }
        ],
        "category": [
          {
            "coding": [
              {
                "system": "http://terminology.hl7.org/CodeSystem/observation-category",
                "code": "laboratory"
              }
            ]
          }
        ],
        "code": {
          "coding": [
            {
              "code": "5778-6",
              "system": "http://loinc.org",
              "display": "Color of Urine"
            }
          ],
          "text": "Color of Urine"
        },
        "text": {
          "status": "generated",
          "div": "<div xmlns=\"http://www.w3.org/1999/xhtml\"><table class=\"hl7__eu__lab__report\"><tr><th>Test</th><th>24-May-2024</th><th>Reference&#xA0;Range</th><th>Unit</th></tr><tr><td>Color of Urine</td></tr></table></div>"
        },
        "status": "final",
        "subject": {
          "reference": "urn:uuid:ddf6b15e-4601-472f-9ec5-82269794a6bf",
          "display": "Victor Lagarde"
        },
        "effectiveDateTime": "2024-05-24T04:48:18Z",
        "specimen": {
          "reference": "urn:uuid:647ae129-cf7c-4964-8aa7-ccadf0beab59"
        }
      }
    },
    {
      "fullUrl": "urn:uuid:59a74cfb-7515-40de-9073-b905f7639766",
      "resource": {
        "resourceType": "Observation",
        "id": "59a74cfb-7515-40de-9073-b905f7639766",
        "meta": {
          "profile": [
            "http://hl7.eu/fhir/laboratory/StructureDefinition/Observation-resultslab-eu-lab"
          ]
        },
        "performer": [
          {
            "display": "The Central European Lab"
          }
        ],
        "category": [
          {
            "coding": [
              {
                "system": "http://terminology.hl7.org/CodeSystem/observation-category",
                "code": "laboratory"
              }
            ]
          }
        ],
        "code": {
          "coding": [
            {
              "code": "5792-7",
              "system": "http://loinc.org",
              "display": "Glucose [Mass/volume] in Urine by Test strip"
            }
          ],
          "text": "Glucose [Mass/volume] in Urine by Test strip"
        },
        "valueQuantity": {
          "system": "http://unitsofmeasure.org",
          "value": 2,
          "unit": "mg/dL",
          "code": "mg/dL"
        },
        "referenceRange": [
          {
            "low": {
              "value": 0,
              "code": "mg/dL",
              "system": "http://unitsofmeasure.org"
            }
          },
          {
            "high": {
              "value": 0.8,
              "code": "mg/dL",
              "system": "http://unitsofmeasure.org"
            }
          }
        ],
        "interpretation": [
          {
            "coding": [
              {
                "code": "H",
                "system": "http://terminology.hl7.org/CodeSystem/v3-ObservationInterpretation",
                "display": "High"
              }
            ]
          }
        ],
        "text": {
          "status": "generated",
          "div": "<div xmlns=\"http://www.w3.org/1999/xhtml\"><table class=\"hl7__eu__lab__report\"><tr><th>Test</th><th>24-May-2024</th><th>Reference&#xA0;Range</th><th>Unit</th></tr><tr><td>Glucose [Mass/volume] in Urine by Test strip</td><td>2.0</td><td>0 - 0.8</td><td>H</td><td>mg/dL</td></tr></table></div>"
        },
        "status": "final",
        "subject": {
          "reference": "urn:uuid:ddf6b15e-4601-472f-9ec5-82269794a6bf",
          "display": "Victor Lagarde"
        },
        "effectiveDateTime": "2024-05-24T04:48:18Z",
        "specimen": {
          "reference": "urn:uuid:647ae129-cf7c-4964-8aa7-ccadf0beab59"
        }
      }
    },
    {
      "fullUrl": "urn:uuid:c58baf38-a2f2-447d-9bf4-b55b3a86d2ba",
      "resource": {
        "resourceType": "Observation",
        "id": "c58baf38-a2f2-447d-9bf4-b55b3a86d2ba",
        "meta": {
          "profile": [
            "http://hl7.eu/fhir/laboratory/StructureDefinition/Observation-resultslab-eu-lab"
          ]
        },
        "performer": [
          {
            "display": "The Central European Lab"
          }
        ],
        "category": [
          {
            "coding": [
              {
                "system": "http://terminology.hl7.org/CodeSystem/observation-category",
                "code": "laboratory"
              }
            ]
          }
        ],
        "code": {
          "coding": [
            {
              "code": "25428-4",
              "system": "http://loinc.org",
              "display": "Glucose [Presence] in Urine by Test strip"
            }
          ],
          "text": "Glucose [Presence] in Urine by Test strip"
        },
        "text": {
          "status": "generated",
          "div": "<div xmlns=\"http://www.w3.org/1999/xhtml\"><table class=\"hl7__eu__lab__report\"><tr><th>Test</th><th>24-May-2024</th><th>Reference&#xA0;Range</th><th>Unit</th></tr><tr><td>Glucose [Presence] in Urine by Test strip</td></tr></table></div>"
        },
        "status": "final",
        "subject": {
          "reference": "urn:uuid:ddf6b15e-4601-472f-9ec5-82269794a6bf",
          "display": "Victor Lagarde"
        },
        "effectiveDateTime": "2024-05-24T04:48:18Z",
        "specimen": {
          "reference": "urn:uuid:647ae129-cf7c-4964-8aa7-ccadf0beab59"
        }
      }
    },
    {
      "fullUrl": "urn:uuid:03db2f9c-4885-4f14-9ac5-bc8cbcfd5be2",
      "resource": {
        "resourceType": "Observation",
        "id": "03db2f9c-4885-4f14-9ac5-bc8cbcfd5be2",
        "meta": {
          "profile": [
            "http://hl7.eu/fhir/laboratory/StructureDefinition/Observation-resultslab-eu-lab"
          ]
        },
        "performer": [
          {
            "display": "The Central European Lab"
          }
        ],
        "category": [
          {
            "coding": [
              {
                "system": "http://terminology.hl7.org/CodeSystem/observation-category",
                "code": "laboratory"
              }
            ]
          }
        ],
        "code": {
          "coding": [
            {
              "code": "20505-4",
              "system": "http://loinc.org",
              "display": "Bilirubin.total [Mass/volume] in Urine by Test strip"
            }
          ],
          "text": "Bilirubin.total [Mass/volume] in Urine by Test strip"
        },
        "valueQuantity": {
          "system": "http://unitsofmeasure.org",
          "value": 0.8,
          "unit": "mg/dL",
          "code": "mg/dL"
        },
        "referenceRange": [
          {
            "low": {
              "value": 0,
              "code": "mg/dL",
              "system": "http://unitsofmeasure.org"
            }
          },
          {
            "high": {
              "value": 1.9,
              "code": "mg/dL",
              "system": "http://unitsofmeasure.org"
            }
          }
        ],
        "text": {
          "status": "generated",
          "div": "<div xmlns=\"http://www.w3.org/1999/xhtml\"><table class=\"hl7__eu__lab__report\"><tr><th>Test</th><th>24-May-2024</th><th>Reference&#xA0;Range</th><th>Unit</th></tr><tr><td>Bilirubin.total [Mass/volume] in Urine by Test strip</td><td>0.8</td><td>0 - 1.9</td><td></td><td>mg/dL</td></tr></table></div>"
        },
        "status": "final",
        "subject": {
          "reference": "urn:uuid:ddf6b15e-4601-472f-9ec5-82269794a6bf",
          "display": "Victor Lagarde"
        },
        "effectiveDateTime": "2024-05-24T04:48:18Z",
        "specimen": {
          "reference": "urn:uuid:647ae129-cf7c-4964-8aa7-ccadf0beab59"
        }
      }
    },
    {
      "fullUrl": "urn:uuid:ea5c9e27-7d44-439f-ab52-59273a255115",
      "resource": {
        "resourceType": "Observation",
        "id": "ea5c9e27-7d44-439f-ab52-59273a255115",
        "meta": {
          "profile": [
            "http://hl7.eu/fhir/laboratory/StructureDefinition/Observation-resultslab-eu-lab"
          ]
        },
        "performer": [
          {
            "display": "The Central European Lab"
          }
        ],
        "category": [
          {
            "coding": [
              {
                "system": "http://terminology.hl7.org/CodeSystem/observation-category",
                "code": "laboratory"
              }
            ]
          }
        ],
        "code": {
          "coding": [
            {
              "code": "5770-3",
              "system": "http://loinc.org",
              "display": "Bilirubin.total [Presence] in Urine by Test strip"
            }
          ],
          "text": "Bilirubin.total [Presence] in Urine by Test strip"
        },
        "text": {
          "status": "generated",
          "div": "<div xmlns=\"http://www.w3.org/1999/xhtml\"><table class=\"hl7__eu__lab__report\"><tr><th>Test</th><th>24-May-2024</th><th>Reference&#xA0;Range</th><th>Unit</th></tr><tr><td>Bilirubin.total [Presence] in Urine by Test strip</td></tr></table></div>"
        },
        "status": "final",
        "subject": {
          "reference": "urn:uuid:ddf6b15e-4601-472f-9ec5-82269794a6bf",
          "display": "Victor Lagarde"
        },
        "effectiveDateTime": "2024-05-24T04:48:18Z",
        "specimen": {
          "reference": "urn:uuid:647ae129-cf7c-4964-8aa7-ccadf0beab59"
        }
      }
    },
    {
      "fullUrl": "urn:uuid:2e633b73-e045-4120-ba56-0fd2383e91d9",
      "resource": {
        "resourceType": "Observation",
        "id": "2e633b73-e045-4120-ba56-0fd2383e91d9",
        "meta": {
          "profile": [
            "http://hl7.eu/fhir/laboratory/StructureDefinition/Observation-resultslab-eu-lab"
          ]
        },
        "performer": [
          {
            "display": "The Central European Lab"
          }
        ],
        "category": [
          {
            "coding": [
              {
                "system": "http://terminology.hl7.org/CodeSystem/observation-category",
                "code": "laboratory"
              }
            ]
          }
        ],
        "code": {
          "coding": [
            {
              "code": "5797-6",
              "system": "http://loinc.org",
              "display": "Ketones [Mass/volume] in Urine by Test strip"
            }
          ],
          "text": "Ketones [Mass/volume] in Urine by Test strip"
        },
        "valueQuantity": {
          "system": "http://unitsofmeasure.org",
          "value": 10.1,
          "unit": "mg/dL",
          "code": "mg/dL"
        },
        "referenceRange": [
          {
            "low": {
              "value": 0,
              "code": "mg/dL",
              "system": "http://unitsofmeasure.org"
            }
          },
          {
            "high": {
              "value": 3,
              "code": "mg/dL",
              "system": "http://unitsofmeasure.org"
            }
          }
        ],
        "interpretation": [
          {
            "coding": [
              {
                "code": "H",
                "system": "http://terminology.hl7.org/CodeSystem/v3-ObservationInterpretation",
                "display": "High"
              }
            ]
          }
        ],
        "text": {
          "status": "generated",
          "div": "<div xmlns=\"http://www.w3.org/1999/xhtml\"><table class=\"hl7__eu__lab__report\"><tr><th>Test</th><th>24-May-2024</th><th>Reference&#xA0;Range</th><th>Unit</th></tr><tr><td>Ketones [Mass/volume] in Urine by Test strip</td><td>10.1</td><td>0 - 3</td><td>H</td><td>mg/dL</td></tr></table></div>"
        },
        "status": "final",
        "subject": {
          "reference": "urn:uuid:ddf6b15e-4601-472f-9ec5-82269794a6bf",
          "display": "Victor Lagarde"
        },
        "effectiveDateTime": "2024-05-24T04:48:18Z",
        "specimen": {
          "reference": "urn:uuid:647ae129-cf7c-4964-8aa7-ccadf0beab59"
        }
      }
    },
    {
      "fullUrl": "urn:uuid:109b6261-e27e-4c87-aa5a-2790eb68f646",
      "resource": {
        "resourceType": "Observation",
        "id": "109b6261-e27e-4c87-aa5a-2790eb68f646",
        "meta": {
          "profile": [
            "http://hl7.eu/fhir/laboratory/StructureDefinition/Observation-resultslab-eu-lab"
          ]
        },
        "performer": [
          {
            "display": "The Central European Lab"
          }
        ],
        "category": [
          {
            "coding": [
              {
                "system": "http://terminology.hl7.org/CodeSystem/observation-category",
                "code": "laboratory"
              }
            ]
          }
        ],
        "code": {
          "coding": [
            {
              "code": "2514-8",
              "system": "http://loinc.org",
              "display": "Ketones [Presence] in Urine by Test strip"
            }
          ],
          "text": "Ketones [Presence] in Urine by Test strip"
        },
        "text": {
          "status": "generated",
          "div": "<div xmlns=\"http://www.w3.org/1999/xhtml\"><table class=\"hl7__eu__lab__report\"><tr><th>Test</th><th>24-May-2024</th><th>Reference&#xA0;Range</th><th>Unit</th></tr><tr><td>Ketones [Presence] in Urine by Test strip</td></tr></table></div>"
        },
        "status": "final",
        "subject": {
          "reference": "urn:uuid:ddf6b15e-4601-472f-9ec5-82269794a6bf",
          "display": "Victor Lagarde"
        },
        "effectiveDateTime": "2024-05-24T04:48:18Z",
        "specimen": {
          "reference": "urn:uuid:647ae129-cf7c-4964-8aa7-ccadf0beab59"
        }
      }
    },
    {
      "fullUrl": "urn:uuid:1c2676d5-0157-405c-b6a4-82d3303f5e9d",
      "resource": {
        "resourceType": "Observation",
        "id": "1c2676d5-0157-405c-b6a4-82d3303f5e9d",
        "meta": {
          "profile": [
            "http://hl7.eu/fhir/laboratory/StructureDefinition/Observation-resultslab-eu-lab"
          ]
        },
        "performer": [
          {
            "display": "The Central European Lab"
          }
        ],
        "category": [
          {
            "coding": [
              {
                "system": "http://terminology.hl7.org/CodeSystem/observation-category",
                "code": "laboratory"
              }
            ]
          }
        ],
        "code": {
          "coding": [
            {
              "code": "5811-5",
              "system": "http://loinc.org",
              "display": "Specific gravity of Urine by Test strip"
            }
          ],
          "text": "Specific gravity of Urine by Test strip"
        },
        "valueQuantity": {
          "system": "http://unitsofmeasure.org",
          "value": 1,
          "unit": "{nominal}",
          "code": "{nominal}"
        },
        "referenceRange": [
          {
            "low": {
              "value": 1.01,
              "code": "g/mL",
              "system": "http://unitsofmeasure.org"
            }
          },
          {
            "high": {
              "value": 1.03,
              "code": "g/mL",
              "system": "http://unitsofmeasure.org"
            }
          }
        ],
        "interpretation": [
          {
            "coding": [
              {
                "code": "L",
                "system": "http://terminology.hl7.org/CodeSystem/v3-ObservationInterpretation",
                "display": "Low"
              }
            ]
          }
        ],
        "text": {
          "status": "generated",
          "div": "<div xmlns=\"http://www.w3.org/1999/xhtml\"><table class=\"hl7__eu__lab__report\"><tr><th>Test</th><th>24-May-2024</th><th>Reference&#xA0;Range</th><th>Unit</th></tr><tr><td>Specific gravity of Urine by Test strip</td><td>1.0</td><td>1.01 - 1.03</td><td>L</td><td>{nominal}</td></tr></table></div>"
        },
        "status": "final",
        "subject": {
          "reference": "urn:uuid:ddf6b15e-4601-472f-9ec5-82269794a6bf",
          "display": "Victor Lagarde"
        },
        "effectiveDateTime": "2024-05-24T04:48:18Z",
        "specimen": {
          "reference": "urn:uuid:647ae129-cf7c-4964-8aa7-ccadf0beab59"
        }
      }
    },
    {
      "fullUrl": "urn:uuid:dc0f243f-67b9-40f4-8533-2d6faa2b63aa",
      "resource": {
        "resourceType": "Observation",
        "id": "dc0f243f-67b9-40f4-8533-2d6faa2b63aa",
        "meta": {
          "profile": [
            "http://hl7.eu/fhir/laboratory/StructureDefinition/Observation-resultslab-eu-lab"
          ]
        },
        "performer": [
          {
            "display": "The Central European Lab"
          }
        ],
        "category": [
          {
            "coding": [
              {
                "system": "http://terminology.hl7.org/CodeSystem/observation-category",
                "code": "laboratory"
              }
            ]
          }
        ],
        "code": {
          "coding": [
            {
              "code": "5803-2",
              "system": "http://loinc.org",
              "display": "pH of Urine by Test strip"
            }
          ],
          "text": "pH of Urine by Test strip"
        },
        "valueQuantity": {
          "system": "http://unitsofmeasure.org",
          "value": 6.5,
          "unit": "pH",
          "code": "pH"
        },
        "referenceRange": [
          {
            "low": {
              "value": 4.5,
              "code": "pH",
              "system": "http://unitsofmeasure.org"
            }
          },
          {
            "high": {
              "value": 7.5,
              "code": "pH",
              "system": "http://unitsofmeasure.org"
            }
          }
        ],
        "text": {
          "status": "generated",
          "div": "<div xmlns=\"http://www.w3.org/1999/xhtml\"><table class=\"hl7__eu__lab__report\"><tr><th>Test</th><th>24-May-2024</th><th>Reference&#xA0;Range</th><th>Unit</th></tr><tr><td>pH of Urine by Test strip</td><td>6.5</td><td>4.5 - 7.5</td><td></td><td>pH</td></tr></table></div>"
        },
        "status": "final",
        "subject": {
          "reference": "urn:uuid:ddf6b15e-4601-472f-9ec5-82269794a6bf",
          "display": "Victor Lagarde"
        },
        "effectiveDateTime": "2024-05-24T04:48:18Z",
        "specimen": {
          "reference": "urn:uuid:647ae129-cf7c-4964-8aa7-ccadf0beab59"
        }
      }
    },
    {
      "fullUrl": "urn:uuid:bf54240b-edea-4cf9-8435-29b45eac1d26",
      "resource": {
        "resourceType": "Observation",
        "id": "bf54240b-edea-4cf9-8435-29b45eac1d26",
        "meta": {
          "profile": [
            "http://hl7.eu/fhir/laboratory/StructureDefinition/Observation-resultslab-eu-lab"
          ]
        },
        "performer": [
          {
            "display": "The Central European Lab"
          }
        ],
        "category": [
          {
            "coding": [
              {
                "system": "http://terminology.hl7.org/CodeSystem/observation-category",
                "code": "laboratory"
              }
            ]
          }
        ],
        "code": {
          "coding": [
            {
              "code": "5804-0",
              "system": "http://loinc.org",
              "display": "Protein [Mass/volume] in Urine by Test strip"
            }
          ],
          "text": "Protein [Mass/volume] in Urine by Test strip"
        },
        "valueQuantity": {
          "system": "http://unitsofmeasure.org",
          "value": 370.3,
          "unit": "mg/dL",
          "code": "mg/dL"
        },
        "referenceRange": [
          {
            "low": {
              "value": 0,
              "code": "mg/dL",
              "system": "http://unitsofmeasure.org"
            }
          },
          {
            "high": {
              "value": 149,
              "code": "mg/dL",
              "system": "http://unitsofmeasure.org"
            }
          }
        ],
        "interpretation": [
          {
            "coding": [
              {
                "code": "H",
                "system": "http://terminology.hl7.org/CodeSystem/v3-ObservationInterpretation",
                "display": "High"
              }
            ]
          }
        ],
        "text": {
          "status": "generated",
          "div": "<div xmlns=\"http://www.w3.org/1999/xhtml\"><table class=\"hl7__eu__lab__report\"><tr><th>Test</th><th>24-May-2024</th><th>Reference&#xA0;Range</th><th>Unit</th></tr><tr><td>Protein [Mass/volume] in Urine by Test strip</td><td>370.3</td><td>0 - 149</td><td>H</td><td>mg/dL</td></tr></table></div>"
        },
        "status": "final",
        "subject": {
          "reference": "urn:uuid:ddf6b15e-4601-472f-9ec5-82269794a6bf",
          "display": "Victor Lagarde"
        },
        "effectiveDateTime": "2024-05-24T04:48:18Z",
        "specimen": {
          "reference": "urn:uuid:647ae129-cf7c-4964-8aa7-ccadf0beab59"
        }
      }
    },
    {
      "fullUrl": "urn:uuid:2ca744a9-2c60-45a2-8795-3aa75b0263d9",
      "resource": {
        "resourceType": "Observation",
        "id": "2ca744a9-2c60-45a2-8795-3aa75b0263d9",
        "meta": {
          "profile": [
            "http://hl7.eu/fhir/laboratory/StructureDefinition/Observation-resultslab-eu-lab"
          ]
        },
        "performer": [
          {
            "display": "The Central European Lab"
          }
        ],
        "category": [
          {
            "coding": [
              {
                "system": "http://terminology.hl7.org/CodeSystem/observation-category",
                "code": "laboratory"
              }
            ]
          }
        ],
        "code": {
          "coding": [
            {
              "code": "20454-5",
              "system": "http://loinc.org",
              "display": "Protein [Presence] in Urine by Test strip"
            }
          ],
          "text": "Protein [Presence] in Urine by Test strip"
        },
        "text": {
          "status": "generated",
          "div": "<div xmlns=\"http://www.w3.org/1999/xhtml\"><table class=\"hl7__eu__lab__report\"><tr><th>Test</th><th>24-May-2024</th><th>Reference&#xA0;Range</th><th>Unit</th></tr><tr><td>Protein [Presence] in Urine by Test strip</td></tr></table></div>"
        },
        "status": "final",
        "subject": {
          "reference": "urn:uuid:ddf6b15e-4601-472f-9ec5-82269794a6bf",
          "display": "Victor Lagarde"
        },
        "effectiveDateTime": "2024-05-24T04:48:18Z",
        "specimen": {
          "reference": "urn:uuid:647ae129-cf7c-4964-8aa7-ccadf0beab59"
        }
      }
    },
    {
      "fullUrl": "urn:uuid:61d468e2-6ec6-430d-b2d0-4483fd54e4a4",
      "resource": {
        "resourceType": "Observation",
        "id": "61d468e2-6ec6-430d-b2d0-4483fd54e4a4",
        "meta": {
          "profile": [
            "http://hl7.eu/fhir/laboratory/StructureDefinition/Observation-resultslab-eu-lab"
          ]
        },
        "performer": [
          {
            "display": "The Central European Lab"
          }
        ],
        "category": [
          {
            "coding": [
              {
                "system": "http://terminology.hl7.org/CodeSystem/observation-category",
                "code": "laboratory"
              }
            ]
          }
        ],
        "code": {
          "coding": [
            {
              "code": "5802-4",
              "system": "http://loinc.org",
              "display": "Nitrite [Presence] in Urine by Test strip"
            }
          ],
          "text": "Nitrite [Presence] in Urine by Test strip"
        },
        "text": {
          "status": "generated",
          "div": "<div xmlns=\"http://www.w3.org/1999/xhtml\"><table class=\"hl7__eu__lab__report\"><tr><th>Test</th><th>24-May-2024</th><th>Reference&#xA0;Range</th><th>Unit</th></tr><tr><td>Nitrite [Presence] in Urine by Test strip</td></tr></table></div>"
        },
        "status": "final",
        "subject": {
          "reference": "urn:uuid:ddf6b15e-4601-472f-9ec5-82269794a6bf",
          "display": "Victor Lagarde"
        },
        "effectiveDateTime": "2024-05-24T04:48:18Z",
        "specimen": {
          "reference": "urn:uuid:647ae129-cf7c-4964-8aa7-ccadf0beab59"
        }
      }
    },
    {
      "fullUrl": "urn:uuid:4494ef44-28a0-4db9-96e0-113e43d0f4bc",
      "resource": {
        "resourceType": "Observation",
        "id": "4494ef44-28a0-4db9-96e0-113e43d0f4bc",
        "meta": {
          "profile": [
            "http://hl7.eu/fhir/laboratory/StructureDefinition/Observation-resultslab-eu-lab"
          ]
        },
        "performer": [
          {
            "display": "The Central European Lab"
          }
        ],
        "category": [
          {
            "coding": [
              {
                "system": "http://terminology.hl7.org/CodeSystem/observation-category",
                "code": "laboratory"
              }
            ]
          }
        ],
        "code": {
          "coding": [
            {
              "code": "5794-3",
              "system": "http://loinc.org",
              "display": "Hemoglobin [Presence] in Urine by Test strip"
            }
          ],
          "text": "Hemoglobin [Presence] in Urine by Test strip"
        },
        "text": {
          "status": "generated",
          "div": "<div xmlns=\"http://www.w3.org/1999/xhtml\"><table class=\"hl7__eu__lab__report\"><tr><th>Test</th><th>24-May-2024</th><th>Reference&#xA0;Range</th><th>Unit</th></tr><tr><td>Hemoglobin [Presence] in Urine by Test strip</td></tr></table></div>"
        },
        "status": "final",
        "subject": {
          "reference": "urn:uuid:ddf6b15e-4601-472f-9ec5-82269794a6bf",
          "display": "Victor Lagarde"
        },
        "effectiveDateTime": "2024-05-24T04:48:18Z",
        "specimen": {
          "reference": "urn:uuid:647ae129-cf7c-4964-8aa7-ccadf0beab59"
        }
      }
    },
    {
      "fullUrl": "urn:uuid:184a55ed-3de3-4ae2-b246-73f56dc23f84",
      "resource": {
        "resourceType": "Observation",
        "id": "184a55ed-3de3-4ae2-b246-73f56dc23f84",
        "meta": {
          "profile": [
            "http://hl7.eu/fhir/laboratory/StructureDefinition/Observation-resultslab-eu-lab"
          ]
        },
        "performer": [
          {
            "display": "The Central European Lab"
          }
        ],
        "category": [
          {
            "coding": [
              {
                "system": "http://terminology.hl7.org/CodeSystem/observation-category",
                "code": "laboratory"
              }
            ]
          }
        ],
        "code": {
          "coding": [
            {
              "code": "5799-2",
              "system": "http://loinc.org",
              "display": "Leukocyte esterase [Presence] in Urine by Test strip"
            }
          ],
          "text": "Leukocyte esterase [Presence] in Urine by Test strip"
        },
        "text": {
          "status": "generated",
          "div": "<div xmlns=\"http://www.w3.org/1999/xhtml\"><table class=\"hl7__eu__lab__report\"><tr><th>Test</th><th>24-May-2024</th><th>Reference&#xA0;Range</th><th>Unit</th></tr><tr><td>Leukocyte esterase [Presence] in Urine by Test strip</td></tr></table></div>"
        },
        "status": "final",
        "subject": {
          "reference": "urn:uuid:ddf6b15e-4601-472f-9ec5-82269794a6bf",
          "display": "Victor Lagarde"
        },
        "effectiveDateTime": "2024-05-24T04:48:18Z",
        "specimen": {
          "reference": "urn:uuid:647ae129-cf7c-4964-8aa7-ccadf0beab59"
        }
      }
    },
    {
      "fullUrl": "urn:uuid:25999243-ae78-4724-9a61-b4b3e7281d91",
      "resource": {
        "resourceType": "Observation",
        "id": "25999243-ae78-4724-9a61-b4b3e7281d91",
        "meta": {
          "profile": [
            "http://hl7.eu/fhir/laboratory/StructureDefinition/Observation-resultslab-eu-lab"
          ]
        },
        "performer": [
          {
            "display": "The Central European Lab"
          }
        ],
        "category": [
          {
            "coding": [
              {
                "system": "http://terminology.hl7.org/CodeSystem/observation-category",
                "code": "laboratory"
              }
            ]
          }
        ],
        "code": {
          "coding": [
            {
              "code": "4548-4",
              "system": "http://loinc.org",
              "display": "Hemoglobin A1c/Hemoglobin.total in Blood"
            }
          ],
          "text": "Hemoglobin A1c/Hemoglobin.total in Blood"
        },
        "valueQuantity": {
          "system": "http://unitsofmeasure.org",
          "value": 3.1,
          "unit": "%",
          "code": "%"
        },
        "referenceRange": [
          {
            "low": {
              "value": 4.3,
              "code": "%",
              "system": "http://unitsofmeasure.org"
            }
          },
          {
            "high": {
              "value": 6,
              "code": "%",
              "system": "http://unitsofmeasure.org"
            }
          }
        ],
        "interpretation": [
          {
            "coding": [
              {
                "code": "L",
                "system": "http://terminology.hl7.org/CodeSystem/v3-ObservationInterpretation",
                "display": "Low"
              }
            ]
          }
        ],
        "text": {
          "status": "generated",
          "div": "<div xmlns=\"http://www.w3.org/1999/xhtml\"><table class=\"hl7__eu__lab__report\"><tr><th>Test</th><th>24-May-2024</th><th>Reference&#xA0;Range</th><th>Unit</th></tr><tr><td>Hemoglobin A1c/Hemoglobin.total in Blood</td><td>3.1</td><td>4.3 - 6</td><td>L</td><td>%</td></tr></table></div>"
        },
        "status": "final",
        "subject": {
          "reference": "urn:uuid:ddf6b15e-4601-472f-9ec5-82269794a6bf",
          "display": "Victor Lagarde"
        },
        "effectiveDateTime": "2024-05-24T04:48:18Z",
        "specimen": {
          "reference": "urn:uuid:8a878409-6005-4c5c-b27d-10c785397340"
        }
      }
    },
    {
      "fullUrl": "urn:uuid:11185c95-8116-4826-a403-41cb81eaa4e0",
      "resource": {
        "resourceType": "Device",
        "id": "11185c95-8116-4826-a403-41cb81eaa4e0",
        "deviceName": [
          {
            "name": "SYNDERAI Synthetic Generator",
            "type": "manufacturer-name"
          }
        ],
        "version": [
          {
            "value": "5.0"
          }
        ],
        "text": {
          "status": "generated",
          "div": "<div xmlns=\"http://www.w3.org/1999/xhtml\">SYNDERAI Synthetic Generator v5.0</div>"
        },
        "status": "active\"",
        "distinctIdentifier": "synderai-generator-50",
        "manufacturer": "SYNDERAI Project"
      }
    },
    {
      "fullUrl": "urn:uuid:6a354933-d46a-478d-988e-2875c836e634",
      "resource": {
        "resourceType": "Provenance",
        "id": "6a354933-d46a-478d-988e-2875c836e634",
        "target": [
          {
            "reference": "Patient/ddf6b15e-4601-472f-9ec5-82269794a6bf"
          },
          {
            "reference": "Bundle/60305cf4-5495-4e57-b37d-f62b148e43af"
          },
          {
            "reference": "Composition/5624aefb-8d1a-47be-afce-20fb7e84830a"
          },
          {
            "reference": "PractitionerRole/1127f785-23ed-4ad6-b633-43b98f427a96"
          },
          {
            "reference": "Practitioner/8739a0ef-bd6f-4e0a-b48e-6825aaac080b"
          },
          {
            "reference": "PractitionerRole/eb9f903c-17db-43dd-afe9-9953ae216e78"
          },
          {
            "reference": "Organization/f9e1e69f-0935-4802-a2ed-796cecc96395"
          }
        ],
        "activity": {
          "text": "Synthetic Example Data Generation"
        },
        "policy": [
          "https://synderai.net/synderai-synthetic-data-policy"
        ],
        "agent": [
          {
            "type": {
              "text": "author"
            },
            "who": {
              "reference": "Device/11185c95-8116-4826-a403-41cb81eaa4e0"
            }
          }
        ],
        "reason": [
          {
            "text": "Interoperability Testing and Training (non-clinical use)"
          }
        ],
        "text": {
          "status": "generated",
          "div": "<div xmlns=\"http://www.w3.org/1999/xhtml\">Provenance for SYNDERAI Synthetic Example Data Resource</div>"
        },
        "recorded": "2024-05-24T06:48:18Z"
      }
    },
    {
      "fullUrl": "urn:uuid:1127f785-23ed-4ad6-b633-43b98f427a96",
      "resource": {
        "resourceType": "PractitionerRole",
        "id": "1127f785-23ed-4ad6-b633-43b98f427a96",
        "meta": {
          "profile": [
            "http://hl7.eu/fhir/base/StructureDefinition/practitionerRole-eu"
          ]
        },
        "text": {
          "status": "generated",
          "div": "<div xmlns=\"http://www.w3.org/1999/xhtml\">Laboratory Role Id: 1127f785-23ed-4ad6-b633-43b98f427a96</div>"
        },
        "practitioner": {
          "reference": "urn:uuid:8739a0ef-bd6f-4e0a-b48e-6825aaac080b"
        }
      }
    },
    {
      "fullUrl": "urn:uuid:8739a0ef-bd6f-4e0a-b48e-6825aaac080b",
      "resource": {
        "resourceType": "Practitioner",
        "id": "8739a0ef-bd6f-4e0a-b48e-6825aaac080b",
        "meta": {
          "profile": [
            "http://hl7.eu/fhir/base/StructureDefinition/practitioner-eu"
          ]
        },
        "identifier": [
          {
            "assigner": {
              "display": "HL7 Europe"
            },
            "system": "urn:oid:2.16.840.1.113883.2.51.999",
            "value": "60f1de8b-c259-47d5-aaf8-4064e2199194"
          }
        ],
        "name": [
          {
            "prefix": [
              "dr"
            ],
            "given": [
              "Ex"
            ],
            "family": "Ample"
          }
        ],
        "address": [
          {
            "line": [
              "Laboratoire Central Européenne",
              "Boulevard du Jardin Botanique 32"
            ],
            "postalCode": "1000",
            "city": "Brussels",
            "country": "Belgium"
          }
        ],
        "text": {
          "status": "generated",
          "div": "<div xmlns=\"http://www.w3.org/1999/xhtml\">Laboratory: Laboratoire Central Européenne, 1000 Brussels, Belgium</div>"
        }
      }
    }
  ],
  "type": "document",
  "timestamp": "2024-05-24T06:48:18Z"
}
