{
  "resourceType": "Bundle",
  "id": "9d11515a-a9e5-4c58-8ff8-4601f0ac2233",
  "meta": {
    "profile": [
      "http://hl7.eu/fhir/laboratory/StructureDefinition/Bundle-eu-lab"
    ]
  },
  "identifier": {
    "assigner": {
      "display": "HL7 Europe"
    },
    "system": "urn:oid:2.16.840.1.113883.2.51.999",
    "value": "8d8e9f79-243f-4e74-89e6-5bd789b9fc6e"
  },
  "entry": [
    {
      "fullUrl": "urn:uuid:1a5aa310-c72c-4f3f-925b-d0debedccc31",
      "resource": {
        "resourceType": "Composition",
        "id": "1a5aa310-c72c-4f3f-925b-d0debedccc31",
        "meta": {
          "profile": [
            "http://hl7.eu/fhir/laboratory/StructureDefinition/Composition-eu-lab"
          ]
        },
        "identifier": {
          "assigner": {
            "display": "HL7 Europe"
          },
          "system": "urn:oid:2.16.840.1.113883.2.51.999",
          "value": "7d987abc-8695-4e69-b30d-0f818901133c"
        },
        "author": [
          {
            "reference": "urn:uuid:570f8df6-35b4-4e99-b7b4-752916d2f995"
          }
        ],
        "category": [
          {
            "coding": [
              {
                "code": "26436-6",
                "system": "http://loinc.org",
                "display": "Laboratory studies (set)"
              }
            ]
          }
        ],
        "type": {
          "coding": [
            {
              "code": "11502-2",
              "system": "http://loinc.org",
              "display": "Laboratory report"
            }
          ],
          "text": "Laboratory Report"
        },
        "section": [
          {
            "code": {
              "coding": [
                {
                  "code": "26436-6",
                  "system": "http://loinc.org",
                  "display": "Laboratory studies (set)"
                }
              ],
              "text": "Laboratory studies"
            },
            "section": [
              {
                "code": {
                  "coding": [
                    {
                      "code": "$18719-5",
                      "system": "http://loinc.org",
                      "display": "Chemistry studies (set)"
                    }
                  ],
                  "text": "Chemistry"
                },
                "entry": [
                  {
                    "reference": "urn:uuid:8aa74a46-fa9f-4009-b856-b904e46ea866"
                  },
                  {
                    "reference": "urn:uuid:d980223f-fbfe-4fa0-9dd3-721f175d5152"
                  },
                  {
                    "reference": "urn:uuid:481bd8ac-38ca-4b89-bd45-682beb92e613"
                  },
                  {
                    "reference": "urn:uuid:e3c0fe29-db34-47b0-ac74-836ba9f3df31"
                  },
                  {
                    "reference": "urn:uuid:15113a78-8d4a-4d21-b9d1-751617cd5316"
                  },
                  {
                    "reference": "urn:uuid:6bdd46d5-e67d-4634-b929-85383237df07"
                  },
                  {
                    "reference": "urn:uuid:813c92e1-7939-434e-af67-d4caab58cea6"
                  },
                  {
                    "reference": "urn:uuid:ad07c268-de76-4938-983e-a291d1298eba"
                  },
                  {
                    "reference": "urn:uuid:9f0f6ee8-633d-416a-a0f4-3b13934e7e89"
                  },
                  {
                    "reference": "urn:uuid:d6ef8096-0869-441c-9952-66064e2cee50"
                  },
                  {
                    "reference": "urn:uuid:c0bb6832-4f2e-4212-95f5-729514231368"
                  },
                  {
                    "reference": "urn:uuid:ecb4d7fc-bf5c-420a-ae3c-ed03eb1b9638"
                  },
                  {
                    "reference": "urn:uuid:48b90a7f-e962-44d3-9b62-5496c59cb1a3"
                  },
                  {
                    "reference": "urn:uuid:ba4b343e-a710-40f7-9a28-3c3a1a632a0a"
                  },
                  {
                    "reference": "urn:uuid:63e761c8-c1ef-47ad-a1ae-a926ee182553"
                  },
                  {
                    "reference": "urn:uuid:666e6ea5-ac82-4954-85c4-20bf3e829df8"
                  },
                  {
                    "reference": "urn:uuid:80845c78-582e-478a-aad1-b17051f62d3b"
                  },
                  {
                    "reference": "urn:uuid:c04958ac-901c-43f2-9c5e-4ee5b5cba42e"
                  },
                  {
                    "reference": "urn:uuid:c74789a5-2d5e-4f9f-ae6d-5c8479172be0"
                  }
                ],
                "text": {
                  "status": "generated",
                  "div": "<div xmlns=\"http://www.w3.org/1999/xhtml\"><h3>Chemistry</h3><table class=\"hl7__eu__lab__report\"><thead><tr><th>Test</th><th>12-MAR-2020</th><th>Reference&#xA0;Range</th><th>Unit</th></tr></thead><tbody><tr><td>Glucose [Mass/volume] in Blood</td><td><strong>64.2 L</strong></td><td>70 - 99</td><td>mg/dL</td></tr><tr><td>Urea nitrogen [Mass/volume] in Blood</td><td>16.9</td><td>7 - 45</td><td>mg/dL</td></tr><tr><td>Creatinine [Mass/volume] in Blood</td><td><strong>3.4 H</strong></td><td>0.6 - 1.1</td><td>mg/dL</td></tr><tr><td>Calcium [Mass/volume] in Blood</td><td>9.9</td><td>8.5 - 10.4</td><td>mg/dL</td></tr><tr><td>Sodium [Moles/volume] in Blood</td><td>143.5</td><td>135 - 145</td><td>mmol/L</td></tr><tr><td>Potassium [Moles/volume] in Blood</td><td>4.9</td><td>3.5 - 5.1</td><td>mmol/L</td></tr><tr><td>Chloride [Moles/volume] in Blood</td><td>105.6</td><td>98 - 110</td><td>mmol/L</td></tr><tr><td>Carbon dioxide, total [Moles/volume] in Blood</td><td>23.7</td><td>22 - 29</td><td>mmol/L</td></tr><tr><td>Protein [Mass/volume] in Serum or Plasma</td><td>7.1</td><td>6 - 8.3</td><td>g/dL</td></tr><tr><td>Albumin [Mass/volume] in Serum or Plasma</td><td>4.6</td><td>3.5 - 5.5</td><td>g/dL</td></tr><tr><td>Globulin [Mass/volume] in Serum by calculation</td><td>2.3</td><td>2 - 3.5</td><td>g/L</td></tr><tr><td>Bilirubin.total [Mass/volume] in Serum or Plasma</td><td><strong>0.2 L</strong></td><td>0.3 - 1.2</td><td>mg/dL</td></tr><tr><td>Alkaline phosphatase [Enzymatic activity/volume] in Serum or Plasma</td><td>101.4</td><td>44 - 130</td><td>U/L</td></tr><tr><td>Alanine aminotransferase [Enzymatic activity/volume] in Serum or Plasma</td><td><strong>40.0 H</strong></td><td>7 - 33</td><td>U/L</td></tr><tr><td>Aspartate aminotransferase [Enzymatic activity/volume] in Serum or Plasma</td><td>24.2</td><td>10 - 40</td><td>U/L</td></tr><tr><td>Cholesterol [Mass/volume] in Serum or Plasma</td><td>164.3</td><td>125 - 200</td><td>mg/dL</td></tr><tr><td>Triglyceride [Mass/volume] in Serum or Plasma</td><td>124.4</td><td>10 - 175</td><td>mg/dL</td></tr><tr><td>Cholesterol in LDL [Mass/volume] in Serum or Plasma by Direct assay</td><td>81.2</td><td>0 - 130</td><td>mg/dL</td></tr><tr><td>Cholesterol in HDL [Mass/volume] in Serum or Plasma</td><td>59.5</td><td>40 - 100</td><td>mg/dL</td></tr></tbody></table></div>"
                },
                "title": "Chemistry"
              }
            ],
            "title": "Laboratory Report"
          },
          {
            "text": {
              "status": "generated",
              "div": "<div xmlns=\"http://www.w3.org/1999/xhtml\"><h3>Annotation</h3><table class=\"hl7__eu__lab__report\"><tr><th>Conclusion and Recommendations based on this report and previous findings known to us</th></tr><tr><td>The patient shows significant renal impairment (elevated creatinine), mild hypoglycemia, and mildly elevated ALT suggesting possible hepatic involvement. Other parameters, including electrolytes, proteins, and lipid profile, are within normal limits. Clinical correlation and further evaluation of renal and liver function are recommended.</td></tr></table></div>"
            },
            "code": {
              "coding": [
                {
                  "system": "http://loinc.org",
                  "code": "48767-8",
                  "display": "Annotation comment"
                }
              ]
            },
            "title": "Annotation comment"
          }
        ],
        "status": "final",
        "subject": {
          "reference": "urn:uuid:d523d379-caee-4623-82cc-b87491261ba2",
          "display": "Marthe Gallet"
        },
        "date": "2020-03-12T20:05:43Z",
        "title": "Laboratory Report",
        "confidentiality": "N"
      }
    },
    {
      "fullUrl": "urn:uuid:c9ea61a0-4060-44d2-b52c-b83d06b0a7f1",
      "resource": {
        "resourceType": "DiagnosticReport",
        "id": "c9ea61a0-4060-44d2-b52c-b83d06b0a7f1",
        "meta": {
          "profile": [
            "http://hl7.eu/fhir/laboratory/StructureDefinition/DiagnosticReport-eu-lab"
          ]
        },
        "identifier": [
          {
            "assigner": {
              "display": "HL7 Europe"
            },
            "system": "urn:oid:2.16.840.1.113883.2.51.999",
            "value": "af1d0924-4de5-45eb-8b02-33b9f2030813"
          }
        ],
        "extension": [
          {
            "url": "http://hl7.org/fhir/5.0/StructureDefinition/extension-DiagnosticReport.composition",
            "valueReference": {
              "reference": "urn:uuid:7d987abc-8695-4e69-b30d-0f818901133c"
            }
          }
        ],
        "category": [
          {
            "coding": [
              {
                "code": "26436-6",
                "system": "http://loinc.org",
                "display": "Laboratory studies (set)"
              }
            ]
          }
        ],
        "specimen": [
          {
            "reference": "urn:uuid:d58aeff2-1d9e-4690-9f1c-5abcccad9ece"
          },
          {
            "reference": "urn:uuid:de739485-890c-4752-a587-b42d8a7f5eaa"
          },
          {
            "reference": "urn:uuid:3bfb4798-19b9-4397-b518-4bf3772a66ed"
          }
        ],
        "result": [
          {
            "reference": "urn:uuid:8aa74a46-fa9f-4009-b856-b904e46ea866"
          },
          {
            "reference": "urn:uuid:d980223f-fbfe-4fa0-9dd3-721f175d5152"
          },
          {
            "reference": "urn:uuid:481bd8ac-38ca-4b89-bd45-682beb92e613"
          },
          {
            "reference": "urn:uuid:e3c0fe29-db34-47b0-ac74-836ba9f3df31"
          },
          {
            "reference": "urn:uuid:15113a78-8d4a-4d21-b9d1-751617cd5316"
          },
          {
            "reference": "urn:uuid:6bdd46d5-e67d-4634-b929-85383237df07"
          },
          {
            "reference": "urn:uuid:813c92e1-7939-434e-af67-d4caab58cea6"
          },
          {
            "reference": "urn:uuid:ad07c268-de76-4938-983e-a291d1298eba"
          },
          {
            "reference": "urn:uuid:9f0f6ee8-633d-416a-a0f4-3b13934e7e89"
          },
          {
            "reference": "urn:uuid:d6ef8096-0869-441c-9952-66064e2cee50"
          },
          {
            "reference": "urn:uuid:c0bb6832-4f2e-4212-95f5-729514231368"
          },
          {
            "reference": "urn:uuid:ecb4d7fc-bf5c-420a-ae3c-ed03eb1b9638"
          },
          {
            "reference": "urn:uuid:48b90a7f-e962-44d3-9b62-5496c59cb1a3"
          },
          {
            "reference": "urn:uuid:ba4b343e-a710-40f7-9a28-3c3a1a632a0a"
          },
          {
            "reference": "urn:uuid:63e761c8-c1ef-47ad-a1ae-a926ee182553"
          },
          {
            "reference": "urn:uuid:666e6ea5-ac82-4954-85c4-20bf3e829df8"
          },
          {
            "reference": "urn:uuid:80845c78-582e-478a-aad1-b17051f62d3b"
          },
          {
            "reference": "urn:uuid:c04958ac-901c-43f2-9c5e-4ee5b5cba42e"
          },
          {
            "reference": "urn:uuid:c74789a5-2d5e-4f9f-ae6d-5c8479172be0"
          }
        ],
        "status": "registered",
        "code": {
          "coding": [
            {
              "code": "11502-2",
              "system": "http://loinc.org",
              "display": "Laboratory report"
            }
          ]
        },
        "subject": {
          "reference": "urn:uuid:d523d379-caee-4623-82cc-b87491261ba2",
          "display": "Marthe Gallet"
        }
      }
    },
    {
      "fullUrl": "urn:uuid:d523d379-caee-4623-82cc-b87491261ba2",
      "resource": {
        "resourceType": "Patient",
        "id": "d523d379-caee-4623-82cc-b87491261ba2",
        "meta": {
          "security": [
            {
              "system": "http://terminology.hl7.org/CodeSystem/v3-ActReason",
              "code": "HTEST"
            },
            {
              "system": "http://terminology.hl7.org/CodeSystem/v3-ActReason",
              "code": "TRAIN"
            }
          ],
          "tag": [
            {
              "system": "https://synderai.net/fhir/CodeSystem/tags",
              "code": "synthetic",
              "display": "SYNDERAI Synthetic data"
            }
          ],
          "profile": [
            "http://hl7.eu/fhir/base/StructureDefinition/patient-eu-core"
          ]
        },
        "identifier": [
          {
            "type": {
              "coding": [
                {
                  "code": "PT",
                  "system": "http://terminology.hl7.org/CodeSystem/v2-0203"
                }
              ]
            },
            "system": "http://ec.europa.eu/identifier/eci",
            "value": "9444-947487-6"
          },
          {
            "type": {
              "coding": [
                {
                  "code": "MR",
                  "system": "http://terminology.hl7.org/CodeSystem/v2-0203"
                }
              ]
            },
            "system": "http://local.setting.eu/identifier",
            "value": "854228d5-a476-2d9c-a1d7-c3202375a617"
          }
        ],
        "name": [
          {
            "family": "Gallet"
          },
          {
            "given": [
              "Marthe"
            ]
          },
          {
            "text": "Marthe Gallet"
          }
        ],
        "address": [
          {
            "line": [
              "3, rue Emmanuel Goncalves"
            ],
            "use": "home",
            "type": "physical",
            "postalCode": "49490",
            "city": "Briand",
            "country": "France"
          }
        ],
        "telecom": [
          {
            "system": "phone",
            "value": "+33 1 70 99 82 74"
          }
        ],
        "extension": [
          {
            "url": "http://hl7.org/fhir/StructureDefinition/patient-nationality",
            "valueCodeableConcept": {
              "coding": [
                {
                  "code": "FR",
                  "system": "http://hl7.org/fhir/ValueSet/country"
                }
              ]
            }
          }
        ],
        "text": {
          "status": "generated",
          "div": "<div xmlns=\"http://www.w3.org/1999/xhtml\"><table class=\"hl7__ips\"><tr><td>Marthe Gallet</td><td>female</td><td>29-Oct-1950</td></tr></table></div>"
        },
        "gender": "female",
        "birthDate": "1950-10-29"
      }
    },
    {
      "fullUrl": "urn:uuid:60acf52a-e4ca-47ae-8a45-138c8d8c7d80",
      "resource": {
        "resourceType": "ServiceRequest",
        "id": "60acf52a-e4ca-47ae-8a45-138c8d8c7d80",
        "meta": {
          "profile": [
            "http://hl7.eu/fhir/laboratory/StructureDefinition/ServiceRequest-eu-lab"
          ]
        },
        "identifier": [
          {
            "system": "http://example.org",
            "value": "3257eeb4-df77-4239-8969-b0cb313942be"
          }
        ],
        "specimen": [
          {
            "reference": "urn:uuid:d58aeff2-1d9e-4690-9f1c-5abcccad9ece"
          },
          {
            "reference": "urn:uuid:de739485-890c-4752-a587-b42d8a7f5eaa"
          },
          {
            "reference": "urn:uuid:3bfb4798-19b9-4397-b518-4bf3772a66ed"
          }
        ],
        "reasonCode": [
          {
            "coding": [
              {
                "code": "431856006",
                "system": "http://snomed.info/sct",
                "display": "Chronic kidney disease stage 2"
              }
            ]
          },
          {
            "coding": [
              {
                "code": "90781000119102",
                "system": "http://snomed.info/sct",
                "display": "Microalbuminuria due to type 2 diabetes mellitus"
              }
            ]
          },
          {
            "coding": [
              {
                "code": "127013003",
                "system": "http://snomed.info/sct",
                "display": "Disorder of kidney due to diabetes mellitus"
              }
            ]
          },
          {
            "coding": [
              {
                "code": "431855005",
                "system": "http://snomed.info/sct",
                "display": "Chronic kidney disease stage 1"
              }
            ]
          },
          {
            "coding": [
              {
                "code": "55822004",
                "system": "http://snomed.info/sct",
                "display": "Hyperlipidemia"
              }
            ]
          },
          {
            "coding": [
              {
                "code": "59621000",
                "system": "http://snomed.info/sct",
                "display": "Essential hypertension"
              }
            ]
          }
        ],
        "status": "active",
        "intent": "order",
        "code": {
          "coding": [
            {
              "code": "108252007",
              "system": "http://snomed.info/sct",
              "display": "Laboratory procedure"
            }
          ]
        },
        "subject": {
          "reference": "urn:uuid:d523d379-caee-4623-82cc-b87491261ba2",
          "display": "Marthe Gallet"
        },
        "requester": {
          "reference": "urn:uuid:6b35fdd7-f05d-459f-875d-bc839e257f6c"
        }
      }
    },
    {
      "fullUrl": "urn:uuid:6b35fdd7-f05d-459f-875d-bc839e257f6c",
      "resource": {
        "resourceType": "PractitionerRole",
        "id": "6b35fdd7-f05d-459f-875d-bc839e257f6c",
        "meta": {
          "profile": [
            "http://hl7.eu/fhir/base/StructureDefinition/practitionerRole-eu"
          ]
        },
        "text": {
          "status": "generated",
          "div": "<div xmlns=\"http://www.w3.org/1999/xhtml\">Provider Role Id: 6b35fdd7-f05d-459f-875d-bc839e257f6c</div>"
        },
        "organization": {
          "reference": "urn:uuid:d5932b75-2539-423e-9259-3c44d4b7cabc"
        }
      }
    },
    {
      "fullUrl": "urn:uuid:d5932b75-2539-423e-9259-3c44d4b7cabc",
      "resource": {
        "resourceType": "Organization",
        "id": "d5932b75-2539-423e-9259-3c44d4b7cabc",
        "meta": {
          "profile": [
            "http://hl7.eu/fhir/base/StructureDefinition/organization-eu"
          ]
        },
        "identifier": [
          {
            "assigner": {
              "display": "HL7 Europe"
            },
            "system": "urn:oid:2.16.840.1.113883.2.51.999",
            "value": "721196cf-0600-4968-b712-77f47a6d473d"
          }
        ],
        "address": [
          {
            "line": [
              "Rue Larrey nan"
            ],
            "city": "Angers",
            "postalCode": "49100",
            "country": "France"
          }
        ],
        "text": {
          "status": "generated",
          "div": "<div xmlns=\"http://www.w3.org/1999/xhtml\">Provider Organization: CHU d&#039;Angers</div>"
        },
        "name": "CHU d&#039;Angers"
      }
    },
    {
      "fullUrl": "urn:uuid:d58aeff2-1d9e-4690-9f1c-5abcccad9ece",
      "resource": {
        "resourceType": "Specimen",
        "id": "d58aeff2-1d9e-4690-9f1c-5abcccad9ece",
        "meta": {
          "profile": [
            "http://hl7.eu/fhir/laboratory/StructureDefinition/Specimen-eu-lab"
          ]
        },
        "collection": {
          "collectedDateTime": "2020-03-12"
        },
        "text": {
          "status": "generated",
          "div": "<div xmlns=\"http://www.w3.org/1999/xhtml\"><table class=\"hl7__eu__lab__report\"><tr><th>Specimen</th><th>Collection Date</th></tr><tr><td>Whole blood specimen (specimen)</td><td><span class=\"nb\">12-Mar-2020</span></td></tr></table></div>"
        },
        "type": {
          "coding": [
            {
              "code": "258580003",
              "system": "http://snomed.info/sct",
              "display": "Whole blood specimen (specimen)"
            }
          ]
        }
      }
    },
    {
      "fullUrl": "urn:uuid:de739485-890c-4752-a587-b42d8a7f5eaa",
      "resource": {
        "resourceType": "Specimen",
        "id": "de739485-890c-4752-a587-b42d8a7f5eaa",
        "meta": {
          "profile": [
            "http://hl7.eu/fhir/laboratory/StructureDefinition/Specimen-eu-lab"
          ]
        },
        "collection": {
          "collectedDateTime": "2020-03-12"
        },
        "text": {
          "status": "generated",
          "div": "<div xmlns=\"http://www.w3.org/1999/xhtml\"><table class=\"hl7__eu__lab__report\"><tr><th>Specimen</th><th>Collection Date</th></tr><tr><td>Acellular blood (serum or plasma) specimen</td><td><span class=\"nb\">12-Mar-2020</span></td></tr></table></div>"
        },
        "type": {
          "coding": [
            {
              "code": "122592007",
              "system": "http://snomed.info/sct",
              "display": "Acellular blood (serum or plasma) specimen"
            }
          ]
        }
      }
    },
    {
      "fullUrl": "urn:uuid:3bfb4798-19b9-4397-b518-4bf3772a66ed",
      "resource": {
        "resourceType": "Specimen",
        "id": "3bfb4798-19b9-4397-b518-4bf3772a66ed",
        "meta": {
          "profile": [
            "http://hl7.eu/fhir/laboratory/StructureDefinition/Specimen-eu-lab"
          ]
        },
        "collection": {
          "collectedDateTime": "2020-03-12"
        },
        "text": {
          "status": "generated",
          "div": "<div xmlns=\"http://www.w3.org/1999/xhtml\"><table class=\"hl7__eu__lab__report\"><tr><th>Specimen</th><th>Collection Date</th></tr><tr><td>Serum specimen</td><td><span class=\"nb\">12-Mar-2020</span></td></tr></table></div>"
        },
        "type": {
          "coding": [
            {
              "code": "119364003",
              "system": "http://snomed.info/sct",
              "display": "Serum specimen"
            }
          ]
        }
      }
    },
    {
      "fullUrl": "urn:uuid:8aa74a46-fa9f-4009-b856-b904e46ea866",
      "resource": {
        "resourceType": "Observation",
        "id": "8aa74a46-fa9f-4009-b856-b904e46ea866",
        "meta": {
          "profile": [
            "http://hl7.eu/fhir/laboratory/StructureDefinition/Observation-resultslab-eu-lab"
          ]
        },
        "performer": [
          {
            "display": "The Central European Lab"
          }
        ],
        "category": [
          {
            "coding": [
              {
                "system": "http://terminology.hl7.org/CodeSystem/observation-category",
                "code": "laboratory"
              }
            ]
          }
        ],
        "code": {
          "coding": [
            {
              "code": "2339-0",
              "system": "http://loinc.org",
              "display": "Glucose [Mass/volume] in Blood"
            }
          ],
          "text": "Glucose [Mass/volume] in Blood"
        },
        "valueQuantity": {
          "system": "http://unitsofmeasure.org",
          "value": 64.2,
          "unit": "mg/dL",
          "code": "mg/dL"
        },
        "referenceRange": [
          {
            "low": {
              "value": 70,
              "code": "mg/dL",
              "system": "http://unitsofmeasure.org"
            }
          },
          {
            "high": {
              "value": 99,
              "code": "mg/dL",
              "system": "http://unitsofmeasure.org"
            }
          }
        ],
        "interpretation": [
          {
            "coding": [
              {
                "code": "L",
                "system": "http://terminology.hl7.org/CodeSystem/v3-ObservationInterpretation",
                "display": "Low"
              }
            ]
          }
        ],
        "text": {
          "status": "generated",
          "div": "<div xmlns=\"http://www.w3.org/1999/xhtml\"><table class=\"hl7__eu__lab__report\"><tr><th>Test</th><th>12-Mar-2020</th><th>Reference&#xA0;Range</th><th>Unit</th></tr><tr><td>Glucose [Mass/volume] in Blood</td><td>64.2</td><td>70 - 99</td><td>L</td><td>mg/dL</td></tr></table></div>"
        },
        "status": "final",
        "subject": {
          "reference": "urn:uuid:d523d379-caee-4623-82cc-b87491261ba2",
          "display": "Marthe Gallet"
        },
        "effectiveDateTime": "2020-03-12T19:05:43Z",
        "specimen": {
          "reference": "urn:uuid:d58aeff2-1d9e-4690-9f1c-5abcccad9ece"
        }
      }
    },
    {
      "fullUrl": "urn:uuid:d980223f-fbfe-4fa0-9dd3-721f175d5152",
      "resource": {
        "resourceType": "Observation",
        "id": "d980223f-fbfe-4fa0-9dd3-721f175d5152",
        "meta": {
          "profile": [
            "http://hl7.eu/fhir/laboratory/StructureDefinition/Observation-resultslab-eu-lab"
          ]
        },
        "performer": [
          {
            "display": "The Central European Lab"
          }
        ],
        "category": [
          {
            "coding": [
              {
                "system": "http://terminology.hl7.org/CodeSystem/observation-category",
                "code": "laboratory"
              }
            ]
          }
        ],
        "code": {
          "coding": [
            {
              "code": "6299-2",
              "system": "http://loinc.org",
              "display": "Urea nitrogen [Mass/volume] in Blood"
            }
          ],
          "text": "Urea nitrogen [Mass/volume] in Blood"
        },
        "valueQuantity": {
          "system": "http://unitsofmeasure.org",
          "value": 16.9,
          "unit": "mg/dL",
          "code": "mg/dL"
        },
        "referenceRange": [
          {
            "low": {
              "value": 7,
              "code": "mg/dL",
              "system": "http://unitsofmeasure.org"
            }
          },
          {
            "high": {
              "value": 45,
              "code": "mg/dL",
              "system": "http://unitsofmeasure.org"
            }
          }
        ],
        "text": {
          "status": "generated",
          "div": "<div xmlns=\"http://www.w3.org/1999/xhtml\"><table class=\"hl7__eu__lab__report\"><tr><th>Test</th><th>12-Mar-2020</th><th>Reference&#xA0;Range</th><th>Unit</th></tr><tr><td>Urea nitrogen [Mass/volume] in Blood</td><td>16.9</td><td>7 - 45</td><td></td><td>mg/dL</td></tr></table></div>"
        },
        "status": "final",
        "subject": {
          "reference": "urn:uuid:d523d379-caee-4623-82cc-b87491261ba2",
          "display": "Marthe Gallet"
        },
        "effectiveDateTime": "2020-03-12T19:05:43Z",
        "specimen": {
          "reference": "urn:uuid:d58aeff2-1d9e-4690-9f1c-5abcccad9ece"
        }
      }
    },
    {
      "fullUrl": "urn:uuid:481bd8ac-38ca-4b89-bd45-682beb92e613",
      "resource": {
        "resourceType": "Observation",
        "id": "481bd8ac-38ca-4b89-bd45-682beb92e613",
        "meta": {
          "profile": [
            "http://hl7.eu/fhir/laboratory/StructureDefinition/Observation-resultslab-eu-lab"
          ]
        },
        "performer": [
          {
            "display": "The Central European Lab"
          }
        ],
        "category": [
          {
            "coding": [
              {
                "system": "http://terminology.hl7.org/CodeSystem/observation-category",
                "code": "laboratory"
              }
            ]
          }
        ],
        "code": {
          "coding": [
            {
              "code": "38483-4",
              "system": "http://loinc.org",
              "display": "Creatinine [Mass/volume] in Blood"
            }
          ],
          "text": "Creatinine [Mass/volume] in Blood"
        },
        "valueQuantity": {
          "system": "http://unitsofmeasure.org",
          "value": 3.4,
          "unit": "mg/dL",
          "code": "mg/dL"
        },
        "referenceRange": [
          {
            "low": {
              "value": 0.6,
              "code": "mg/dL",
              "system": "http://unitsofmeasure.org"
            }
          },
          {
            "high": {
              "value": 1.1,
              "code": "mg/dL",
              "system": "http://unitsofmeasure.org"
            }
          }
        ],
        "interpretation": [
          {
            "coding": [
              {
                "code": "H",
                "system": "http://terminology.hl7.org/CodeSystem/v3-ObservationInterpretation",
                "display": "High"
              }
            ]
          }
        ],
        "text": {
          "status": "generated",
          "div": "<div xmlns=\"http://www.w3.org/1999/xhtml\"><table class=\"hl7__eu__lab__report\"><tr><th>Test</th><th>12-Mar-2020</th><th>Reference&#xA0;Range</th><th>Unit</th></tr><tr><td>Creatinine [Mass/volume] in Blood</td><td>3.4</td><td>0.6 - 1.1</td><td>H</td><td>mg/dL</td></tr></table></div>"
        },
        "status": "final",
        "subject": {
          "reference": "urn:uuid:d523d379-caee-4623-82cc-b87491261ba2",
          "display": "Marthe Gallet"
        },
        "effectiveDateTime": "2020-03-12T19:05:43Z",
        "specimen": {
          "reference": "urn:uuid:d58aeff2-1d9e-4690-9f1c-5abcccad9ece"
        }
      }
    },
    {
      "fullUrl": "urn:uuid:e3c0fe29-db34-47b0-ac74-836ba9f3df31",
      "resource": {
        "resourceType": "Observation",
        "id": "e3c0fe29-db34-47b0-ac74-836ba9f3df31",
        "meta": {
          "profile": [
            "http://hl7.eu/fhir/laboratory/StructureDefinition/Observation-resultslab-eu-lab"
          ]
        },
        "performer": [
          {
            "display": "The Central European Lab"
          }
        ],
        "category": [
          {
            "coding": [
              {
                "system": "http://terminology.hl7.org/CodeSystem/observation-category",
                "code": "laboratory"
              }
            ]
          }
        ],
        "code": {
          "coding": [
            {
              "code": "49765-1",
              "system": "http://loinc.org",
              "display": "Calcium [Mass/volume] in Blood"
            }
          ],
          "text": "Calcium [Mass/volume] in Blood"
        },
        "valueQuantity": {
          "system": "http://unitsofmeasure.org",
          "value": 9.9,
          "unit": "mg/dL",
          "code": "mg/dL"
        },
        "referenceRange": [
          {
            "low": {
              "value": 8.5,
              "code": "mg/dL",
              "system": "http://unitsofmeasure.org"
            }
          },
          {
            "high": {
              "value": 10.4,
              "code": "mg/dL",
              "system": "http://unitsofmeasure.org"
            }
          }
        ],
        "text": {
          "status": "generated",
          "div": "<div xmlns=\"http://www.w3.org/1999/xhtml\"><table class=\"hl7__eu__lab__report\"><tr><th>Test</th><th>12-Mar-2020</th><th>Reference&#xA0;Range</th><th>Unit</th></tr><tr><td>Calcium [Mass/volume] in Blood</td><td>9.9</td><td>8.5 - 10.4</td><td></td><td>mg/dL</td></tr></table></div>"
        },
        "status": "final",
        "subject": {
          "reference": "urn:uuid:d523d379-caee-4623-82cc-b87491261ba2",
          "display": "Marthe Gallet"
        },
        "effectiveDateTime": "2020-03-12T19:05:43Z",
        "specimen": {
          "reference": "urn:uuid:d58aeff2-1d9e-4690-9f1c-5abcccad9ece"
        }
      }
    },
    {
      "fullUrl": "urn:uuid:15113a78-8d4a-4d21-b9d1-751617cd5316",
      "resource": {
        "resourceType": "Observation",
        "id": "15113a78-8d4a-4d21-b9d1-751617cd5316",
        "meta": {
          "profile": [
            "http://hl7.eu/fhir/laboratory/StructureDefinition/Observation-resultslab-eu-lab"
          ]
        },
        "performer": [
          {
            "display": "The Central European Lab"
          }
        ],
        "category": [
          {
            "coding": [
              {
                "system": "http://terminology.hl7.org/CodeSystem/observation-category",
                "code": "laboratory"
              }
            ]
          }
        ],
        "code": {
          "coding": [
            {
              "code": "2947-0",
              "system": "http://loinc.org",
              "display": "Sodium [Moles/volume] in Blood"
            }
          ],
          "text": "Sodium [Moles/volume] in Blood"
        },
        "valueQuantity": {
          "system": "http://unitsofmeasure.org",
          "value": 143.5,
          "unit": "mmol/L",
          "code": "mmol/L"
        },
        "referenceRange": [
          {
            "low": {
              "value": 135,
              "code": "mmol/L",
              "system": "http://unitsofmeasure.org"
            }
          },
          {
            "high": {
              "value": 145,
              "code": "mmol/L",
              "system": "http://unitsofmeasure.org"
            }
          }
        ],
        "text": {
          "status": "generated",
          "div": "<div xmlns=\"http://www.w3.org/1999/xhtml\"><table class=\"hl7__eu__lab__report\"><tr><th>Test</th><th>12-Mar-2020</th><th>Reference&#xA0;Range</th><th>Unit</th></tr><tr><td>Sodium [Moles/volume] in Blood</td><td>143.5</td><td>135 - 145</td><td></td><td>mmol/L</td></tr></table></div>"
        },
        "status": "final",
        "subject": {
          "reference": "urn:uuid:d523d379-caee-4623-82cc-b87491261ba2",
          "display": "Marthe Gallet"
        },
        "effectiveDateTime": "2020-03-12T19:05:43Z",
        "specimen": {
          "reference": "urn:uuid:d58aeff2-1d9e-4690-9f1c-5abcccad9ece"
        }
      }
    },
    {
      "fullUrl": "urn:uuid:6bdd46d5-e67d-4634-b929-85383237df07",
      "resource": {
        "resourceType": "Observation",
        "id": "6bdd46d5-e67d-4634-b929-85383237df07",
        "meta": {
          "profile": [
            "http://hl7.eu/fhir/laboratory/StructureDefinition/Observation-resultslab-eu-lab"
          ]
        },
        "performer": [
          {
            "display": "The Central European Lab"
          }
        ],
        "category": [
          {
            "coding": [
              {
                "system": "http://terminology.hl7.org/CodeSystem/observation-category",
                "code": "laboratory"
              }
            ]
          }
        ],
        "code": {
          "coding": [
            {
              "code": "6298-4",
              "system": "http://loinc.org",
              "display": "Potassium [Moles/volume] in Blood"
            }
          ],
          "text": "Potassium [Moles/volume] in Blood"
        },
        "valueQuantity": {
          "system": "http://unitsofmeasure.org",
          "value": 4.9,
          "unit": "mmol/L",
          "code": "mmol/L"
        },
        "referenceRange": [
          {
            "low": {
              "value": 3.5,
              "code": "mmol/L",
              "system": "http://unitsofmeasure.org"
            }
          },
          {
            "high": {
              "value": 5.1,
              "code": "mmol/L",
              "system": "http://unitsofmeasure.org"
            }
          }
        ],
        "text": {
          "status": "generated",
          "div": "<div xmlns=\"http://www.w3.org/1999/xhtml\"><table class=\"hl7__eu__lab__report\"><tr><th>Test</th><th>12-Mar-2020</th><th>Reference&#xA0;Range</th><th>Unit</th></tr><tr><td>Potassium [Moles/volume] in Blood</td><td>4.9</td><td>3.5 - 5.1</td><td></td><td>mmol/L</td></tr></table></div>"
        },
        "status": "final",
        "subject": {
          "reference": "urn:uuid:d523d379-caee-4623-82cc-b87491261ba2",
          "display": "Marthe Gallet"
        },
        "effectiveDateTime": "2020-03-12T19:05:43Z",
        "specimen": {
          "reference": "urn:uuid:d58aeff2-1d9e-4690-9f1c-5abcccad9ece"
        }
      }
    },
    {
      "fullUrl": "urn:uuid:813c92e1-7939-434e-af67-d4caab58cea6",
      "resource": {
        "resourceType": "Observation",
        "id": "813c92e1-7939-434e-af67-d4caab58cea6",
        "meta": {
          "profile": [
            "http://hl7.eu/fhir/laboratory/StructureDefinition/Observation-resultslab-eu-lab"
          ]
        },
        "performer": [
          {
            "display": "The Central European Lab"
          }
        ],
        "category": [
          {
            "coding": [
              {
                "system": "http://terminology.hl7.org/CodeSystem/observation-category",
                "code": "laboratory"
              }
            ]
          }
        ],
        "code": {
          "coding": [
            {
              "code": "2069-3",
              "system": "http://loinc.org",
              "display": "Chloride [Moles/volume] in Blood"
            }
          ],
          "text": "Chloride [Moles/volume] in Blood"
        },
        "valueQuantity": {
          "system": "http://unitsofmeasure.org",
          "value": 105.6,
          "unit": "mmol/L",
          "code": "mmol/L"
        },
        "referenceRange": [
          {
            "low": {
              "value": 98,
              "code": "mmol/L",
              "system": "http://unitsofmeasure.org"
            }
          },
          {
            "high": {
              "value": 110,
              "code": "mmol/L",
              "system": "http://unitsofmeasure.org"
            }
          }
        ],
        "text": {
          "status": "generated",
          "div": "<div xmlns=\"http://www.w3.org/1999/xhtml\"><table class=\"hl7__eu__lab__report\"><tr><th>Test</th><th>12-Mar-2020</th><th>Reference&#xA0;Range</th><th>Unit</th></tr><tr><td>Chloride [Moles/volume] in Blood</td><td>105.6</td><td>98 - 110</td><td></td><td>mmol/L</td></tr></table></div>"
        },
        "status": "final",
        "subject": {
          "reference": "urn:uuid:d523d379-caee-4623-82cc-b87491261ba2",
          "display": "Marthe Gallet"
        },
        "effectiveDateTime": "2020-03-12T19:05:43Z",
        "specimen": {
          "reference": "urn:uuid:d58aeff2-1d9e-4690-9f1c-5abcccad9ece"
        }
      }
    },
    {
      "fullUrl": "urn:uuid:ad07c268-de76-4938-983e-a291d1298eba",
      "resource": {
        "resourceType": "Observation",
        "id": "ad07c268-de76-4938-983e-a291d1298eba",
        "meta": {
          "profile": [
            "http://hl7.eu/fhir/laboratory/StructureDefinition/Observation-resultslab-eu-lab"
          ]
        },
        "performer": [
          {
            "display": "The Central European Lab"
          }
        ],
        "category": [
          {
            "coding": [
              {
                "system": "http://terminology.hl7.org/CodeSystem/observation-category",
                "code": "laboratory"
              }
            ]
          }
        ],
        "code": {
          "coding": [
            {
              "code": "20565-8",
              "system": "http://loinc.org",
              "display": "Carbon dioxide, total [Moles/volume] in Blood"
            }
          ],
          "text": "Carbon dioxide, total [Moles/volume] in Blood"
        },
        "valueQuantity": {
          "system": "http://unitsofmeasure.org",
          "value": 23.7,
          "unit": "mmol/L",
          "code": "mmol/L"
        },
        "referenceRange": [
          {
            "low": {
              "value": 22,
              "code": "mmol/L",
              "system": "http://unitsofmeasure.org"
            }
          },
          {
            "high": {
              "value": 29,
              "code": "mmol/L",
              "system": "http://unitsofmeasure.org"
            }
          }
        ],
        "text": {
          "status": "generated",
          "div": "<div xmlns=\"http://www.w3.org/1999/xhtml\"><table class=\"hl7__eu__lab__report\"><tr><th>Test</th><th>12-Mar-2020</th><th>Reference&#xA0;Range</th><th>Unit</th></tr><tr><td>Carbon dioxide, total [Moles/volume] in Blood</td><td>23.7</td><td>22 - 29</td><td></td><td>mmol/L</td></tr></table></div>"
        },
        "status": "final",
        "subject": {
          "reference": "urn:uuid:d523d379-caee-4623-82cc-b87491261ba2",
          "display": "Marthe Gallet"
        },
        "effectiveDateTime": "2020-03-12T19:05:43Z",
        "specimen": {
          "reference": "urn:uuid:d58aeff2-1d9e-4690-9f1c-5abcccad9ece"
        }
      }
    },
    {
      "fullUrl": "urn:uuid:9f0f6ee8-633d-416a-a0f4-3b13934e7e89",
      "resource": {
        "resourceType": "Observation",
        "id": "9f0f6ee8-633d-416a-a0f4-3b13934e7e89",
        "meta": {
          "profile": [
            "http://hl7.eu/fhir/laboratory/StructureDefinition/Observation-resultslab-eu-lab"
          ]
        },
        "performer": [
          {
            "display": "The Central European Lab"
          }
        ],
        "category": [
          {
            "coding": [
              {
                "system": "http://terminology.hl7.org/CodeSystem/observation-category",
                "code": "laboratory"
              }
            ]
          }
        ],
        "code": {
          "coding": [
            {
              "code": "2885-2",
              "system": "http://loinc.org",
              "display": "Protein [Mass/volume] in Serum or Plasma"
            }
          ],
          "text": "Protein [Mass/volume] in Serum or Plasma"
        },
        "valueQuantity": {
          "system": "http://unitsofmeasure.org",
          "value": 7.1,
          "unit": "g/dL",
          "code": "g/dL"
        },
        "referenceRange": [
          {
            "low": {
              "value": 6,
              "code": "g/dL",
              "system": "http://unitsofmeasure.org"
            }
          },
          {
            "high": {
              "value": 8.3,
              "code": "g/dL",
              "system": "http://unitsofmeasure.org"
            }
          }
        ],
        "text": {
          "status": "generated",
          "div": "<div xmlns=\"http://www.w3.org/1999/xhtml\"><table class=\"hl7__eu__lab__report\"><tr><th>Test</th><th>12-Mar-2020</th><th>Reference&#xA0;Range</th><th>Unit</th></tr><tr><td>Protein [Mass/volume] in Serum or Plasma</td><td>7.1</td><td>6 - 8.3</td><td></td><td>g/dL</td></tr></table></div>"
        },
        "status": "final",
        "subject": {
          "reference": "urn:uuid:d523d379-caee-4623-82cc-b87491261ba2",
          "display": "Marthe Gallet"
        },
        "effectiveDateTime": "2020-03-12T19:05:43Z",
        "specimen": {
          "reference": "urn:uuid:de739485-890c-4752-a587-b42d8a7f5eaa"
        }
      }
    },
    {
      "fullUrl": "urn:uuid:d6ef8096-0869-441c-9952-66064e2cee50",
      "resource": {
        "resourceType": "Observation",
        "id": "d6ef8096-0869-441c-9952-66064e2cee50",
        "meta": {
          "profile": [
            "http://hl7.eu/fhir/laboratory/StructureDefinition/Observation-resultslab-eu-lab"
          ]
        },
        "performer": [
          {
            "display": "The Central European Lab"
          }
        ],
        "category": [
          {
            "coding": [
              {
                "system": "http://terminology.hl7.org/CodeSystem/observation-category",
                "code": "laboratory"
              }
            ]
          }
        ],
        "code": {
          "coding": [
            {
              "code": "1751-7",
              "system": "http://loinc.org",
              "display": "Albumin [Mass/volume] in Serum or Plasma"
            }
          ],
          "text": "Albumin [Mass/volume] in Serum or Plasma"
        },
        "valueQuantity": {
          "system": "http://unitsofmeasure.org",
          "value": 4.6,
          "unit": "g/dL",
          "code": "g/dL"
        },
        "referenceRange": [
          {
            "low": {
              "value": 3.5,
              "code": "g/dL",
              "system": "http://unitsofmeasure.org"
            }
          },
          {
            "high": {
              "value": 5.5,
              "code": "g/dL",
              "system": "http://unitsofmeasure.org"
            }
          }
        ],
        "text": {
          "status": "generated",
          "div": "<div xmlns=\"http://www.w3.org/1999/xhtml\"><table class=\"hl7__eu__lab__report\"><tr><th>Test</th><th>12-Mar-2020</th><th>Reference&#xA0;Range</th><th>Unit</th></tr><tr><td>Albumin [Mass/volume] in Serum or Plasma</td><td>4.6</td><td>3.5 - 5.5</td><td></td><td>g/dL</td></tr></table></div>"
        },
        "status": "final",
        "subject": {
          "reference": "urn:uuid:d523d379-caee-4623-82cc-b87491261ba2",
          "display": "Marthe Gallet"
        },
        "effectiveDateTime": "2020-03-12T19:05:43Z",
        "specimen": {
          "reference": "urn:uuid:de739485-890c-4752-a587-b42d8a7f5eaa"
        }
      }
    },
    {
      "fullUrl": "urn:uuid:c0bb6832-4f2e-4212-95f5-729514231368",
      "resource": {
        "resourceType": "Observation",
        "id": "c0bb6832-4f2e-4212-95f5-729514231368",
        "meta": {
          "profile": [
            "http://hl7.eu/fhir/laboratory/StructureDefinition/Observation-resultslab-eu-lab"
          ]
        },
        "performer": [
          {
            "display": "The Central European Lab"
          }
        ],
        "category": [
          {
            "coding": [
              {
                "system": "http://terminology.hl7.org/CodeSystem/observation-category",
                "code": "laboratory"
              }
            ]
          }
        ],
        "code": {
          "coding": [
            {
              "code": "10834-0",
              "system": "http://loinc.org",
              "display": "Globulin [Mass/volume] in Serum by calculation"
            }
          ],
          "text": "Globulin [Mass/volume] in Serum by calculation"
        },
        "valueQuantity": {
          "system": "http://unitsofmeasure.org",
          "value": 2.3,
          "unit": "g/L",
          "code": "g/L"
        },
        "referenceRange": [
          {
            "low": {
              "value": 2,
              "code": "g/L",
              "system": "http://unitsofmeasure.org"
            }
          },
          {
            "high": {
              "value": 3.5,
              "code": "g/L",
              "system": "http://unitsofmeasure.org"
            }
          }
        ],
        "text": {
          "status": "generated",
          "div": "<div xmlns=\"http://www.w3.org/1999/xhtml\"><table class=\"hl7__eu__lab__report\"><tr><th>Test</th><th>12-Mar-2020</th><th>Reference&#xA0;Range</th><th>Unit</th></tr><tr><td>Globulin [Mass/volume] in Serum by calculation</td><td>2.3</td><td>2 - 3.5</td><td></td><td>g/L</td></tr></table></div>"
        },
        "status": "final",
        "subject": {
          "reference": "urn:uuid:d523d379-caee-4623-82cc-b87491261ba2",
          "display": "Marthe Gallet"
        },
        "effectiveDateTime": "2020-03-12T19:05:43Z",
        "specimen": {
          "reference": "urn:uuid:3bfb4798-19b9-4397-b518-4bf3772a66ed"
        }
      }
    },
    {
      "fullUrl": "urn:uuid:ecb4d7fc-bf5c-420a-ae3c-ed03eb1b9638",
      "resource": {
        "resourceType": "Observation",
        "id": "ecb4d7fc-bf5c-420a-ae3c-ed03eb1b9638",
        "meta": {
          "profile": [
            "http://hl7.eu/fhir/laboratory/StructureDefinition/Observation-resultslab-eu-lab"
          ]
        },
        "performer": [
          {
            "display": "The Central European Lab"
          }
        ],
        "category": [
          {
            "coding": [
              {
                "system": "http://terminology.hl7.org/CodeSystem/observation-category",
                "code": "laboratory"
              }
            ]
          }
        ],
        "code": {
          "coding": [
            {
              "code": "1975-2",
              "system": "http://loinc.org",
              "display": "Bilirubin.total [Mass/volume] in Serum or Plasma"
            }
          ],
          "text": "Bilirubin.total [Mass/volume] in Serum or Plasma"
        },
        "valueQuantity": {
          "system": "http://unitsofmeasure.org",
          "value": 0.2,
          "unit": "mg/dL",
          "code": "mg/dL"
        },
        "referenceRange": [
          {
            "low": {
              "value": 0.3,
              "code": "mg/dL",
              "system": "http://unitsofmeasure.org"
            }
          },
          {
            "high": {
              "value": 1.2,
              "code": "mg/dL",
              "system": "http://unitsofmeasure.org"
            }
          }
        ],
        "interpretation": [
          {
            "coding": [
              {
                "code": "L",
                "system": "http://terminology.hl7.org/CodeSystem/v3-ObservationInterpretation",
                "display": "Low"
              }
            ]
          }
        ],
        "text": {
          "status": "generated",
          "div": "<div xmlns=\"http://www.w3.org/1999/xhtml\"><table class=\"hl7__eu__lab__report\"><tr><th>Test</th><th>12-Mar-2020</th><th>Reference&#xA0;Range</th><th>Unit</th></tr><tr><td>Bilirubin.total [Mass/volume] in Serum or Plasma</td><td>0.2</td><td>0.3 - 1.2</td><td>L</td><td>mg/dL</td></tr></table></div>"
        },
        "status": "final",
        "subject": {
          "reference": "urn:uuid:d523d379-caee-4623-82cc-b87491261ba2",
          "display": "Marthe Gallet"
        },
        "effectiveDateTime": "2020-03-12T19:05:43Z",
        "specimen": {
          "reference": "urn:uuid:de739485-890c-4752-a587-b42d8a7f5eaa"
        }
      }
    },
    {
      "fullUrl": "urn:uuid:48b90a7f-e962-44d3-9b62-5496c59cb1a3",
      "resource": {
        "resourceType": "Observation",
        "id": "48b90a7f-e962-44d3-9b62-5496c59cb1a3",
        "meta": {
          "profile": [
            "http://hl7.eu/fhir/laboratory/StructureDefinition/Observation-resultslab-eu-lab"
          ]
        },
        "performer": [
          {
            "display": "The Central European Lab"
          }
        ],
        "category": [
          {
            "coding": [
              {
                "system": "http://terminology.hl7.org/CodeSystem/observation-category",
                "code": "laboratory"
              }
            ]
          }
        ],
        "code": {
          "coding": [
            {
              "code": "6768-6",
              "system": "http://loinc.org",
              "display": "Alkaline phosphatase [Enzymatic activity/volume] in Serum or Plasma"
            }
          ],
          "text": "Alkaline phosphatase [Enzymatic activity/volume] in Serum or Plasma"
        },
        "valueQuantity": {
          "system": "http://unitsofmeasure.org",
          "value": 101.4,
          "unit": "U/L",
          "code": "U/L"
        },
        "referenceRange": [
          {
            "low": {
              "value": 44,
              "code": "U/L",
              "system": "http://unitsofmeasure.org"
            }
          },
          {
            "high": {
              "value": 130,
              "code": "U/L",
              "system": "http://unitsofmeasure.org"
            }
          }
        ],
        "text": {
          "status": "generated",
          "div": "<div xmlns=\"http://www.w3.org/1999/xhtml\"><table class=\"hl7__eu__lab__report\"><tr><th>Test</th><th>12-Mar-2020</th><th>Reference&#xA0;Range</th><th>Unit</th></tr><tr><td>Alkaline phosphatase [Enzymatic activity/volume] in Serum or Plasma</td><td>101.4</td><td>44 - 130</td><td></td><td>U/L</td></tr></table></div>"
        },
        "status": "final",
        "subject": {
          "reference": "urn:uuid:d523d379-caee-4623-82cc-b87491261ba2",
          "display": "Marthe Gallet"
        },
        "effectiveDateTime": "2020-03-12T19:05:43Z",
        "specimen": {
          "reference": "urn:uuid:de739485-890c-4752-a587-b42d8a7f5eaa"
        }
      }
    },
    {
      "fullUrl": "urn:uuid:ba4b343e-a710-40f7-9a28-3c3a1a632a0a",
      "resource": {
        "resourceType": "Observation",
        "id": "ba4b343e-a710-40f7-9a28-3c3a1a632a0a",
        "meta": {
          "profile": [
            "http://hl7.eu/fhir/laboratory/StructureDefinition/Observation-resultslab-eu-lab"
          ]
        },
        "performer": [
          {
            "display": "The Central European Lab"
          }
        ],
        "category": [
          {
            "coding": [
              {
                "system": "http://terminology.hl7.org/CodeSystem/observation-category",
                "code": "laboratory"
              }
            ]
          }
        ],
        "code": {
          "coding": [
            {
              "code": "1742-6",
              "system": "http://loinc.org",
              "display": "Alanine aminotransferase [Enzymatic activity/volume] in Serum or Plasma"
            }
          ],
          "text": "Alanine aminotransferase [Enzymatic activity/volume] in Serum or Plasma"
        },
        "valueQuantity": {
          "system": "http://unitsofmeasure.org",
          "value": 40,
          "unit": "U/L",
          "code": "U/L"
        },
        "referenceRange": [
          {
            "low": {
              "value": 7,
              "code": "U/L",
              "system": "http://unitsofmeasure.org"
            }
          },
          {
            "high": {
              "value": 33,
              "code": "U/L",
              "system": "http://unitsofmeasure.org"
            }
          }
        ],
        "interpretation": [
          {
            "coding": [
              {
                "code": "H",
                "system": "http://terminology.hl7.org/CodeSystem/v3-ObservationInterpretation",
                "display": "High"
              }
            ]
          }
        ],
        "text": {
          "status": "generated",
          "div": "<div xmlns=\"http://www.w3.org/1999/xhtml\"><table class=\"hl7__eu__lab__report\"><tr><th>Test</th><th>12-Mar-2020</th><th>Reference&#xA0;Range</th><th>Unit</th></tr><tr><td>Alanine aminotransferase [Enzymatic activity/volume] in Serum or Plasma</td><td>40.0</td><td>7 - 33</td><td>H</td><td>U/L</td></tr></table></div>"
        },
        "status": "final",
        "subject": {
          "reference": "urn:uuid:d523d379-caee-4623-82cc-b87491261ba2",
          "display": "Marthe Gallet"
        },
        "effectiveDateTime": "2020-03-12T19:05:43Z",
        "specimen": {
          "reference": "urn:uuid:de739485-890c-4752-a587-b42d8a7f5eaa"
        }
      }
    },
    {
      "fullUrl": "urn:uuid:63e761c8-c1ef-47ad-a1ae-a926ee182553",
      "resource": {
        "resourceType": "Observation",
        "id": "63e761c8-c1ef-47ad-a1ae-a926ee182553",
        "meta": {
          "profile": [
            "http://hl7.eu/fhir/laboratory/StructureDefinition/Observation-resultslab-eu-lab"
          ]
        },
        "performer": [
          {
            "display": "The Central European Lab"
          }
        ],
        "category": [
          {
            "coding": [
              {
                "system": "http://terminology.hl7.org/CodeSystem/observation-category",
                "code": "laboratory"
              }
            ]
          }
        ],
        "code": {
          "coding": [
            {
              "code": "1920-8",
              "system": "http://loinc.org",
              "display": "Aspartate aminotransferase [Enzymatic activity/volume] in Serum or Plasma"
            }
          ],
          "text": "Aspartate aminotransferase [Enzymatic activity/volume] in Serum or Plasma"
        },
        "valueQuantity": {
          "system": "http://unitsofmeasure.org",
          "value": 24.2,
          "unit": "U/L",
          "code": "U/L"
        },
        "referenceRange": [
          {
            "low": {
              "value": 10,
              "code": "U/L",
              "system": "http://unitsofmeasure.org"
            }
          },
          {
            "high": {
              "value": 40,
              "code": "U/L",
              "system": "http://unitsofmeasure.org"
            }
          }
        ],
        "text": {
          "status": "generated",
          "div": "<div xmlns=\"http://www.w3.org/1999/xhtml\"><table class=\"hl7__eu__lab__report\"><tr><th>Test</th><th>12-Mar-2020</th><th>Reference&#xA0;Range</th><th>Unit</th></tr><tr><td>Aspartate aminotransferase [Enzymatic activity/volume] in Serum or Plasma</td><td>24.2</td><td>10 - 40</td><td></td><td>U/L</td></tr></table></div>"
        },
        "status": "final",
        "subject": {
          "reference": "urn:uuid:d523d379-caee-4623-82cc-b87491261ba2",
          "display": "Marthe Gallet"
        },
        "effectiveDateTime": "2020-03-12T19:05:43Z",
        "specimen": {
          "reference": "urn:uuid:de739485-890c-4752-a587-b42d8a7f5eaa"
        }
      }
    },
    {
      "fullUrl": "urn:uuid:666e6ea5-ac82-4954-85c4-20bf3e829df8",
      "resource": {
        "resourceType": "Observation",
        "id": "666e6ea5-ac82-4954-85c4-20bf3e829df8",
        "meta": {
          "profile": [
            "http://hl7.eu/fhir/laboratory/StructureDefinition/Observation-resultslab-eu-lab"
          ]
        },
        "performer": [
          {
            "display": "The Central European Lab"
          }
        ],
        "category": [
          {
            "coding": [
              {
                "system": "http://terminology.hl7.org/CodeSystem/observation-category",
                "code": "laboratory"
              }
            ]
          }
        ],
        "code": {
          "coding": [
            {
              "code": "2093-3",
              "system": "http://loinc.org",
              "display": "Cholesterol [Mass/volume] in Serum or Plasma"
            }
          ],
          "text": "Cholesterol [Mass/volume] in Serum or Plasma"
        },
        "valueQuantity": {
          "system": "http://unitsofmeasure.org",
          "value": 164.3,
          "unit": "mg/dL",
          "code": "mg/dL"
        },
        "referenceRange": [
          {
            "low": {
              "value": 125,
              "code": "mg/dL",
              "system": "http://unitsofmeasure.org"
            }
          },
          {
            "high": {
              "value": 200,
              "code": "mg/dL",
              "system": "http://unitsofmeasure.org"
            }
          }
        ],
        "text": {
          "status": "generated",
          "div": "<div xmlns=\"http://www.w3.org/1999/xhtml\"><table class=\"hl7__eu__lab__report\"><tr><th>Test</th><th>12-Mar-2020</th><th>Reference&#xA0;Range</th><th>Unit</th></tr><tr><td>Cholesterol [Mass/volume] in Serum or Plasma</td><td>164.3</td><td>125 - 200</td><td></td><td>mg/dL</td></tr></table></div>"
        },
        "status": "final",
        "subject": {
          "reference": "urn:uuid:d523d379-caee-4623-82cc-b87491261ba2",
          "display": "Marthe Gallet"
        },
        "effectiveDateTime": "2020-03-12T19:05:43Z",
        "specimen": {
          "reference": "urn:uuid:de739485-890c-4752-a587-b42d8a7f5eaa"
        }
      }
    },
    {
      "fullUrl": "urn:uuid:80845c78-582e-478a-aad1-b17051f62d3b",
      "resource": {
        "resourceType": "Observation",
        "id": "80845c78-582e-478a-aad1-b17051f62d3b",
        "meta": {
          "profile": [
            "http://hl7.eu/fhir/laboratory/StructureDefinition/Observation-resultslab-eu-lab"
          ]
        },
        "performer": [
          {
            "display": "The Central European Lab"
          }
        ],
        "category": [
          {
            "coding": [
              {
                "system": "http://terminology.hl7.org/CodeSystem/observation-category",
                "code": "laboratory"
              }
            ]
          }
        ],
        "code": {
          "coding": [
            {
              "code": "2571-8",
              "system": "http://loinc.org",
              "display": "Triglyceride [Mass/volume] in Serum or Plasma"
            }
          ],
          "text": "Triglyceride [Mass/volume] in Serum or Plasma"
        },
        "valueQuantity": {
          "system": "http://unitsofmeasure.org",
          "value": 124.4,
          "unit": "mg/dL",
          "code": "mg/dL"
        },
        "referenceRange": [
          {
            "low": {
              "value": 10,
              "code": "mg/dL",
              "system": "http://unitsofmeasure.org"
            }
          },
          {
            "high": {
              "value": 175,
              "code": "mg/dL",
              "system": "http://unitsofmeasure.org"
            }
          }
        ],
        "text": {
          "status": "generated",
          "div": "<div xmlns=\"http://www.w3.org/1999/xhtml\"><table class=\"hl7__eu__lab__report\"><tr><th>Test</th><th>12-Mar-2020</th><th>Reference&#xA0;Range</th><th>Unit</th></tr><tr><td>Triglyceride [Mass/volume] in Serum or Plasma</td><td>124.4</td><td>10 - 175</td><td></td><td>mg/dL</td></tr></table></div>"
        },
        "status": "final",
        "subject": {
          "reference": "urn:uuid:d523d379-caee-4623-82cc-b87491261ba2",
          "display": "Marthe Gallet"
        },
        "effectiveDateTime": "2020-03-12T19:05:43Z",
        "specimen": {
          "reference": "urn:uuid:de739485-890c-4752-a587-b42d8a7f5eaa"
        }
      }
    },
    {
      "fullUrl": "urn:uuid:c04958ac-901c-43f2-9c5e-4ee5b5cba42e",
      "resource": {
        "resourceType": "Observation",
        "id": "c04958ac-901c-43f2-9c5e-4ee5b5cba42e",
        "meta": {
          "profile": [
            "http://hl7.eu/fhir/laboratory/StructureDefinition/Observation-resultslab-eu-lab"
          ]
        },
        "performer": [
          {
            "display": "The Central European Lab"
          }
        ],
        "category": [
          {
            "coding": [
              {
                "system": "http://terminology.hl7.org/CodeSystem/observation-category",
                "code": "laboratory"
              }
            ]
          }
        ],
        "code": {
          "coding": [
            {
              "code": "18262-6",
              "system": "http://loinc.org",
              "display": "Cholesterol in LDL [Mass/volume] in Serum or Plasma by Direct assay"
            }
          ],
          "text": "Cholesterol in LDL [Mass/volume] in Serum or Plasma by Direct assay"
        },
        "valueQuantity": {
          "system": "http://unitsofmeasure.org",
          "value": 81.2,
          "unit": "mg/dL",
          "code": "mg/dL"
        },
        "referenceRange": [
          {
            "low": {
              "value": 0,
              "code": "mg/dL",
              "system": "http://unitsofmeasure.org"
            }
          },
          {
            "high": {
              "value": 130,
              "code": "mg/dL",
              "system": "http://unitsofmeasure.org"
            }
          }
        ],
        "text": {
          "status": "generated",
          "div": "<div xmlns=\"http://www.w3.org/1999/xhtml\"><table class=\"hl7__eu__lab__report\"><tr><th>Test</th><th>12-Mar-2020</th><th>Reference&#xA0;Range</th><th>Unit</th></tr><tr><td>Cholesterol in LDL [Mass/volume] in Serum or Plasma by Direct assay</td><td>81.2</td><td>0 - 130</td><td></td><td>mg/dL</td></tr></table></div>"
        },
        "status": "final",
        "subject": {
          "reference": "urn:uuid:d523d379-caee-4623-82cc-b87491261ba2",
          "display": "Marthe Gallet"
        },
        "effectiveDateTime": "2020-03-12T19:05:43Z",
        "specimen": {
          "reference": "urn:uuid:de739485-890c-4752-a587-b42d8a7f5eaa"
        }
      }
    },
    {
      "fullUrl": "urn:uuid:c74789a5-2d5e-4f9f-ae6d-5c8479172be0",
      "resource": {
        "resourceType": "Observation",
        "id": "c74789a5-2d5e-4f9f-ae6d-5c8479172be0",
        "meta": {
          "profile": [
            "http://hl7.eu/fhir/laboratory/StructureDefinition/Observation-resultslab-eu-lab"
          ]
        },
        "performer": [
          {
            "display": "The Central European Lab"
          }
        ],
        "category": [
          {
            "coding": [
              {
                "system": "http://terminology.hl7.org/CodeSystem/observation-category",
                "code": "laboratory"
              }
            ]
          }
        ],
        "code": {
          "coding": [
            {
              "code": "2085-9",
              "system": "http://loinc.org",
              "display": "Cholesterol in HDL [Mass/volume] in Serum or Plasma"
            }
          ],
          "text": "Cholesterol in HDL [Mass/volume] in Serum or Plasma"
        },
        "valueQuantity": {
          "system": "http://unitsofmeasure.org",
          "value": 59.5,
          "unit": "mg/dL",
          "code": "mg/dL"
        },
        "referenceRange": [
          {
            "low": {
              "value": 40,
              "code": "mg/dL",
              "system": "http://unitsofmeasure.org"
            }
          },
          {
            "high": {
              "value": 100,
              "code": "mg/dL",
              "system": "http://unitsofmeasure.org"
            }
          }
        ],
        "text": {
          "status": "generated",
          "div": "<div xmlns=\"http://www.w3.org/1999/xhtml\"><table class=\"hl7__eu__lab__report\"><tr><th>Test</th><th>12-Mar-2020</th><th>Reference&#xA0;Range</th><th>Unit</th></tr><tr><td>Cholesterol in HDL [Mass/volume] in Serum or Plasma</td><td>59.5</td><td>40 - 100</td><td></td><td>mg/dL</td></tr></table></div>"
        },
        "status": "final",
        "subject": {
          "reference": "urn:uuid:d523d379-caee-4623-82cc-b87491261ba2",
          "display": "Marthe Gallet"
        },
        "effectiveDateTime": "2020-03-12T19:05:43Z",
        "specimen": {
          "reference": "urn:uuid:de739485-890c-4752-a587-b42d8a7f5eaa"
        }
      }
    },
    {
      "fullUrl": "urn:uuid:9cb63016-0142-46d9-9fba-f18c8831f2a5",
      "resource": {
        "resourceType": "Device",
        "id": "9cb63016-0142-46d9-9fba-f18c8831f2a5",
        "deviceName": [
          {
            "name": "SYNDERAI Synthetic Generator",
            "type": "manufacturer-name"
          }
        ],
        "version": [
          {
            "value": "5.0"
          }
        ],
        "text": {
          "status": "generated",
          "div": "<div xmlns=\"http://www.w3.org/1999/xhtml\">SYNDERAI Synthetic Generator v5.0</div>"
        },
        "status": "active\"",
        "distinctIdentifier": "synderai-generator-50",
        "manufacturer": "SYNDERAI Project"
      }
    },
    {
      "fullUrl": "urn:uuid:67c84b6b-f9e0-4aa3-ab90-4a5b54978122",
      "resource": {
        "resourceType": "Provenance",
        "id": "67c84b6b-f9e0-4aa3-ab90-4a5b54978122",
        "target": [
          {
            "reference": "Patient/d523d379-caee-4623-82cc-b87491261ba2"
          },
          {
            "reference": "Bundle/9d11515a-a9e5-4c58-8ff8-4601f0ac2233"
          },
          {
            "reference": "Composition/1a5aa310-c72c-4f3f-925b-d0debedccc31"
          },
          {
            "reference": "PractitionerRole/570f8df6-35b4-4e99-b7b4-752916d2f995"
          },
          {
            "reference": "Practitioner/d05d4cdc-96bb-4f33-8900-59a2b5eefa0d"
          },
          {
            "reference": "PractitionerRole/6b35fdd7-f05d-459f-875d-bc839e257f6c"
          },
          {
            "reference": "Organization/d5932b75-2539-423e-9259-3c44d4b7cabc"
          }
        ],
        "activity": {
          "text": "Synthetic Example Data Generation"
        },
        "policy": [
          "https://synderai.net/synderai-synthetic-data-policy"
        ],
        "agent": [
          {
            "type": {
              "text": "author"
            },
            "who": {
              "reference": "Device/9cb63016-0142-46d9-9fba-f18c8831f2a5"
            }
          }
        ],
        "reason": [
          {
            "text": "Interoperability Testing and Training (non-clinical use)"
          }
        ],
        "text": {
          "status": "generated",
          "div": "<div xmlns=\"http://www.w3.org/1999/xhtml\">Provenance for SYNDERAI Synthetic Example Data Resource</div>"
        },
        "recorded": "2020-03-12T20:05:43Z"
      }
    },
    {
      "fullUrl": "urn:uuid:570f8df6-35b4-4e99-b7b4-752916d2f995",
      "resource": {
        "resourceType": "PractitionerRole",
        "id": "570f8df6-35b4-4e99-b7b4-752916d2f995",
        "meta": {
          "profile": [
            "http://hl7.eu/fhir/base/StructureDefinition/practitionerRole-eu"
          ]
        },
        "text": {
          "status": "generated",
          "div": "<div xmlns=\"http://www.w3.org/1999/xhtml\">Laboratory Role Id: 570f8df6-35b4-4e99-b7b4-752916d2f995</div>"
        },
        "practitioner": {
          "reference": "urn:uuid:d05d4cdc-96bb-4f33-8900-59a2b5eefa0d"
        }
      }
    },
    {
      "fullUrl": "urn:uuid:d05d4cdc-96bb-4f33-8900-59a2b5eefa0d",
      "resource": {
        "resourceType": "Practitioner",
        "id": "d05d4cdc-96bb-4f33-8900-59a2b5eefa0d",
        "meta": {
          "profile": [
            "http://hl7.eu/fhir/base/StructureDefinition/practitioner-eu"
          ]
        },
        "identifier": [
          {
            "assigner": {
              "display": "HL7 Europe"
            },
            "system": "urn:oid:2.16.840.1.113883.2.51.999",
            "value": "78ea4bda-519f-4b53-bb41-bc90e87448af"
          }
        ],
        "name": [
          {
            "prefix": [
              "dr"
            ],
            "given": [
              "Ex"
            ],
            "family": "Ample"
          }
        ],
        "address": [
          {
            "line": [
              "Laboratoire Central Europenne",
              "Boulevard du Jardin Botanique 32"
            ],
            "postalCode": "1000",
            "city": "Brussels",
            "country": "Belgium"
          }
        ],
        "text": {
          "status": "generated",
          "div": "<div xmlns=\"http://www.w3.org/1999/xhtml\">Laboratory: Laboratoire Central Europenne, 1000 Brussels, Belgium</div>"
        }
      }
    }
  ],
  "type": "document",
  "timestamp": "2020-03-12T20:05:43Z"
}
