{
  "resourceType": "Bundle",
  "id": "b8bce7ac-b206-4857-a8ef-d80fb7a306b9",
  "meta": {
    "profile": [
      "http://hl7.eu/fhir/laboratory/StructureDefinition/Bundle-eu-lab"
    ]
  },
  "identifier": {
    "assigner": {
      "display": "HL7 Europe"
    },
    "system": "urn:oid:2.16.840.1.113883.2.51.999",
    "value": "83d665fc-77a2-42db-9726-19ac0dabb790"
  },
  "entry": [
    {
      "fullUrl": "urn:uuid:4ea61ec3-3434-4dd8-94bc-39c5a92ee183",
      "resource": {
        "resourceType": "Composition",
        "id": "4ea61ec3-3434-4dd8-94bc-39c5a92ee183",
        "meta": {
          "profile": [
            "http://hl7.eu/fhir/laboratory/StructureDefinition/Composition-eu-lab"
          ]
        },
        "identifier": {
          "assigner": {
            "display": "HL7 Europe"
          },
          "system": "urn:oid:2.16.840.1.113883.2.51.999",
          "value": "55b3c1e7-66a1-4bfd-82cc-d6fc0fc89099"
        },
        "author": [
          {
            "reference": "urn:uuid:af089fd0-28d3-4865-8580-8dfa1b926828"
          }
        ],
        "category": [
          {
            "coding": [
              {
                "code": "26436-6",
                "system": "http://loinc.org",
                "display": "Laboratory studies (set)"
              }
            ]
          }
        ],
        "type": {
          "coding": [
            {
              "code": "11502-2",
              "system": "http://loinc.org",
              "display": "Laboratory report"
            }
          ],
          "text": "Laboratory Report"
        },
        "section": [
          {
            "code": {
              "coding": [
                {
                  "code": "26436-6",
                  "system": "http://loinc.org",
                  "display": "Laboratory studies (set)"
                }
              ],
              "text": "Laboratory studies"
            },
            "section": [
              {
                "code": {
                  "coding": [
                    {
                      "code": "$18719-5",
                      "system": "http://loinc.org",
                      "display": "Chemistry studies (set)"
                    }
                  ],
                  "text": "Chemistry"
                },
                "entry": [
                  {
                    "reference": "urn:uuid:d36fc568-8ed5-40b5-a1fb-cf8e876d53ff"
                  },
                  {
                    "reference": "urn:uuid:4981b063-875c-45bb-b80e-e31e91e4e7c4"
                  },
                  {
                    "reference": "urn:uuid:24d1c5ab-53a9-4c90-8976-464be8b401b5"
                  },
                  {
                    "reference": "urn:uuid:399369e9-7e38-4376-9f55-bca3b7623c74"
                  },
                  {
                    "reference": "urn:uuid:dd37d9e1-4023-41e8-bf16-00e6e7be5414"
                  },
                  {
                    "reference": "urn:uuid:6de30cb8-2d8c-44fe-8a54-996fcd4a76dc"
                  },
                  {
                    "reference": "urn:uuid:7644b1a7-e72f-4ded-bf4c-8e6575d208d3"
                  },
                  {
                    "reference": "urn:uuid:664bc2c5-5a19-47e9-be4b-dfd407210f91"
                  },
                  {
                    "reference": "urn:uuid:e730033b-11d5-48c1-9347-606244abce5c"
                  },
                  {
                    "reference": "urn:uuid:03bb3a3a-54b9-4648-b0be-0920f017a9b6"
                  },
                  {
                    "reference": "urn:uuid:20a3ddcf-e58f-4abc-baf2-ad40c73892c7"
                  },
                  {
                    "reference": "urn:uuid:eefa7bd9-31e1-4ffb-b20b-d846f061df96"
                  },
                  {
                    "reference": "urn:uuid:a7f59f16-f4b6-4f42-bc44-c75e2a088cd7"
                  }
                ],
                "text": {
                  "status": "generated",
                  "div": "<div xmlns=\"http://www.w3.org/1999/xhtml\"><h3>Chemistry</h3><table class=\"hl7__eu__lab__report\"><thead><tr><th>Test</th><th>17-MAR-2022</th><th>Reference&#xA0;Range</th><th>Unit</th></tr></thead><tbody><tr><td>Glucose [Mass/volume] in Serum or Plasma</td><td>97.7</td><td>70 - 140</td><td>mg/dL</td></tr><tr><td>Urea nitrogen [Mass/volume] in Serum or Plasma</td><td>13.9</td><td>7 - 50</td><td>mg/dL</td></tr><tr><td>Creatinine [Mass/volume] in Serum or Plasma</td><td><strong>1.9 H</strong></td><td>0.6 - 1.1</td><td>mg/dL</td></tr><tr><td>Calcium [Mass/volume] in Serum or Plasma</td><td>9.7</td><td>8.5 - 10.5</td><td>mg/dL</td></tr><tr><td>Sodium [Moles/volume] in Serum or Plasma</td><td>139.3</td><td>135 - 145</td><td>mmol/L</td></tr><tr><td>Potassium [Moles/volume] in Serum or Plasma</td><td>4.7</td><td>3.5 - 5.1</td><td>mmol/L</td></tr><tr><td>Chloride [Moles/volume] in Serum or Plasma</td><td>105.1</td><td>98 - 108</td><td>mmol/L</td></tr><tr><td>Carbon dioxide, total [Moles/volume] in Serum or Plasma</td><td>25.8</td><td>22 - 32</td><td>mmol/L</td></tr><tr><td>Ketones [Presence] in Urine by Test strip</td><td>Urine ketone test = +</td><td></td><td></td></tr><tr><td>Cholesterol [Mass/volume] in Serum or Plasma</td><td>166.6</td><td>125 - 200</td><td>mg/dL</td></tr><tr><td>Triglyceride [Mass/volume] in Serum or Plasma</td><td>103.4</td><td>10 - 175</td><td>mg/dL</td></tr><tr><td>Cholesterol in LDL [Mass/volume] in Serum or Plasma by Direct assay</td><td>91.9</td><td>0 - 130</td><td>mg/dL</td></tr><tr><td>Cholesterol in HDL [Mass/volume] in Serum or Plasma</td><td>54.0</td><td>40 - 100</td><td>mg/dL</td></tr></tbody></table></div>"
                },
                "title": "Chemistry"
              },
              {
                "code": {
                  "coding": [
                    {
                      "code": "$18729-4",
                      "system": "http://loinc.org",
                      "display": "Urinalysis studies (set)"
                    }
                  ],
                  "text": "Urinalysis"
                },
                "entry": [
                  {
                    "reference": "urn:uuid:834dfb47-f44e-4a81-86cc-5b95d90b55d0"
                  },
                  {
                    "reference": "urn:uuid:fff482e2-9fd2-43aa-9740-51c4d2d521da"
                  },
                  {
                    "reference": "urn:uuid:1a10d0e5-0e71-4c84-9912-36563a4cd1a2"
                  },
                  {
                    "reference": "urn:uuid:b8174b6c-d7cb-437a-b9ac-a207be6e0b1f"
                  },
                  {
                    "reference": "urn:uuid:79ad07b9-1779-4515-8be4-682ec40f93b3"
                  },
                  {
                    "reference": "urn:uuid:563a90a1-3804-49eb-95e2-9bf9cab8d459"
                  },
                  {
                    "reference": "urn:uuid:822fe807-2ea8-4879-8483-b7a05f227485"
                  },
                  {
                    "reference": "urn:uuid:d2b42605-045a-46a1-8214-5a4f6e94edfb"
                  },
                  {
                    "reference": "urn:uuid:30acfa51-e470-4d6f-95be-6ee32d82440c"
                  },
                  {
                    "reference": "urn:uuid:dd78a4c4-e56d-4109-a0e9-44981c79961d"
                  },
                  {
                    "reference": "urn:uuid:505e7c22-7329-4b6f-a094-6dcec3fa662f"
                  },
                  {
                    "reference": "urn:uuid:ca56e984-c9df-4500-871f-8e9fb17c4a63"
                  }
                ],
                "text": {
                  "status": "generated",
                  "div": "<div xmlns=\"http://www.w3.org/1999/xhtml\"><h3>Urinalysis</h3><table class=\"hl7__eu__lab__report\"><thead><tr><th>Test</th><th>17-MAR-2022</th><th>Reference&#xA0;Range</th><th>Unit</th></tr></thead><tbody><tr><td>Glucose [Mass/volume] in Urine by Test strip</td><td><strong>2.4 H</strong></td><td>0.8 - 0</td><td>mg/dL</td></tr><tr><td>Glucose [Presence] in Urine by Test strip</td><td>++</td><td></td><td></td></tr><tr><td>Bilirubin.total [Mass/volume] in Urine by Test strip</td><td>0.9</td><td>0 - 1</td><td>mg/dL</td></tr><tr><td>Bilirubin.total [Presence] in Urine by Test strip</td><td>Finding of bilirubin in urine</td><td></td><td></td></tr><tr><td>Ketones [Mass/volume] in Urine by Test strip</td><td>18.3</td><td>0 - 20</td><td>mg/dL</td></tr><tr><td>Specific gravity of Urine by Test strip</td><td><strong>1.0 L</strong></td><td>1.01 - 1.03</td><td>{nominal}</td></tr><tr><td>pH of Urine by Test strip</td><td>6.6</td><td>4.6 - 7</td><td>pH</td></tr><tr><td>Protein [Mass/volume] in Urine by Test strip</td><td><strong>157.5 H</strong></td><td>0 - 15</td><td>mg/dL</td></tr><tr><td>Protein [Presence] in Urine by Test strip</td><td>Urine protein test = ++</td><td></td><td></td></tr><tr><td>Nitrite [Presence] in Urine by Test strip</td><td>Urine nitrite negative</td><td></td><td></td></tr><tr><td>Hemoglobin [Presence] in Urine by Test strip</td><td>Urine blood test = negative</td><td></td><td></td></tr><tr><td>Leukocyte esterase [Presence] in Urine by Test strip</td><td>Urine leukocyte test negative</td><td></td><td></td></tr></tbody></table></div>"
                },
                "title": "Urinalysis"
              },
              {
                "code": {
                  "coding": [
                    {
                      "code": "$LP7846-1",
                      "system": "http://loinc.org",
                      "display": "Specimen information"
                    }
                  ],
                  "text": "Specimen information"
                },
                "entry": [
                  {
                    "reference": "urn:uuid:13499f04-3a6d-4b22-9d29-5ad1909e75d8"
                  },
                  {
                    "reference": "urn:uuid:941c02b5-8657-4f55-908c-38fada02d661"
                  },
                  {
                    "reference": "urn:uuid:a20a6d45-f97b-47cb-b715-d6ce80489cdd"
                  },
                  {
                    "reference": "urn:uuid:897c4a2a-a6f8-4d86-af24-383faee229de"
                  }
                ],
                "text": {
                  "status": "generated",
                  "div": "<div xmlns=\"http://www.w3.org/1999/xhtml\"><h3>Specimen information</h3><table class=\"hl7__eu__lab__report\"><thead><tr><th>Test</th><th>17-MAR-2022</th><th>Specimen</th><th></th></tr></thead><tbody><tr><td>Appearance of Urine</td><td>Cloudy urine</td><td>Urine</td><td></td></tr><tr><td>Odor of Urine</td><td>Urine smell ammoniacal</td><td>Urine</td><td></td></tr><tr><td>Clarity of Urine</td><td>Translucent</td><td>Urine</td><td></td></tr><tr><td>Color of Urine</td><td>Brown color</td><td>Urine</td><td></td></tr></tbody></table></div>"
                },
                "title": "Specimen information"
              }
            ],
            "title": "Laboratory Report"
          },
          {
            "text": {
              "status": "generated",
              "div": "<div xmlns=\"http://www.w3.org/1999/xhtml\"><h3>Annotation</h3><table class=\"hl7__eu__lab__report\"><tr><th>Conclusion and Recommendations based on this report and previous findings known to us</th></tr><tr><td>The patient shows elevated serum creatinine, indicating impaired renal function. Urinalysis reveals significant proteinuria, glucosuria, low specific gravity, and presence of ketones, suggesting possible diabetic nephropathy or another renal pathology. No evidence of urinary tract infection is seen. The urine&quot;s abnormal appearance and color further support renal involvement. Recommend clinical correlation and further nephrological evaluation.</td></tr></table></div>"
            },
            "code": {
              "coding": [
                {
                  "system": "http://loinc.org",
                  "code": "48767-8",
                  "display": "Annotation comment"
                }
              ]
            },
            "title": "Annotation comment"
          }
        ],
        "status": "final",
        "subject": {
          "reference": "urn:uuid:83b3c62c-87f5-42f4-ba04-99ec8dc6afa0",
          "display": "Marthe Gallet"
        },
        "date": "2022-03-17T20:05:43Z",
        "title": "Laboratory Report",
        "confidentiality": "N"
      }
    },
    {
      "fullUrl": "urn:uuid:eeaac481-0f28-42b7-befa-48438c1d0ecd",
      "resource": {
        "resourceType": "DiagnosticReport",
        "id": "eeaac481-0f28-42b7-befa-48438c1d0ecd",
        "meta": {
          "profile": [
            "http://hl7.eu/fhir/laboratory/StructureDefinition/DiagnosticReport-eu-lab"
          ]
        },
        "identifier": [
          {
            "assigner": {
              "display": "HL7 Europe"
            },
            "system": "urn:oid:2.16.840.1.113883.2.51.999",
            "value": "eb4e80f6-ab3a-4958-b96f-40f7759b296e"
          }
        ],
        "extension": [
          {
            "url": "http://hl7.org/fhir/5.0/StructureDefinition/extension-DiagnosticReport.composition",
            "valueReference": {
              "reference": "urn:uuid:55b3c1e7-66a1-4bfd-82cc-d6fc0fc89099"
            }
          }
        ],
        "category": [
          {
            "coding": [
              {
                "code": "26436-6",
                "system": "http://loinc.org",
                "display": "Laboratory studies (set)"
              }
            ]
          }
        ],
        "specimen": [
          {
            "reference": "urn:uuid:fccd9a46-0124-463a-8112-78eba64d445a"
          },
          {
            "reference": "urn:uuid:06f48236-821b-421f-be64-f051fbf6b751"
          }
        ],
        "result": [
          {
            "reference": "urn:uuid:d36fc568-8ed5-40b5-a1fb-cf8e876d53ff"
          },
          {
            "reference": "urn:uuid:4981b063-875c-45bb-b80e-e31e91e4e7c4"
          },
          {
            "reference": "urn:uuid:24d1c5ab-53a9-4c90-8976-464be8b401b5"
          },
          {
            "reference": "urn:uuid:399369e9-7e38-4376-9f55-bca3b7623c74"
          },
          {
            "reference": "urn:uuid:dd37d9e1-4023-41e8-bf16-00e6e7be5414"
          },
          {
            "reference": "urn:uuid:6de30cb8-2d8c-44fe-8a54-996fcd4a76dc"
          },
          {
            "reference": "urn:uuid:7644b1a7-e72f-4ded-bf4c-8e6575d208d3"
          },
          {
            "reference": "urn:uuid:664bc2c5-5a19-47e9-be4b-dfd407210f91"
          },
          {
            "reference": "urn:uuid:13499f04-3a6d-4b22-9d29-5ad1909e75d8"
          },
          {
            "reference": "urn:uuid:941c02b5-8657-4f55-908c-38fada02d661"
          },
          {
            "reference": "urn:uuid:a20a6d45-f97b-47cb-b715-d6ce80489cdd"
          },
          {
            "reference": "urn:uuid:897c4a2a-a6f8-4d86-af24-383faee229de"
          },
          {
            "reference": "urn:uuid:834dfb47-f44e-4a81-86cc-5b95d90b55d0"
          },
          {
            "reference": "urn:uuid:fff482e2-9fd2-43aa-9740-51c4d2d521da"
          },
          {
            "reference": "urn:uuid:1a10d0e5-0e71-4c84-9912-36563a4cd1a2"
          },
          {
            "reference": "urn:uuid:b8174b6c-d7cb-437a-b9ac-a207be6e0b1f"
          },
          {
            "reference": "urn:uuid:79ad07b9-1779-4515-8be4-682ec40f93b3"
          },
          {
            "reference": "urn:uuid:e730033b-11d5-48c1-9347-606244abce5c"
          },
          {
            "reference": "urn:uuid:563a90a1-3804-49eb-95e2-9bf9cab8d459"
          },
          {
            "reference": "urn:uuid:822fe807-2ea8-4879-8483-b7a05f227485"
          },
          {
            "reference": "urn:uuid:d2b42605-045a-46a1-8214-5a4f6e94edfb"
          },
          {
            "reference": "urn:uuid:30acfa51-e470-4d6f-95be-6ee32d82440c"
          },
          {
            "reference": "urn:uuid:dd78a4c4-e56d-4109-a0e9-44981c79961d"
          },
          {
            "reference": "urn:uuid:505e7c22-7329-4b6f-a094-6dcec3fa662f"
          },
          {
            "reference": "urn:uuid:ca56e984-c9df-4500-871f-8e9fb17c4a63"
          },
          {
            "reference": "urn:uuid:03bb3a3a-54b9-4648-b0be-0920f017a9b6"
          },
          {
            "reference": "urn:uuid:20a3ddcf-e58f-4abc-baf2-ad40c73892c7"
          },
          {
            "reference": "urn:uuid:eefa7bd9-31e1-4ffb-b20b-d846f061df96"
          },
          {
            "reference": "urn:uuid:a7f59f16-f4b6-4f42-bc44-c75e2a088cd7"
          }
        ],
        "status": "registered",
        "code": {
          "coding": [
            {
              "code": "11502-2",
              "system": "http://loinc.org",
              "display": "Laboratory report"
            }
          ]
        },
        "subject": {
          "reference": "urn:uuid:83b3c62c-87f5-42f4-ba04-99ec8dc6afa0",
          "display": "Marthe Gallet"
        }
      }
    },
    {
      "fullUrl": "urn:uuid:83b3c62c-87f5-42f4-ba04-99ec8dc6afa0",
      "resource": {
        "resourceType": "Patient",
        "id": "83b3c62c-87f5-42f4-ba04-99ec8dc6afa0",
        "meta": {
          "security": [
            {
              "system": "http://terminology.hl7.org/CodeSystem/v3-ActReason",
              "code": "HTEST"
            },
            {
              "system": "http://terminology.hl7.org/CodeSystem/v3-ActReason",
              "code": "TRAIN"
            }
          ],
          "tag": [
            {
              "system": "https://synderai.net/fhir/CodeSystem/tags",
              "code": "synthetic",
              "display": "SYNDERAI Synthetic data"
            }
          ],
          "profile": [
            "http://hl7.eu/fhir/base/StructureDefinition/patient-eu-core"
          ]
        },
        "identifier": [
          {
            "type": {
              "coding": [
                {
                  "code": "PT",
                  "system": "http://terminology.hl7.org/CodeSystem/v2-0203"
                }
              ]
            },
            "system": "http://ec.europa.eu/identifier/eci",
            "value": "9444-947487-6"
          },
          {
            "type": {
              "coding": [
                {
                  "code": "MR",
                  "system": "http://terminology.hl7.org/CodeSystem/v2-0203"
                }
              ]
            },
            "system": "http://local.setting.eu/identifier",
            "value": "854228d5-a476-2d9c-a1d7-c3202375a617"
          }
        ],
        "name": [
          {
            "family": "Gallet"
          },
          {
            "given": [
              "Marthe"
            ]
          },
          {
            "text": "Marthe Gallet"
          }
        ],
        "address": [
          {
            "line": [
              "3, rue Emmanuel Goncalves"
            ],
            "use": "home",
            "type": "physical",
            "postalCode": "49490",
            "city": "Briand",
            "country": "France"
          }
        ],
        "telecom": [
          {
            "system": "phone",
            "value": "+33 1 70 99 82 74"
          }
        ],
        "extension": [
          {
            "url": "http://hl7.org/fhir/StructureDefinition/patient-nationality",
            "valueCodeableConcept": {
              "coding": [
                {
                  "code": "FR",
                  "system": "http://hl7.org/fhir/ValueSet/country"
                }
              ]
            }
          }
        ],
        "text": {
          "status": "generated",
          "div": "<div xmlns=\"http://www.w3.org/1999/xhtml\"><table class=\"hl7__ips\"><tr><td>Marthe Gallet</td><td>female</td><td>29-Oct-1950</td></tr></table></div>"
        },
        "gender": "female",
        "birthDate": "1950-10-29"
      }
    },
    {
      "fullUrl": "urn:uuid:1c17cdd2-9603-4e3e-87ad-c36d6323a5e6",
      "resource": {
        "resourceType": "ServiceRequest",
        "id": "1c17cdd2-9603-4e3e-87ad-c36d6323a5e6",
        "meta": {
          "profile": [
            "http://hl7.eu/fhir/laboratory/StructureDefinition/ServiceRequest-eu-lab"
          ]
        },
        "identifier": [
          {
            "system": "http://example.org",
            "value": "c0e675f4-4a48-4bfd-817b-165fb63f8db8"
          }
        ],
        "specimen": [
          {
            "reference": "urn:uuid:fccd9a46-0124-463a-8112-78eba64d445a"
          },
          {
            "reference": "urn:uuid:06f48236-821b-421f-be64-f051fbf6b751"
          }
        ],
        "reasonCode": [
          {
            "coding": [
              {
                "code": "431856006",
                "system": "http://snomed.info/sct",
                "display": "Chronic kidney disease stage 2"
              }
            ]
          },
          {
            "coding": [
              {
                "code": "90781000119102",
                "system": "http://snomed.info/sct",
                "display": "Microalbuminuria due to type 2 diabetes mellitus"
              }
            ]
          },
          {
            "coding": [
              {
                "code": "127013003",
                "system": "http://snomed.info/sct",
                "display": "Disorder of kidney due to diabetes mellitus"
              }
            ]
          },
          {
            "coding": [
              {
                "code": "431855005",
                "system": "http://snomed.info/sct",
                "display": "Chronic kidney disease stage 1"
              }
            ]
          },
          {
            "coding": [
              {
                "code": "55822004",
                "system": "http://snomed.info/sct",
                "display": "Hyperlipidemia"
              }
            ]
          },
          {
            "coding": [
              {
                "code": "59621000",
                "system": "http://snomed.info/sct",
                "display": "Essential hypertension"
              }
            ]
          }
        ],
        "status": "active",
        "intent": "order",
        "code": {
          "coding": [
            {
              "code": "108252007",
              "system": "http://snomed.info/sct",
              "display": "Laboratory procedure"
            }
          ]
        },
        "subject": {
          "reference": "urn:uuid:83b3c62c-87f5-42f4-ba04-99ec8dc6afa0",
          "display": "Marthe Gallet"
        },
        "requester": {
          "reference": "urn:uuid:edb823ab-ebd9-49fa-8b7f-80d3e9c609b2"
        }
      }
    },
    {
      "fullUrl": "urn:uuid:edb823ab-ebd9-49fa-8b7f-80d3e9c609b2",
      "resource": {
        "resourceType": "PractitionerRole",
        "id": "edb823ab-ebd9-49fa-8b7f-80d3e9c609b2",
        "meta": {
          "profile": [
            "http://hl7.eu/fhir/base/StructureDefinition/practitionerRole-eu"
          ]
        },
        "text": {
          "status": "generated",
          "div": "<div xmlns=\"http://www.w3.org/1999/xhtml\">Provider Role Id: edb823ab-ebd9-49fa-8b7f-80d3e9c609b2</div>"
        },
        "organization": {
          "reference": "urn:uuid:68ffcea2-1fd5-4145-8948-1a25757d9a27"
        }
      }
    },
    {
      "fullUrl": "urn:uuid:68ffcea2-1fd5-4145-8948-1a25757d9a27",
      "resource": {
        "resourceType": "Organization",
        "id": "68ffcea2-1fd5-4145-8948-1a25757d9a27",
        "meta": {
          "profile": [
            "http://hl7.eu/fhir/base/StructureDefinition/organization-eu"
          ]
        },
        "identifier": [
          {
            "assigner": {
              "display": "HL7 Europe"
            },
            "system": "urn:oid:2.16.840.1.113883.2.51.999",
            "value": "46999594-4c52-4fe8-b024-9f42954d0735"
          }
        ],
        "address": [
          {
            "line": [
              "Rue Larrey nan"
            ],
            "city": "Angers",
            "postalCode": "49100",
            "country": "France"
          }
        ],
        "text": {
          "status": "generated",
          "div": "<div xmlns=\"http://www.w3.org/1999/xhtml\">Provider Organization: CHU d&#039;Angers</div>"
        },
        "name": "CHU d&#039;Angers"
      }
    },
    {
      "fullUrl": "urn:uuid:fccd9a46-0124-463a-8112-78eba64d445a",
      "resource": {
        "resourceType": "Specimen",
        "id": "fccd9a46-0124-463a-8112-78eba64d445a",
        "meta": {
          "profile": [
            "http://hl7.eu/fhir/laboratory/StructureDefinition/Specimen-eu-lab"
          ]
        },
        "collection": {
          "collectedDateTime": "2022-03-17"
        },
        "text": {
          "status": "generated",
          "div": "<div xmlns=\"http://www.w3.org/1999/xhtml\"><table class=\"hl7__eu__lab__report\"><tr><th>Specimen</th><th>Collection Date</th></tr><tr><td>Acellular blood (serum or plasma) specimen</td><td><span class=\"nb\">17-Mar-2022</span></td></tr></table></div>"
        },
        "type": {
          "coding": [
            {
              "code": "122592007",
              "system": "http://snomed.info/sct",
              "display": "Acellular blood (serum or plasma) specimen"
            }
          ]
        }
      }
    },
    {
      "fullUrl": "urn:uuid:06f48236-821b-421f-be64-f051fbf6b751",
      "resource": {
        "resourceType": "Specimen",
        "id": "06f48236-821b-421f-be64-f051fbf6b751",
        "meta": {
          "profile": [
            "http://hl7.eu/fhir/laboratory/StructureDefinition/Specimen-eu-lab"
          ]
        },
        "collection": {
          "collectedDateTime": "2022-03-17"
        },
        "text": {
          "status": "generated",
          "div": "<div xmlns=\"http://www.w3.org/1999/xhtml\"><table class=\"hl7__eu__lab__report\"><tr><th>Specimen</th><th>Collection Date</th></tr><tr><td>Urine specimen</td><td><span class=\"nb\">17-Mar-2022</span></td></tr></table></div>"
        },
        "type": {
          "coding": [
            {
              "code": "122575003",
              "system": "http://snomed.info/sct",
              "display": "Urine specimen"
            }
          ]
        }
      }
    },
    {
      "fullUrl": "urn:uuid:d36fc568-8ed5-40b5-a1fb-cf8e876d53ff",
      "resource": {
        "resourceType": "Observation",
        "id": "d36fc568-8ed5-40b5-a1fb-cf8e876d53ff",
        "meta": {
          "profile": [
            "http://hl7.eu/fhir/laboratory/StructureDefinition/Observation-resultslab-eu-lab"
          ]
        },
        "performer": [
          {
            "display": "The Central European Lab"
          }
        ],
        "category": [
          {
            "coding": [
              {
                "system": "http://terminology.hl7.org/CodeSystem/observation-category",
                "code": "laboratory"
              }
            ]
          }
        ],
        "code": {
          "coding": [
            {
              "code": "2345-7",
              "system": "http://loinc.org",
              "display": "Glucose [Mass/volume] in Serum or Plasma"
            }
          ],
          "text": "Glucose [Mass/volume] in Serum or Plasma"
        },
        "valueQuantity": {
          "system": "http://unitsofmeasure.org",
          "value": 97.7,
          "unit": "mg/dL",
          "code": "mg/dL"
        },
        "referenceRange": [
          {
            "low": {
              "value": 70,
              "code": "mg/dL",
              "system": "http://unitsofmeasure.org"
            }
          },
          {
            "high": {
              "value": 140,
              "code": "mg/dL",
              "system": "http://unitsofmeasure.org"
            }
          }
        ],
        "text": {
          "status": "generated",
          "div": "<div xmlns=\"http://www.w3.org/1999/xhtml\"><table class=\"hl7__eu__lab__report\"><tr><th>Test</th><th>17-Mar-2022</th><th>Reference&#xA0;Range</th><th>Unit</th></tr><tr><td>Glucose [Mass/volume] in Serum or Plasma</td><td>97.7</td><td>70 - 140</td><td></td><td>mg/dL</td></tr></table></div>"
        },
        "status": "final",
        "subject": {
          "reference": "urn:uuid:83b3c62c-87f5-42f4-ba04-99ec8dc6afa0",
          "display": "Marthe Gallet"
        },
        "effectiveDateTime": "2022-03-17T19:05:43Z",
        "specimen": {
          "reference": "urn:uuid:fccd9a46-0124-463a-8112-78eba64d445a"
        }
      }
    },
    {
      "fullUrl": "urn:uuid:4981b063-875c-45bb-b80e-e31e91e4e7c4",
      "resource": {
        "resourceType": "Observation",
        "id": "4981b063-875c-45bb-b80e-e31e91e4e7c4",
        "meta": {
          "profile": [
            "http://hl7.eu/fhir/laboratory/StructureDefinition/Observation-resultslab-eu-lab"
          ]
        },
        "performer": [
          {
            "display": "The Central European Lab"
          }
        ],
        "category": [
          {
            "coding": [
              {
                "system": "http://terminology.hl7.org/CodeSystem/observation-category",
                "code": "laboratory"
              }
            ]
          }
        ],
        "code": {
          "coding": [
            {
              "code": "3094-0",
              "system": "http://loinc.org",
              "display": "Urea nitrogen [Mass/volume] in Serum or Plasma"
            }
          ],
          "text": "Urea nitrogen [Mass/volume] in Serum or Plasma"
        },
        "valueQuantity": {
          "system": "http://unitsofmeasure.org",
          "value": 13.9,
          "unit": "mg/dL",
          "code": "mg/dL"
        },
        "referenceRange": [
          {
            "low": {
              "value": 7,
              "code": "mg/dL",
              "system": "http://unitsofmeasure.org"
            }
          },
          {
            "high": {
              "value": 50,
              "code": "mg/dL",
              "system": "http://unitsofmeasure.org"
            }
          }
        ],
        "text": {
          "status": "generated",
          "div": "<div xmlns=\"http://www.w3.org/1999/xhtml\"><table class=\"hl7__eu__lab__report\"><tr><th>Test</th><th>17-Mar-2022</th><th>Reference&#xA0;Range</th><th>Unit</th></tr><tr><td>Urea nitrogen [Mass/volume] in Serum or Plasma</td><td>13.9</td><td>7 - 50</td><td></td><td>mg/dL</td></tr></table></div>"
        },
        "status": "final",
        "subject": {
          "reference": "urn:uuid:83b3c62c-87f5-42f4-ba04-99ec8dc6afa0",
          "display": "Marthe Gallet"
        },
        "effectiveDateTime": "2022-03-17T19:05:43Z",
        "specimen": {
          "reference": "urn:uuid:fccd9a46-0124-463a-8112-78eba64d445a"
        }
      }
    },
    {
      "fullUrl": "urn:uuid:24d1c5ab-53a9-4c90-8976-464be8b401b5",
      "resource": {
        "resourceType": "Observation",
        "id": "24d1c5ab-53a9-4c90-8976-464be8b401b5",
        "meta": {
          "profile": [
            "http://hl7.eu/fhir/laboratory/StructureDefinition/Observation-resultslab-eu-lab"
          ]
        },
        "performer": [
          {
            "display": "The Central European Lab"
          }
        ],
        "category": [
          {
            "coding": [
              {
                "system": "http://terminology.hl7.org/CodeSystem/observation-category",
                "code": "laboratory"
              }
            ]
          }
        ],
        "code": {
          "coding": [
            {
              "code": "2160-0",
              "system": "http://loinc.org",
              "display": "Creatinine [Mass/volume] in Serum or Plasma"
            }
          ],
          "text": "Creatinine [Mass/volume] in Serum or Plasma"
        },
        "valueQuantity": {
          "system": "http://unitsofmeasure.org",
          "value": 1.9,
          "unit": "mg/dL",
          "code": "mg/dL"
        },
        "referenceRange": [
          {
            "low": {
              "value": 0.6,
              "code": "mg/dL",
              "system": "http://unitsofmeasure.org"
            }
          },
          {
            "high": {
              "value": 1.1,
              "code": "mg/dL",
              "system": "http://unitsofmeasure.org"
            }
          }
        ],
        "interpretation": [
          {
            "coding": [
              {
                "code": "H",
                "system": "http://terminology.hl7.org/CodeSystem/v3-ObservationInterpretation",
                "display": "High"
              }
            ]
          }
        ],
        "text": {
          "status": "generated",
          "div": "<div xmlns=\"http://www.w3.org/1999/xhtml\"><table class=\"hl7__eu__lab__report\"><tr><th>Test</th><th>17-Mar-2022</th><th>Reference&#xA0;Range</th><th>Unit</th></tr><tr><td>Creatinine [Mass/volume] in Serum or Plasma</td><td>1.9</td><td>0.6 - 1.1</td><td>H</td><td>mg/dL</td></tr></table></div>"
        },
        "status": "final",
        "subject": {
          "reference": "urn:uuid:83b3c62c-87f5-42f4-ba04-99ec8dc6afa0",
          "display": "Marthe Gallet"
        },
        "effectiveDateTime": "2022-03-17T19:05:43Z",
        "specimen": {
          "reference": "urn:uuid:fccd9a46-0124-463a-8112-78eba64d445a"
        }
      }
    },
    {
      "fullUrl": "urn:uuid:399369e9-7e38-4376-9f55-bca3b7623c74",
      "resource": {
        "resourceType": "Observation",
        "id": "399369e9-7e38-4376-9f55-bca3b7623c74",
        "meta": {
          "profile": [
            "http://hl7.eu/fhir/laboratory/StructureDefinition/Observation-resultslab-eu-lab"
          ]
        },
        "performer": [
          {
            "display": "The Central European Lab"
          }
        ],
        "category": [
          {
            "coding": [
              {
                "system": "http://terminology.hl7.org/CodeSystem/observation-category",
                "code": "laboratory"
              }
            ]
          }
        ],
        "code": {
          "coding": [
            {
              "code": "17861-6",
              "system": "http://loinc.org",
              "display": "Calcium [Mass/volume] in Serum or Plasma"
            }
          ],
          "text": "Calcium [Mass/volume] in Serum or Plasma"
        },
        "valueQuantity": {
          "system": "http://unitsofmeasure.org",
          "value": 9.7,
          "unit": "mg/dL",
          "code": "mg/dL"
        },
        "referenceRange": [
          {
            "low": {
              "value": 8.5,
              "code": "mg/dL",
              "system": "http://unitsofmeasure.org"
            }
          },
          {
            "high": {
              "value": 10.5,
              "code": "mg/dL",
              "system": "http://unitsofmeasure.org"
            }
          }
        ],
        "text": {
          "status": "generated",
          "div": "<div xmlns=\"http://www.w3.org/1999/xhtml\"><table class=\"hl7__eu__lab__report\"><tr><th>Test</th><th>17-Mar-2022</th><th>Reference&#xA0;Range</th><th>Unit</th></tr><tr><td>Calcium [Mass/volume] in Serum or Plasma</td><td>9.7</td><td>8.5 - 10.5</td><td></td><td>mg/dL</td></tr></table></div>"
        },
        "status": "final",
        "subject": {
          "reference": "urn:uuid:83b3c62c-87f5-42f4-ba04-99ec8dc6afa0",
          "display": "Marthe Gallet"
        },
        "effectiveDateTime": "2022-03-17T19:05:43Z",
        "specimen": {
          "reference": "urn:uuid:fccd9a46-0124-463a-8112-78eba64d445a"
        }
      }
    },
    {
      "fullUrl": "urn:uuid:dd37d9e1-4023-41e8-bf16-00e6e7be5414",
      "resource": {
        "resourceType": "Observation",
        "id": "dd37d9e1-4023-41e8-bf16-00e6e7be5414",
        "meta": {
          "profile": [
            "http://hl7.eu/fhir/laboratory/StructureDefinition/Observation-resultslab-eu-lab"
          ]
        },
        "performer": [
          {
            "display": "The Central European Lab"
          }
        ],
        "category": [
          {
            "coding": [
              {
                "system": "http://terminology.hl7.org/CodeSystem/observation-category",
                "code": "laboratory"
              }
            ]
          }
        ],
        "code": {
          "coding": [
            {
              "code": "2951-2",
              "system": "http://loinc.org",
              "display": "Sodium [Moles/volume] in Serum or Plasma"
            }
          ],
          "text": "Sodium [Moles/volume] in Serum or Plasma"
        },
        "valueQuantity": {
          "system": "http://unitsofmeasure.org",
          "value": 139.3,
          "unit": "mmol/L",
          "code": "mmol/L"
        },
        "referenceRange": [
          {
            "low": {
              "value": 135,
              "code": "mmol/L",
              "system": "http://unitsofmeasure.org"
            }
          },
          {
            "high": {
              "value": 145,
              "code": "mmol/L",
              "system": "http://unitsofmeasure.org"
            }
          }
        ],
        "text": {
          "status": "generated",
          "div": "<div xmlns=\"http://www.w3.org/1999/xhtml\"><table class=\"hl7__eu__lab__report\"><tr><th>Test</th><th>17-Mar-2022</th><th>Reference&#xA0;Range</th><th>Unit</th></tr><tr><td>Sodium [Moles/volume] in Serum or Plasma</td><td>139.3</td><td>135 - 145</td><td></td><td>mmol/L</td></tr></table></div>"
        },
        "status": "final",
        "subject": {
          "reference": "urn:uuid:83b3c62c-87f5-42f4-ba04-99ec8dc6afa0",
          "display": "Marthe Gallet"
        },
        "effectiveDateTime": "2022-03-17T19:05:43Z",
        "specimen": {
          "reference": "urn:uuid:fccd9a46-0124-463a-8112-78eba64d445a"
        }
      }
    },
    {
      "fullUrl": "urn:uuid:6de30cb8-2d8c-44fe-8a54-996fcd4a76dc",
      "resource": {
        "resourceType": "Observation",
        "id": "6de30cb8-2d8c-44fe-8a54-996fcd4a76dc",
        "meta": {
          "profile": [
            "http://hl7.eu/fhir/laboratory/StructureDefinition/Observation-resultslab-eu-lab"
          ]
        },
        "performer": [
          {
            "display": "The Central European Lab"
          }
        ],
        "category": [
          {
            "coding": [
              {
                "system": "http://terminology.hl7.org/CodeSystem/observation-category",
                "code": "laboratory"
              }
            ]
          }
        ],
        "code": {
          "coding": [
            {
              "code": "2823-3",
              "system": "http://loinc.org",
              "display": "Potassium [Moles/volume] in Serum or Plasma"
            }
          ],
          "text": "Potassium [Moles/volume] in Serum or Plasma"
        },
        "valueQuantity": {
          "system": "http://unitsofmeasure.org",
          "value": 4.7,
          "unit": "mmol/L",
          "code": "mmol/L"
        },
        "referenceRange": [
          {
            "low": {
              "value": 3.5,
              "code": "mmol/L",
              "system": "http://unitsofmeasure.org"
            }
          },
          {
            "high": {
              "value": 5.1,
              "code": "mmol/L",
              "system": "http://unitsofmeasure.org"
            }
          }
        ],
        "text": {
          "status": "generated",
          "div": "<div xmlns=\"http://www.w3.org/1999/xhtml\"><table class=\"hl7__eu__lab__report\"><tr><th>Test</th><th>17-Mar-2022</th><th>Reference&#xA0;Range</th><th>Unit</th></tr><tr><td>Potassium [Moles/volume] in Serum or Plasma</td><td>4.7</td><td>3.5 - 5.1</td><td></td><td>mmol/L</td></tr></table></div>"
        },
        "status": "final",
        "subject": {
          "reference": "urn:uuid:83b3c62c-87f5-42f4-ba04-99ec8dc6afa0",
          "display": "Marthe Gallet"
        },
        "effectiveDateTime": "2022-03-17T19:05:43Z",
        "specimen": {
          "reference": "urn:uuid:fccd9a46-0124-463a-8112-78eba64d445a"
        }
      }
    },
    {
      "fullUrl": "urn:uuid:7644b1a7-e72f-4ded-bf4c-8e6575d208d3",
      "resource": {
        "resourceType": "Observation",
        "id": "7644b1a7-e72f-4ded-bf4c-8e6575d208d3",
        "meta": {
          "profile": [
            "http://hl7.eu/fhir/laboratory/StructureDefinition/Observation-resultslab-eu-lab"
          ]
        },
        "performer": [
          {
            "display": "The Central European Lab"
          }
        ],
        "category": [
          {
            "coding": [
              {
                "system": "http://terminology.hl7.org/CodeSystem/observation-category",
                "code": "laboratory"
              }
            ]
          }
        ],
        "code": {
          "coding": [
            {
              "code": "2075-0",
              "system": "http://loinc.org",
              "display": "Chloride [Moles/volume] in Serum or Plasma"
            }
          ],
          "text": "Chloride [Moles/volume] in Serum or Plasma"
        },
        "valueQuantity": {
          "system": "http://unitsofmeasure.org",
          "value": 105.1,
          "unit": "mmol/L",
          "code": "mmol/L"
        },
        "referenceRange": [
          {
            "low": {
              "value": 98,
              "code": "mmol/L",
              "system": "http://unitsofmeasure.org"
            }
          },
          {
            "high": {
              "value": 108,
              "code": "mmol/L",
              "system": "http://unitsofmeasure.org"
            }
          }
        ],
        "text": {
          "status": "generated",
          "div": "<div xmlns=\"http://www.w3.org/1999/xhtml\"><table class=\"hl7__eu__lab__report\"><tr><th>Test</th><th>17-Mar-2022</th><th>Reference&#xA0;Range</th><th>Unit</th></tr><tr><td>Chloride [Moles/volume] in Serum or Plasma</td><td>105.1</td><td>98 - 108</td><td></td><td>mmol/L</td></tr></table></div>"
        },
        "status": "final",
        "subject": {
          "reference": "urn:uuid:83b3c62c-87f5-42f4-ba04-99ec8dc6afa0",
          "display": "Marthe Gallet"
        },
        "effectiveDateTime": "2022-03-17T19:05:43Z",
        "specimen": {
          "reference": "urn:uuid:fccd9a46-0124-463a-8112-78eba64d445a"
        }
      }
    },
    {
      "fullUrl": "urn:uuid:664bc2c5-5a19-47e9-be4b-dfd407210f91",
      "resource": {
        "resourceType": "Observation",
        "id": "664bc2c5-5a19-47e9-be4b-dfd407210f91",
        "meta": {
          "profile": [
            "http://hl7.eu/fhir/laboratory/StructureDefinition/Observation-resultslab-eu-lab"
          ]
        },
        "performer": [
          {
            "display": "The Central European Lab"
          }
        ],
        "category": [
          {
            "coding": [
              {
                "system": "http://terminology.hl7.org/CodeSystem/observation-category",
                "code": "laboratory"
              }
            ]
          }
        ],
        "code": {
          "coding": [
            {
              "code": "2028-9",
              "system": "http://loinc.org",
              "display": "Carbon dioxide, total [Moles/volume] in Serum or Plasma"
            }
          ],
          "text": "Carbon dioxide, total [Moles/volume] in Serum or Plasma"
        },
        "valueQuantity": {
          "system": "http://unitsofmeasure.org",
          "value": 25.8,
          "unit": "mmol/L",
          "code": "mmol/L"
        },
        "referenceRange": [
          {
            "low": {
              "value": 22,
              "code": "mmol/L",
              "system": "http://unitsofmeasure.org"
            }
          },
          {
            "high": {
              "value": 32,
              "code": "mmol/L",
              "system": "http://unitsofmeasure.org"
            }
          }
        ],
        "text": {
          "status": "generated",
          "div": "<div xmlns=\"http://www.w3.org/1999/xhtml\"><table class=\"hl7__eu__lab__report\"><tr><th>Test</th><th>17-Mar-2022</th><th>Reference&#xA0;Range</th><th>Unit</th></tr><tr><td>Carbon dioxide, total [Moles/volume] in Serum or Plasma</td><td>25.8</td><td>22 - 32</td><td></td><td>mmol/L</td></tr></table></div>"
        },
        "status": "final",
        "subject": {
          "reference": "urn:uuid:83b3c62c-87f5-42f4-ba04-99ec8dc6afa0",
          "display": "Marthe Gallet"
        },
        "effectiveDateTime": "2022-03-17T19:05:43Z",
        "specimen": {
          "reference": "urn:uuid:fccd9a46-0124-463a-8112-78eba64d445a"
        }
      }
    },
    {
      "fullUrl": "urn:uuid:13499f04-3a6d-4b22-9d29-5ad1909e75d8",
      "resource": {
        "resourceType": "Observation",
        "id": "13499f04-3a6d-4b22-9d29-5ad1909e75d8",
        "meta": {
          "profile": [
            "http://hl7.eu/fhir/laboratory/StructureDefinition/Observation-resultslab-eu-lab"
          ]
        },
        "performer": [
          {
            "display": "The Central European Lab"
          }
        ],
        "category": [
          {
            "coding": [
              {
                "system": "http://terminology.hl7.org/CodeSystem/observation-category",
                "code": "laboratory"
              }
            ]
          }
        ],
        "code": {
          "coding": [
            {
              "code": "5767-9",
              "system": "http://loinc.org",
              "display": "Appearance of Urine"
            }
          ],
          "text": "Appearance of Urine"
        },
        "text": {
          "status": "generated",
          "div": "<div xmlns=\"http://www.w3.org/1999/xhtml\"><table class=\"hl7__eu__lab__report\"><tr><th>Test</th><th>17-Mar-2022</th><th>Reference&#xA0;Range</th><th>Unit</th></tr><tr><td>Appearance of Urine</td></tr></table></div>"
        },
        "status": "final",
        "subject": {
          "reference": "urn:uuid:83b3c62c-87f5-42f4-ba04-99ec8dc6afa0",
          "display": "Marthe Gallet"
        },
        "effectiveDateTime": "2022-03-17T19:05:43Z",
        "specimen": {
          "reference": "urn:uuid:06f48236-821b-421f-be64-f051fbf6b751"
        }
      }
    },
    {
      "fullUrl": "urn:uuid:941c02b5-8657-4f55-908c-38fada02d661",
      "resource": {
        "resourceType": "Observation",
        "id": "941c02b5-8657-4f55-908c-38fada02d661",
        "meta": {
          "profile": [
            "http://hl7.eu/fhir/laboratory/StructureDefinition/Observation-resultslab-eu-lab"
          ]
        },
        "performer": [
          {
            "display": "The Central European Lab"
          }
        ],
        "category": [
          {
            "coding": [
              {
                "system": "http://terminology.hl7.org/CodeSystem/observation-category",
                "code": "laboratory"
              }
            ]
          }
        ],
        "code": {
          "coding": [
            {
              "code": "34533-0",
              "system": "http://loinc.org",
              "display": "Odor of Urine"
            }
          ],
          "text": "Odor of Urine"
        },
        "text": {
          "status": "generated",
          "div": "<div xmlns=\"http://www.w3.org/1999/xhtml\"><table class=\"hl7__eu__lab__report\"><tr><th>Test</th><th>17-Mar-2022</th><th>Reference&#xA0;Range</th><th>Unit</th></tr><tr><td>Odor of Urine</td></tr></table></div>"
        },
        "status": "final",
        "subject": {
          "reference": "urn:uuid:83b3c62c-87f5-42f4-ba04-99ec8dc6afa0",
          "display": "Marthe Gallet"
        },
        "effectiveDateTime": "2022-03-17T19:05:43Z",
        "specimen": {
          "reference": "urn:uuid:06f48236-821b-421f-be64-f051fbf6b751"
        }
      }
    },
    {
      "fullUrl": "urn:uuid:a20a6d45-f97b-47cb-b715-d6ce80489cdd",
      "resource": {
        "resourceType": "Observation",
        "id": "a20a6d45-f97b-47cb-b715-d6ce80489cdd",
        "meta": {
          "profile": [
            "http://hl7.eu/fhir/laboratory/StructureDefinition/Observation-resultslab-eu-lab"
          ]
        },
        "performer": [
          {
            "display": "The Central European Lab"
          }
        ],
        "category": [
          {
            "coding": [
              {
                "system": "http://terminology.hl7.org/CodeSystem/observation-category",
                "code": "laboratory"
              }
            ]
          }
        ],
        "code": {
          "coding": [
            {
              "code": "32167-9",
              "system": "http://loinc.org",
              "display": "Clarity of Urine"
            }
          ],
          "text": "Clarity of Urine"
        },
        "text": {
          "status": "generated",
          "div": "<div xmlns=\"http://www.w3.org/1999/xhtml\"><table class=\"hl7__eu__lab__report\"><tr><th>Test</th><th>17-Mar-2022</th><th>Reference&#xA0;Range</th><th>Unit</th></tr><tr><td>Clarity of Urine</td></tr></table></div>"
        },
        "status": "final",
        "subject": {
          "reference": "urn:uuid:83b3c62c-87f5-42f4-ba04-99ec8dc6afa0",
          "display": "Marthe Gallet"
        },
        "effectiveDateTime": "2022-03-17T19:05:43Z",
        "specimen": {
          "reference": "urn:uuid:06f48236-821b-421f-be64-f051fbf6b751"
        }
      }
    },
    {
      "fullUrl": "urn:uuid:897c4a2a-a6f8-4d86-af24-383faee229de",
      "resource": {
        "resourceType": "Observation",
        "id": "897c4a2a-a6f8-4d86-af24-383faee229de",
        "meta": {
          "profile": [
            "http://hl7.eu/fhir/laboratory/StructureDefinition/Observation-resultslab-eu-lab"
          ]
        },
        "performer": [
          {
            "display": "The Central European Lab"
          }
        ],
        "category": [
          {
            "coding": [
              {
                "system": "http://terminology.hl7.org/CodeSystem/observation-category",
                "code": "laboratory"
              }
            ]
          }
        ],
        "code": {
          "coding": [
            {
              "code": "5778-6",
              "system": "http://loinc.org",
              "display": "Color of Urine"
            }
          ],
          "text": "Color of Urine"
        },
        "text": {
          "status": "generated",
          "div": "<div xmlns=\"http://www.w3.org/1999/xhtml\"><table class=\"hl7__eu__lab__report\"><tr><th>Test</th><th>17-Mar-2022</th><th>Reference&#xA0;Range</th><th>Unit</th></tr><tr><td>Color of Urine</td></tr></table></div>"
        },
        "status": "final",
        "subject": {
          "reference": "urn:uuid:83b3c62c-87f5-42f4-ba04-99ec8dc6afa0",
          "display": "Marthe Gallet"
        },
        "effectiveDateTime": "2022-03-17T19:05:43Z",
        "specimen": {
          "reference": "urn:uuid:06f48236-821b-421f-be64-f051fbf6b751"
        }
      }
    },
    {
      "fullUrl": "urn:uuid:834dfb47-f44e-4a81-86cc-5b95d90b55d0",
      "resource": {
        "resourceType": "Observation",
        "id": "834dfb47-f44e-4a81-86cc-5b95d90b55d0",
        "meta": {
          "profile": [
            "http://hl7.eu/fhir/laboratory/StructureDefinition/Observation-resultslab-eu-lab"
          ]
        },
        "performer": [
          {
            "display": "The Central European Lab"
          }
        ],
        "category": [
          {
            "coding": [
              {
                "system": "http://terminology.hl7.org/CodeSystem/observation-category",
                "code": "laboratory"
              }
            ]
          }
        ],
        "code": {
          "coding": [
            {
              "code": "5792-7",
              "system": "http://loinc.org",
              "display": "Glucose [Mass/volume] in Urine by Test strip"
            }
          ],
          "text": "Glucose [Mass/volume] in Urine by Test strip"
        },
        "valueQuantity": {
          "system": "http://unitsofmeasure.org",
          "value": 2.4,
          "unit": "mg/dL",
          "code": "mg/dL"
        },
        "referenceRange": [
          {
            "low": {
              "value": 0.8,
              "code": "mg/dL",
              "system": "http://unitsofmeasure.org"
            }
          },
          {
            "high": {
              "value": 0,
              "code": "mg/dL",
              "system": "http://unitsofmeasure.org"
            }
          }
        ],
        "interpretation": [
          {
            "coding": [
              {
                "code": "H",
                "system": "http://terminology.hl7.org/CodeSystem/v3-ObservationInterpretation",
                "display": "High"
              }
            ]
          }
        ],
        "text": {
          "status": "generated",
          "div": "<div xmlns=\"http://www.w3.org/1999/xhtml\"><table class=\"hl7__eu__lab__report\"><tr><th>Test</th><th>17-Mar-2022</th><th>Reference&#xA0;Range</th><th>Unit</th></tr><tr><td>Glucose [Mass/volume] in Urine by Test strip</td><td>2.4</td><td>0.8 - 0</td><td>H</td><td>mg/dL</td></tr></table></div>"
        },
        "status": "final",
        "subject": {
          "reference": "urn:uuid:83b3c62c-87f5-42f4-ba04-99ec8dc6afa0",
          "display": "Marthe Gallet"
        },
        "effectiveDateTime": "2022-03-17T19:05:43Z",
        "specimen": {
          "reference": "urn:uuid:06f48236-821b-421f-be64-f051fbf6b751"
        }
      }
    },
    {
      "fullUrl": "urn:uuid:fff482e2-9fd2-43aa-9740-51c4d2d521da",
      "resource": {
        "resourceType": "Observation",
        "id": "fff482e2-9fd2-43aa-9740-51c4d2d521da",
        "meta": {
          "profile": [
            "http://hl7.eu/fhir/laboratory/StructureDefinition/Observation-resultslab-eu-lab"
          ]
        },
        "performer": [
          {
            "display": "The Central European Lab"
          }
        ],
        "category": [
          {
            "coding": [
              {
                "system": "http://terminology.hl7.org/CodeSystem/observation-category",
                "code": "laboratory"
              }
            ]
          }
        ],
        "code": {
          "coding": [
            {
              "code": "25428-4",
              "system": "http://loinc.org",
              "display": "Glucose [Presence] in Urine by Test strip"
            }
          ],
          "text": "Glucose [Presence] in Urine by Test strip"
        },
        "text": {
          "status": "generated",
          "div": "<div xmlns=\"http://www.w3.org/1999/xhtml\"><table class=\"hl7__eu__lab__report\"><tr><th>Test</th><th>17-Mar-2022</th><th>Reference&#xA0;Range</th><th>Unit</th></tr><tr><td>Glucose [Presence] in Urine by Test strip</td></tr></table></div>"
        },
        "status": "final",
        "subject": {
          "reference": "urn:uuid:83b3c62c-87f5-42f4-ba04-99ec8dc6afa0",
          "display": "Marthe Gallet"
        },
        "effectiveDateTime": "2022-03-17T19:05:43Z",
        "specimen": {
          "reference": "urn:uuid:06f48236-821b-421f-be64-f051fbf6b751"
        }
      }
    },
    {
      "fullUrl": "urn:uuid:1a10d0e5-0e71-4c84-9912-36563a4cd1a2",
      "resource": {
        "resourceType": "Observation",
        "id": "1a10d0e5-0e71-4c84-9912-36563a4cd1a2",
        "meta": {
          "profile": [
            "http://hl7.eu/fhir/laboratory/StructureDefinition/Observation-resultslab-eu-lab"
          ]
        },
        "performer": [
          {
            "display": "The Central European Lab"
          }
        ],
        "category": [
          {
            "coding": [
              {
                "system": "http://terminology.hl7.org/CodeSystem/observation-category",
                "code": "laboratory"
              }
            ]
          }
        ],
        "code": {
          "coding": [
            {
              "code": "20505-4",
              "system": "http://loinc.org",
              "display": "Bilirubin.total [Mass/volume] in Urine by Test strip"
            }
          ],
          "text": "Bilirubin.total [Mass/volume] in Urine by Test strip"
        },
        "valueQuantity": {
          "system": "http://unitsofmeasure.org",
          "value": 0.9,
          "unit": "mg/dL",
          "code": "mg/dL"
        },
        "referenceRange": [
          {
            "low": {
              "value": 0,
              "code": "mg/dL",
              "system": "http://unitsofmeasure.org"
            }
          },
          {
            "high": {
              "value": 1,
              "code": "mg/dL",
              "system": "http://unitsofmeasure.org"
            }
          }
        ],
        "text": {
          "status": "generated",
          "div": "<div xmlns=\"http://www.w3.org/1999/xhtml\"><table class=\"hl7__eu__lab__report\"><tr><th>Test</th><th>17-Mar-2022</th><th>Reference&#xA0;Range</th><th>Unit</th></tr><tr><td>Bilirubin.total [Mass/volume] in Urine by Test strip</td><td>0.9</td><td>0 - 1</td><td></td><td>mg/dL</td></tr></table></div>"
        },
        "status": "final",
        "subject": {
          "reference": "urn:uuid:83b3c62c-87f5-42f4-ba04-99ec8dc6afa0",
          "display": "Marthe Gallet"
        },
        "effectiveDateTime": "2022-03-17T19:05:43Z",
        "specimen": {
          "reference": "urn:uuid:06f48236-821b-421f-be64-f051fbf6b751"
        }
      }
    },
    {
      "fullUrl": "urn:uuid:b8174b6c-d7cb-437a-b9ac-a207be6e0b1f",
      "resource": {
        "resourceType": "Observation",
        "id": "b8174b6c-d7cb-437a-b9ac-a207be6e0b1f",
        "meta": {
          "profile": [
            "http://hl7.eu/fhir/laboratory/StructureDefinition/Observation-resultslab-eu-lab"
          ]
        },
        "performer": [
          {
            "display": "The Central European Lab"
          }
        ],
        "category": [
          {
            "coding": [
              {
                "system": "http://terminology.hl7.org/CodeSystem/observation-category",
                "code": "laboratory"
              }
            ]
          }
        ],
        "code": {
          "coding": [
            {
              "code": "5770-3",
              "system": "http://loinc.org",
              "display": "Bilirubin.total [Presence] in Urine by Test strip"
            }
          ],
          "text": "Bilirubin.total [Presence] in Urine by Test strip"
        },
        "text": {
          "status": "generated",
          "div": "<div xmlns=\"http://www.w3.org/1999/xhtml\"><table class=\"hl7__eu__lab__report\"><tr><th>Test</th><th>17-Mar-2022</th><th>Reference&#xA0;Range</th><th>Unit</th></tr><tr><td>Bilirubin.total [Presence] in Urine by Test strip</td></tr></table></div>"
        },
        "status": "final",
        "subject": {
          "reference": "urn:uuid:83b3c62c-87f5-42f4-ba04-99ec8dc6afa0",
          "display": "Marthe Gallet"
        },
        "effectiveDateTime": "2022-03-17T19:05:43Z",
        "specimen": {
          "reference": "urn:uuid:06f48236-821b-421f-be64-f051fbf6b751"
        }
      }
    },
    {
      "fullUrl": "urn:uuid:79ad07b9-1779-4515-8be4-682ec40f93b3",
      "resource": {
        "resourceType": "Observation",
        "id": "79ad07b9-1779-4515-8be4-682ec40f93b3",
        "meta": {
          "profile": [
            "http://hl7.eu/fhir/laboratory/StructureDefinition/Observation-resultslab-eu-lab"
          ]
        },
        "performer": [
          {
            "display": "The Central European Lab"
          }
        ],
        "category": [
          {
            "coding": [
              {
                "system": "http://terminology.hl7.org/CodeSystem/observation-category",
                "code": "laboratory"
              }
            ]
          }
        ],
        "code": {
          "coding": [
            {
              "code": "5797-6",
              "system": "http://loinc.org",
              "display": "Ketones [Mass/volume] in Urine by Test strip"
            }
          ],
          "text": "Ketones [Mass/volume] in Urine by Test strip"
        },
        "valueQuantity": {
          "system": "http://unitsofmeasure.org",
          "value": 18.3,
          "unit": "mg/dL",
          "code": "mg/dL"
        },
        "referenceRange": [
          {
            "low": {
              "value": 0,
              "code": "mg/dL",
              "system": "http://unitsofmeasure.org"
            }
          },
          {
            "high": {
              "value": 20,
              "code": "mg/dL",
              "system": "http://unitsofmeasure.org"
            }
          }
        ],
        "text": {
          "status": "generated",
          "div": "<div xmlns=\"http://www.w3.org/1999/xhtml\"><table class=\"hl7__eu__lab__report\"><tr><th>Test</th><th>17-Mar-2022</th><th>Reference&#xA0;Range</th><th>Unit</th></tr><tr><td>Ketones [Mass/volume] in Urine by Test strip</td><td>18.3</td><td>0 - 20</td><td></td><td>mg/dL</td></tr></table></div>"
        },
        "status": "final",
        "subject": {
          "reference": "urn:uuid:83b3c62c-87f5-42f4-ba04-99ec8dc6afa0",
          "display": "Marthe Gallet"
        },
        "effectiveDateTime": "2022-03-17T19:05:43Z",
        "specimen": {
          "reference": "urn:uuid:06f48236-821b-421f-be64-f051fbf6b751"
        }
      }
    },
    {
      "fullUrl": "urn:uuid:e730033b-11d5-48c1-9347-606244abce5c",
      "resource": {
        "resourceType": "Observation",
        "id": "e730033b-11d5-48c1-9347-606244abce5c",
        "meta": {
          "profile": [
            "http://hl7.eu/fhir/laboratory/StructureDefinition/Observation-resultslab-eu-lab"
          ]
        },
        "performer": [
          {
            "display": "The Central European Lab"
          }
        ],
        "category": [
          {
            "coding": [
              {
                "system": "http://terminology.hl7.org/CodeSystem/observation-category",
                "code": "laboratory"
              }
            ]
          }
        ],
        "code": {
          "coding": [
            {
              "code": "2514-8",
              "system": "http://loinc.org",
              "display": "Ketones [Presence] in Urine by Test strip"
            }
          ],
          "text": "Ketones [Presence] in Urine by Test strip"
        },
        "text": {
          "status": "generated",
          "div": "<div xmlns=\"http://www.w3.org/1999/xhtml\"><table class=\"hl7__eu__lab__report\"><tr><th>Test</th><th>17-Mar-2022</th><th>Reference&#xA0;Range</th><th>Unit</th></tr><tr><td>Ketones [Presence] in Urine by Test strip</td></tr></table></div>"
        },
        "status": "final",
        "subject": {
          "reference": "urn:uuid:83b3c62c-87f5-42f4-ba04-99ec8dc6afa0",
          "display": "Marthe Gallet"
        },
        "effectiveDateTime": "2022-03-17T19:05:43Z",
        "specimen": {
          "reference": "urn:uuid:06f48236-821b-421f-be64-f051fbf6b751"
        }
      }
    },
    {
      "fullUrl": "urn:uuid:563a90a1-3804-49eb-95e2-9bf9cab8d459",
      "resource": {
        "resourceType": "Observation",
        "id": "563a90a1-3804-49eb-95e2-9bf9cab8d459",
        "meta": {
          "profile": [
            "http://hl7.eu/fhir/laboratory/StructureDefinition/Observation-resultslab-eu-lab"
          ]
        },
        "performer": [
          {
            "display": "The Central European Lab"
          }
        ],
        "category": [
          {
            "coding": [
              {
                "system": "http://terminology.hl7.org/CodeSystem/observation-category",
                "code": "laboratory"
              }
            ]
          }
        ],
        "code": {
          "coding": [
            {
              "code": "5811-5",
              "system": "http://loinc.org",
              "display": "Specific gravity of Urine by Test strip"
            }
          ],
          "text": "Specific gravity of Urine by Test strip"
        },
        "valueQuantity": {
          "system": "http://unitsofmeasure.org",
          "value": 1,
          "unit": "{nominal}",
          "code": "{nominal}"
        },
        "referenceRange": [
          {
            "low": {
              "value": 1.01,
              "code": "g/mL",
              "system": "http://unitsofmeasure.org"
            }
          },
          {
            "high": {
              "value": 1.03,
              "code": "g/mL",
              "system": "http://unitsofmeasure.org"
            }
          }
        ],
        "interpretation": [
          {
            "coding": [
              {
                "code": "L",
                "system": "http://terminology.hl7.org/CodeSystem/v3-ObservationInterpretation",
                "display": "Low"
              }
            ]
          }
        ],
        "text": {
          "status": "generated",
          "div": "<div xmlns=\"http://www.w3.org/1999/xhtml\"><table class=\"hl7__eu__lab__report\"><tr><th>Test</th><th>17-Mar-2022</th><th>Reference&#xA0;Range</th><th>Unit</th></tr><tr><td>Specific gravity of Urine by Test strip</td><td>1.0</td><td>1.01 - 1.03</td><td>L</td><td>{nominal}</td></tr></table></div>"
        },
        "status": "final",
        "subject": {
          "reference": "urn:uuid:83b3c62c-87f5-42f4-ba04-99ec8dc6afa0",
          "display": "Marthe Gallet"
        },
        "effectiveDateTime": "2022-03-17T19:05:43Z",
        "specimen": {
          "reference": "urn:uuid:06f48236-821b-421f-be64-f051fbf6b751"
        }
      }
    },
    {
      "fullUrl": "urn:uuid:822fe807-2ea8-4879-8483-b7a05f227485",
      "resource": {
        "resourceType": "Observation",
        "id": "822fe807-2ea8-4879-8483-b7a05f227485",
        "meta": {
          "profile": [
            "http://hl7.eu/fhir/laboratory/StructureDefinition/Observation-resultslab-eu-lab"
          ]
        },
        "performer": [
          {
            "display": "The Central European Lab"
          }
        ],
        "category": [
          {
            "coding": [
              {
                "system": "http://terminology.hl7.org/CodeSystem/observation-category",
                "code": "laboratory"
              }
            ]
          }
        ],
        "code": {
          "coding": [
            {
              "code": "5803-2",
              "system": "http://loinc.org",
              "display": "pH of Urine by Test strip"
            }
          ],
          "text": "pH of Urine by Test strip"
        },
        "valueQuantity": {
          "system": "http://unitsofmeasure.org",
          "value": 6.6,
          "unit": "pH",
          "code": "pH"
        },
        "referenceRange": [
          {
            "low": {
              "value": 4.6,
              "code": "pH",
              "system": "http://unitsofmeasure.org"
            }
          },
          {
            "high": {
              "value": 7,
              "code": "pH",
              "system": "http://unitsofmeasure.org"
            }
          }
        ],
        "text": {
          "status": "generated",
          "div": "<div xmlns=\"http://www.w3.org/1999/xhtml\"><table class=\"hl7__eu__lab__report\"><tr><th>Test</th><th>17-Mar-2022</th><th>Reference&#xA0;Range</th><th>Unit</th></tr><tr><td>pH of Urine by Test strip</td><td>6.6</td><td>4.6 - 7</td><td></td><td>pH</td></tr></table></div>"
        },
        "status": "final",
        "subject": {
          "reference": "urn:uuid:83b3c62c-87f5-42f4-ba04-99ec8dc6afa0",
          "display": "Marthe Gallet"
        },
        "effectiveDateTime": "2022-03-17T19:05:43Z",
        "specimen": {
          "reference": "urn:uuid:06f48236-821b-421f-be64-f051fbf6b751"
        }
      }
    },
    {
      "fullUrl": "urn:uuid:d2b42605-045a-46a1-8214-5a4f6e94edfb",
      "resource": {
        "resourceType": "Observation",
        "id": "d2b42605-045a-46a1-8214-5a4f6e94edfb",
        "meta": {
          "profile": [
            "http://hl7.eu/fhir/laboratory/StructureDefinition/Observation-resultslab-eu-lab"
          ]
        },
        "performer": [
          {
            "display": "The Central European Lab"
          }
        ],
        "category": [
          {
            "coding": [
              {
                "system": "http://terminology.hl7.org/CodeSystem/observation-category",
                "code": "laboratory"
              }
            ]
          }
        ],
        "code": {
          "coding": [
            {
              "code": "5804-0",
              "system": "http://loinc.org",
              "display": "Protein [Mass/volume] in Urine by Test strip"
            }
          ],
          "text": "Protein [Mass/volume] in Urine by Test strip"
        },
        "valueQuantity": {
          "system": "http://unitsofmeasure.org",
          "value": 157.5,
          "unit": "mg/dL",
          "code": "mg/dL"
        },
        "referenceRange": [
          {
            "low": {
              "value": 0,
              "code": "mg/dL",
              "system": "http://unitsofmeasure.org"
            }
          },
          {
            "high": {
              "value": 15,
              "code": "mg/dL",
              "system": "http://unitsofmeasure.org"
            }
          }
        ],
        "interpretation": [
          {
            "coding": [
              {
                "code": "H",
                "system": "http://terminology.hl7.org/CodeSystem/v3-ObservationInterpretation",
                "display": "High"
              }
            ]
          }
        ],
        "text": {
          "status": "generated",
          "div": "<div xmlns=\"http://www.w3.org/1999/xhtml\"><table class=\"hl7__eu__lab__report\"><tr><th>Test</th><th>17-Mar-2022</th><th>Reference&#xA0;Range</th><th>Unit</th></tr><tr><td>Protein [Mass/volume] in Urine by Test strip</td><td>157.5</td><td>0 - 15</td><td>H</td><td>mg/dL</td></tr></table></div>"
        },
        "status": "final",
        "subject": {
          "reference": "urn:uuid:83b3c62c-87f5-42f4-ba04-99ec8dc6afa0",
          "display": "Marthe Gallet"
        },
        "effectiveDateTime": "2022-03-17T19:05:43Z",
        "specimen": {
          "reference": "urn:uuid:06f48236-821b-421f-be64-f051fbf6b751"
        }
      }
    },
    {
      "fullUrl": "urn:uuid:30acfa51-e470-4d6f-95be-6ee32d82440c",
      "resource": {
        "resourceType": "Observation",
        "id": "30acfa51-e470-4d6f-95be-6ee32d82440c",
        "meta": {
          "profile": [
            "http://hl7.eu/fhir/laboratory/StructureDefinition/Observation-resultslab-eu-lab"
          ]
        },
        "performer": [
          {
            "display": "The Central European Lab"
          }
        ],
        "category": [
          {
            "coding": [
              {
                "system": "http://terminology.hl7.org/CodeSystem/observation-category",
                "code": "laboratory"
              }
            ]
          }
        ],
        "code": {
          "coding": [
            {
              "code": "20454-5",
              "system": "http://loinc.org",
              "display": "Protein [Presence] in Urine by Test strip"
            }
          ],
          "text": "Protein [Presence] in Urine by Test strip"
        },
        "text": {
          "status": "generated",
          "div": "<div xmlns=\"http://www.w3.org/1999/xhtml\"><table class=\"hl7__eu__lab__report\"><tr><th>Test</th><th>17-Mar-2022</th><th>Reference&#xA0;Range</th><th>Unit</th></tr><tr><td>Protein [Presence] in Urine by Test strip</td></tr></table></div>"
        },
        "status": "final",
        "subject": {
          "reference": "urn:uuid:83b3c62c-87f5-42f4-ba04-99ec8dc6afa0",
          "display": "Marthe Gallet"
        },
        "effectiveDateTime": "2022-03-17T19:05:43Z",
        "specimen": {
          "reference": "urn:uuid:06f48236-821b-421f-be64-f051fbf6b751"
        }
      }
    },
    {
      "fullUrl": "urn:uuid:dd78a4c4-e56d-4109-a0e9-44981c79961d",
      "resource": {
        "resourceType": "Observation",
        "id": "dd78a4c4-e56d-4109-a0e9-44981c79961d",
        "meta": {
          "profile": [
            "http://hl7.eu/fhir/laboratory/StructureDefinition/Observation-resultslab-eu-lab"
          ]
        },
        "performer": [
          {
            "display": "The Central European Lab"
          }
        ],
        "category": [
          {
            "coding": [
              {
                "system": "http://terminology.hl7.org/CodeSystem/observation-category",
                "code": "laboratory"
              }
            ]
          }
        ],
        "code": {
          "coding": [
            {
              "code": "5802-4",
              "system": "http://loinc.org",
              "display": "Nitrite [Presence] in Urine by Test strip"
            }
          ],
          "text": "Nitrite [Presence] in Urine by Test strip"
        },
        "text": {
          "status": "generated",
          "div": "<div xmlns=\"http://www.w3.org/1999/xhtml\"><table class=\"hl7__eu__lab__report\"><tr><th>Test</th><th>17-Mar-2022</th><th>Reference&#xA0;Range</th><th>Unit</th></tr><tr><td>Nitrite [Presence] in Urine by Test strip</td></tr></table></div>"
        },
        "status": "final",
        "subject": {
          "reference": "urn:uuid:83b3c62c-87f5-42f4-ba04-99ec8dc6afa0",
          "display": "Marthe Gallet"
        },
        "effectiveDateTime": "2022-03-17T19:05:43Z",
        "specimen": {
          "reference": "urn:uuid:06f48236-821b-421f-be64-f051fbf6b751"
        }
      }
    },
    {
      "fullUrl": "urn:uuid:505e7c22-7329-4b6f-a094-6dcec3fa662f",
      "resource": {
        "resourceType": "Observation",
        "id": "505e7c22-7329-4b6f-a094-6dcec3fa662f",
        "meta": {
          "profile": [
            "http://hl7.eu/fhir/laboratory/StructureDefinition/Observation-resultslab-eu-lab"
          ]
        },
        "performer": [
          {
            "display": "The Central European Lab"
          }
        ],
        "category": [
          {
            "coding": [
              {
                "system": "http://terminology.hl7.org/CodeSystem/observation-category",
                "code": "laboratory"
              }
            ]
          }
        ],
        "code": {
          "coding": [
            {
              "code": "5794-3",
              "system": "http://loinc.org",
              "display": "Hemoglobin [Presence] in Urine by Test strip"
            }
          ],
          "text": "Hemoglobin [Presence] in Urine by Test strip"
        },
        "text": {
          "status": "generated",
          "div": "<div xmlns=\"http://www.w3.org/1999/xhtml\"><table class=\"hl7__eu__lab__report\"><tr><th>Test</th><th>17-Mar-2022</th><th>Reference&#xA0;Range</th><th>Unit</th></tr><tr><td>Hemoglobin [Presence] in Urine by Test strip</td></tr></table></div>"
        },
        "status": "final",
        "subject": {
          "reference": "urn:uuid:83b3c62c-87f5-42f4-ba04-99ec8dc6afa0",
          "display": "Marthe Gallet"
        },
        "effectiveDateTime": "2022-03-17T19:05:43Z",
        "specimen": {
          "reference": "urn:uuid:06f48236-821b-421f-be64-f051fbf6b751"
        }
      }
    },
    {
      "fullUrl": "urn:uuid:ca56e984-c9df-4500-871f-8e9fb17c4a63",
      "resource": {
        "resourceType": "Observation",
        "id": "ca56e984-c9df-4500-871f-8e9fb17c4a63",
        "meta": {
          "profile": [
            "http://hl7.eu/fhir/laboratory/StructureDefinition/Observation-resultslab-eu-lab"
          ]
        },
        "performer": [
          {
            "display": "The Central European Lab"
          }
        ],
        "category": [
          {
            "coding": [
              {
                "system": "http://terminology.hl7.org/CodeSystem/observation-category",
                "code": "laboratory"
              }
            ]
          }
        ],
        "code": {
          "coding": [
            {
              "code": "5799-2",
              "system": "http://loinc.org",
              "display": "Leukocyte esterase [Presence] in Urine by Test strip"
            }
          ],
          "text": "Leukocyte esterase [Presence] in Urine by Test strip"
        },
        "text": {
          "status": "generated",
          "div": "<div xmlns=\"http://www.w3.org/1999/xhtml\"><table class=\"hl7__eu__lab__report\"><tr><th>Test</th><th>17-Mar-2022</th><th>Reference&#xA0;Range</th><th>Unit</th></tr><tr><td>Leukocyte esterase [Presence] in Urine by Test strip</td></tr></table></div>"
        },
        "status": "final",
        "subject": {
          "reference": "urn:uuid:83b3c62c-87f5-42f4-ba04-99ec8dc6afa0",
          "display": "Marthe Gallet"
        },
        "effectiveDateTime": "2022-03-17T19:05:43Z",
        "specimen": {
          "reference": "urn:uuid:06f48236-821b-421f-be64-f051fbf6b751"
        }
      }
    },
    {
      "fullUrl": "urn:uuid:03bb3a3a-54b9-4648-b0be-0920f017a9b6",
      "resource": {
        "resourceType": "Observation",
        "id": "03bb3a3a-54b9-4648-b0be-0920f017a9b6",
        "meta": {
          "profile": [
            "http://hl7.eu/fhir/laboratory/StructureDefinition/Observation-resultslab-eu-lab"
          ]
        },
        "performer": [
          {
            "display": "The Central European Lab"
          }
        ],
        "category": [
          {
            "coding": [
              {
                "system": "http://terminology.hl7.org/CodeSystem/observation-category",
                "code": "laboratory"
              }
            ]
          }
        ],
        "code": {
          "coding": [
            {
              "code": "2093-3",
              "system": "http://loinc.org",
              "display": "Cholesterol [Mass/volume] in Serum or Plasma"
            }
          ],
          "text": "Cholesterol [Mass/volume] in Serum or Plasma"
        },
        "valueQuantity": {
          "system": "http://unitsofmeasure.org",
          "value": 166.6,
          "unit": "mg/dL",
          "code": "mg/dL"
        },
        "referenceRange": [
          {
            "low": {
              "value": 125,
              "code": "mg/dL",
              "system": "http://unitsofmeasure.org"
            }
          },
          {
            "high": {
              "value": 200,
              "code": "mg/dL",
              "system": "http://unitsofmeasure.org"
            }
          }
        ],
        "text": {
          "status": "generated",
          "div": "<div xmlns=\"http://www.w3.org/1999/xhtml\"><table class=\"hl7__eu__lab__report\"><tr><th>Test</th><th>17-Mar-2022</th><th>Reference&#xA0;Range</th><th>Unit</th></tr><tr><td>Cholesterol [Mass/volume] in Serum or Plasma</td><td>166.6</td><td>125 - 200</td><td></td><td>mg/dL</td></tr></table></div>"
        },
        "status": "final",
        "subject": {
          "reference": "urn:uuid:83b3c62c-87f5-42f4-ba04-99ec8dc6afa0",
          "display": "Marthe Gallet"
        },
        "effectiveDateTime": "2022-03-17T19:05:43Z",
        "specimen": {
          "reference": "urn:uuid:fccd9a46-0124-463a-8112-78eba64d445a"
        }
      }
    },
    {
      "fullUrl": "urn:uuid:20a3ddcf-e58f-4abc-baf2-ad40c73892c7",
      "resource": {
        "resourceType": "Observation",
        "id": "20a3ddcf-e58f-4abc-baf2-ad40c73892c7",
        "meta": {
          "profile": [
            "http://hl7.eu/fhir/laboratory/StructureDefinition/Observation-resultslab-eu-lab"
          ]
        },
        "performer": [
          {
            "display": "The Central European Lab"
          }
        ],
        "category": [
          {
            "coding": [
              {
                "system": "http://terminology.hl7.org/CodeSystem/observation-category",
                "code": "laboratory"
              }
            ]
          }
        ],
        "code": {
          "coding": [
            {
              "code": "2571-8",
              "system": "http://loinc.org",
              "display": "Triglyceride [Mass/volume] in Serum or Plasma"
            }
          ],
          "text": "Triglyceride [Mass/volume] in Serum or Plasma"
        },
        "valueQuantity": {
          "system": "http://unitsofmeasure.org",
          "value": 103.4,
          "unit": "mg/dL",
          "code": "mg/dL"
        },
        "referenceRange": [
          {
            "low": {
              "value": 10,
              "code": "mg/dL",
              "system": "http://unitsofmeasure.org"
            }
          },
          {
            "high": {
              "value": 175,
              "code": "mg/dL",
              "system": "http://unitsofmeasure.org"
            }
          }
        ],
        "text": {
          "status": "generated",
          "div": "<div xmlns=\"http://www.w3.org/1999/xhtml\"><table class=\"hl7__eu__lab__report\"><tr><th>Test</th><th>17-Mar-2022</th><th>Reference&#xA0;Range</th><th>Unit</th></tr><tr><td>Triglyceride [Mass/volume] in Serum or Plasma</td><td>103.4</td><td>10 - 175</td><td></td><td>mg/dL</td></tr></table></div>"
        },
        "status": "final",
        "subject": {
          "reference": "urn:uuid:83b3c62c-87f5-42f4-ba04-99ec8dc6afa0",
          "display": "Marthe Gallet"
        },
        "effectiveDateTime": "2022-03-17T19:05:43Z",
        "specimen": {
          "reference": "urn:uuid:fccd9a46-0124-463a-8112-78eba64d445a"
        }
      }
    },
    {
      "fullUrl": "urn:uuid:eefa7bd9-31e1-4ffb-b20b-d846f061df96",
      "resource": {
        "resourceType": "Observation",
        "id": "eefa7bd9-31e1-4ffb-b20b-d846f061df96",
        "meta": {
          "profile": [
            "http://hl7.eu/fhir/laboratory/StructureDefinition/Observation-resultslab-eu-lab"
          ]
        },
        "performer": [
          {
            "display": "The Central European Lab"
          }
        ],
        "category": [
          {
            "coding": [
              {
                "system": "http://terminology.hl7.org/CodeSystem/observation-category",
                "code": "laboratory"
              }
            ]
          }
        ],
        "code": {
          "coding": [
            {
              "code": "18262-6",
              "system": "http://loinc.org",
              "display": "Cholesterol in LDL [Mass/volume] in Serum or Plasma by Direct assay"
            }
          ],
          "text": "Cholesterol in LDL [Mass/volume] in Serum or Plasma by Direct assay"
        },
        "valueQuantity": {
          "system": "http://unitsofmeasure.org",
          "value": 91.9,
          "unit": "mg/dL",
          "code": "mg/dL"
        },
        "referenceRange": [
          {
            "low": {
              "value": 0,
              "code": "mg/dL",
              "system": "http://unitsofmeasure.org"
            }
          },
          {
            "high": {
              "value": 130,
              "code": "mg/dL",
              "system": "http://unitsofmeasure.org"
            }
          }
        ],
        "text": {
          "status": "generated",
          "div": "<div xmlns=\"http://www.w3.org/1999/xhtml\"><table class=\"hl7__eu__lab__report\"><tr><th>Test</th><th>17-Mar-2022</th><th>Reference&#xA0;Range</th><th>Unit</th></tr><tr><td>Cholesterol in LDL [Mass/volume] in Serum or Plasma by Direct assay</td><td>91.9</td><td>0 - 130</td><td></td><td>mg/dL</td></tr></table></div>"
        },
        "status": "final",
        "subject": {
          "reference": "urn:uuid:83b3c62c-87f5-42f4-ba04-99ec8dc6afa0",
          "display": "Marthe Gallet"
        },
        "effectiveDateTime": "2022-03-17T19:05:43Z",
        "specimen": {
          "reference": "urn:uuid:fccd9a46-0124-463a-8112-78eba64d445a"
        }
      }
    },
    {
      "fullUrl": "urn:uuid:a7f59f16-f4b6-4f42-bc44-c75e2a088cd7",
      "resource": {
        "resourceType": "Observation",
        "id": "a7f59f16-f4b6-4f42-bc44-c75e2a088cd7",
        "meta": {
          "profile": [
            "http://hl7.eu/fhir/laboratory/StructureDefinition/Observation-resultslab-eu-lab"
          ]
        },
        "performer": [
          {
            "display": "The Central European Lab"
          }
        ],
        "category": [
          {
            "coding": [
              {
                "system": "http://terminology.hl7.org/CodeSystem/observation-category",
                "code": "laboratory"
              }
            ]
          }
        ],
        "code": {
          "coding": [
            {
              "code": "2085-9",
              "system": "http://loinc.org",
              "display": "Cholesterol in HDL [Mass/volume] in Serum or Plasma"
            }
          ],
          "text": "Cholesterol in HDL [Mass/volume] in Serum or Plasma"
        },
        "valueQuantity": {
          "system": "http://unitsofmeasure.org",
          "value": 54,
          "unit": "mg/dL",
          "code": "mg/dL"
        },
        "referenceRange": [
          {
            "low": {
              "value": 40,
              "code": "mg/dL",
              "system": "http://unitsofmeasure.org"
            }
          },
          {
            "high": {
              "value": 100,
              "code": "mg/dL",
              "system": "http://unitsofmeasure.org"
            }
          }
        ],
        "text": {
          "status": "generated",
          "div": "<div xmlns=\"http://www.w3.org/1999/xhtml\"><table class=\"hl7__eu__lab__report\"><tr><th>Test</th><th>17-Mar-2022</th><th>Reference&#xA0;Range</th><th>Unit</th></tr><tr><td>Cholesterol in HDL [Mass/volume] in Serum or Plasma</td><td>54.0</td><td>40 - 100</td><td></td><td>mg/dL</td></tr></table></div>"
        },
        "status": "final",
        "subject": {
          "reference": "urn:uuid:83b3c62c-87f5-42f4-ba04-99ec8dc6afa0",
          "display": "Marthe Gallet"
        },
        "effectiveDateTime": "2022-03-17T19:05:43Z",
        "specimen": {
          "reference": "urn:uuid:fccd9a46-0124-463a-8112-78eba64d445a"
        }
      }
    },
    {
      "fullUrl": "urn:uuid:c8702da4-5339-41a9-bb83-4760c7f4cb8c",
      "resource": {
        "resourceType": "Device",
        "id": "c8702da4-5339-41a9-bb83-4760c7f4cb8c",
        "deviceName": [
          {
            "name": "SYNDERAI Synthetic Generator",
            "type": "manufacturer-name"
          }
        ],
        "version": [
          {
            "value": "5.0"
          }
        ],
        "text": {
          "status": "generated",
          "div": "<div xmlns=\"http://www.w3.org/1999/xhtml\">SYNDERAI Synthetic Generator v5.0</div>"
        },
        "status": "active\"",
        "distinctIdentifier": "synderai-generator-50",
        "manufacturer": "SYNDERAI Project"
      }
    },
    {
      "fullUrl": "urn:uuid:e075ec72-45f2-4b39-b7a2-c6b8022f9da7",
      "resource": {
        "resourceType": "Provenance",
        "id": "e075ec72-45f2-4b39-b7a2-c6b8022f9da7",
        "target": [
          {
            "reference": "Patient/83b3c62c-87f5-42f4-ba04-99ec8dc6afa0"
          },
          {
            "reference": "Bundle/b8bce7ac-b206-4857-a8ef-d80fb7a306b9"
          },
          {
            "reference": "Composition/4ea61ec3-3434-4dd8-94bc-39c5a92ee183"
          },
          {
            "reference": "PractitionerRole/af089fd0-28d3-4865-8580-8dfa1b926828"
          },
          {
            "reference": "Practitioner/15a3363c-d19c-4168-8a13-dd373db6d1d0"
          },
          {
            "reference": "PractitionerRole/edb823ab-ebd9-49fa-8b7f-80d3e9c609b2"
          },
          {
            "reference": "Organization/68ffcea2-1fd5-4145-8948-1a25757d9a27"
          }
        ],
        "activity": {
          "text": "Synthetic Example Data Generation"
        },
        "policy": [
          "https://synderai.net/synderai-synthetic-data-policy"
        ],
        "agent": [
          {
            "type": {
              "text": "author"
            },
            "who": {
              "reference": "Device/c8702da4-5339-41a9-bb83-4760c7f4cb8c"
            }
          }
        ],
        "reason": [
          {
            "text": "Interoperability Testing and Training (non-clinical use)"
          }
        ],
        "text": {
          "status": "generated",
          "div": "<div xmlns=\"http://www.w3.org/1999/xhtml\">Provenance for SYNDERAI Synthetic Example Data Resource</div>"
        },
        "recorded": "2022-03-17T20:05:43Z"
      }
    },
    {
      "fullUrl": "urn:uuid:af089fd0-28d3-4865-8580-8dfa1b926828",
      "resource": {
        "resourceType": "PractitionerRole",
        "id": "af089fd0-28d3-4865-8580-8dfa1b926828",
        "meta": {
          "profile": [
            "http://hl7.eu/fhir/base/StructureDefinition/practitionerRole-eu"
          ]
        },
        "text": {
          "status": "generated",
          "div": "<div xmlns=\"http://www.w3.org/1999/xhtml\">Laboratory Role Id: af089fd0-28d3-4865-8580-8dfa1b926828</div>"
        },
        "practitioner": {
          "reference": "urn:uuid:15a3363c-d19c-4168-8a13-dd373db6d1d0"
        }
      }
    },
    {
      "fullUrl": "urn:uuid:15a3363c-d19c-4168-8a13-dd373db6d1d0",
      "resource": {
        "resourceType": "Practitioner",
        "id": "15a3363c-d19c-4168-8a13-dd373db6d1d0",
        "meta": {
          "profile": [
            "http://hl7.eu/fhir/base/StructureDefinition/practitioner-eu"
          ]
        },
        "identifier": [
          {
            "assigner": {
              "display": "HL7 Europe"
            },
            "system": "urn:oid:2.16.840.1.113883.2.51.999",
            "value": "5050b318-1de4-4772-88c6-6ca07470b242"
          }
        ],
        "name": [
          {
            "prefix": [
              "dr"
            ],
            "given": [
              "Ex"
            ],
            "family": "Ample"
          }
        ],
        "address": [
          {
            "line": [
              "Laboratoire Central Europenne",
              "Boulevard du Jardin Botanique 32"
            ],
            "postalCode": "1000",
            "city": "Brussels",
            "country": "Belgium"
          }
        ],
        "text": {
          "status": "generated",
          "div": "<div xmlns=\"http://www.w3.org/1999/xhtml\">Laboratory: Laboratoire Central Europenne, 1000 Brussels, Belgium</div>"
        }
      }
    }
  ],
  "type": "document",
  "timestamp": "2022-03-17T20:05:43Z"
}
