{
  "resourceType": "Bundle",
  "id": "9bc16955-5043-4721-b7c8-015866b47c2e",
  "meta": {
    "profile": [
      "http://hl7.eu/fhir/laboratory/StructureDefinition/Bundle-eu-lab"
    ]
  },
  "identifier": {
    "assigner": {
      "display": "HL7 Europe"
    },
    "system": "urn:oid:2.16.840.1.113883.2.51.999",
    "value": "9d43f045-f6e5-45fd-9d74-123304344ad7"
  },
  "entry": [
    {
      "fullUrl": "urn:uuid:0f6ab603-000b-4b40-a996-8d676715c7f8",
      "resource": {
        "resourceType": "Composition",
        "id": "0f6ab603-000b-4b40-a996-8d676715c7f8",
        "meta": {
          "profile": [
            "http://hl7.eu/fhir/laboratory/StructureDefinition/Composition-eu-lab"
          ]
        },
        "identifier": {
          "assigner": {
            "display": "HL7 Europe"
          },
          "system": "urn:oid:2.16.840.1.113883.2.51.999",
          "value": "ab0e49fc-99a5-4de8-a2cb-0c3d2a0b0928"
        },
        "author": [
          {
            "reference": "urn:uuid:c2e4636c-64ce-455d-ac0a-8104eca0a24d"
          }
        ],
        "category": [
          {
            "coding": [
              {
                "code": "26436-6",
                "system": "http://loinc.org",
                "display": "Laboratory studies (set)"
              }
            ]
          }
        ],
        "type": {
          "coding": [
            {
              "code": "11502-2",
              "system": "http://loinc.org",
              "display": "Laboratory report"
            }
          ],
          "text": "Laboratory Report"
        },
        "section": [
          {
            "code": {
              "coding": [
                {
                  "code": "26436-6",
                  "system": "http://loinc.org",
                  "display": "Laboratory studies (set)"
                }
              ],
              "text": "Laboratory studies"
            },
            "section": [
              {
                "code": {
                  "coding": [
                    {
                      "code": "$18719-5",
                      "system": "http://loinc.org",
                      "display": "Chemistry studies (set)"
                    }
                  ],
                  "text": "Chemistry"
                },
                "entry": [
                  {
                    "reference": "urn:uuid:1bb309a1-ec02-42e9-9ef8-c23f5564a28d"
                  },
                  {
                    "reference": "urn:uuid:d30287dd-dce1-45cb-a3d6-c210b5364b49"
                  },
                  {
                    "reference": "urn:uuid:9109908a-cbca-4d64-801f-a54247568d59"
                  },
                  {
                    "reference": "urn:uuid:00cd2cbf-d715-4630-a844-f9055e195ece"
                  },
                  {
                    "reference": "urn:uuid:4a2f0eb0-1123-49bb-be15-1e7e5ead34a8"
                  },
                  {
                    "reference": "urn:uuid:d92303ff-c36b-4755-a5bf-5f3ba92ebd37"
                  },
                  {
                    "reference": "urn:uuid:035f2b70-8bfb-4d58-acf5-43623461c401"
                  },
                  {
                    "reference": "urn:uuid:8eed33de-e633-4c75-8456-695f25f5f97e"
                  },
                  {
                    "reference": "urn:uuid:a80bb9e1-3539-4edb-bedd-b09a9759640e"
                  },
                  {
                    "reference": "urn:uuid:65ed58d0-ee26-483a-ac41-fa851e1877ef"
                  },
                  {
                    "reference": "urn:uuid:d4a12281-84a8-4907-b0d7-1f6c7c2d878f"
                  },
                  {
                    "reference": "urn:uuid:ac9cb339-0f02-4afa-9639-a6c8b7753c38"
                  },
                  {
                    "reference": "urn:uuid:f4f7a3a7-cd36-4afb-855e-b66ba024b5f5"
                  },
                  {
                    "reference": "urn:uuid:8b4d6d2f-97e0-4c4b-a09e-0522ea6fadc0"
                  },
                  {
                    "reference": "urn:uuid:f2dcd648-91a3-4047-aa85-387afb84db47"
                  },
                  {
                    "reference": "urn:uuid:db45babf-c339-441b-ab61-3f52d8575618"
                  },
                  {
                    "reference": "urn:uuid:2f98a4d9-d90a-48eb-854b-5261c4bf7104"
                  },
                  {
                    "reference": "urn:uuid:5beccc1a-9c7c-4521-ab38-be83587f2454"
                  }
                ],
                "text": {
                  "status": "generated",
                  "div": "<div xmlns=\"http://www.w3.org/1999/xhtml\"><h3>Chemistry</h3><table class=\"hl7__eu__lab__report\"><thead><tr><th>Test</th><th>28-MAR-2023</th><th>Reference&#xA0;Range</th><th>Unit</th></tr></thead><tbody><tr><td>Glucose [Mass/volume] in Serum or Plasma</td><td>92.3</td><td>70 - 99</td><td>mg/dL</td></tr><tr><td>Urea nitrogen [Mass/volume] in Serum or Plasma</td><td>12.7</td><td>7 - 50</td><td>mg/dL</td></tr><tr><td>Creatinine [Mass/volume] in Serum or Plasma</td><td><strong>2.0 H</strong></td><td>0.6 - 1.1</td><td>mg/dL</td></tr><tr><td>Calcium [Mass/volume] in Serum or Plasma</td><td>9.2</td><td>8.6 - 10.4</td><td>mg/dL</td></tr><tr><td>Sodium [Moles/volume] in Serum or Plasma</td><td>137.4</td><td>135 - 145</td><td>mmol/L</td></tr><tr><td>Potassium [Moles/volume] in Serum or Plasma</td><td>3.7</td><td>3.5 - 5.1</td><td>mmol/L</td></tr><tr><td>Chloride [Moles/volume] in Serum or Plasma</td><td>102.6</td><td>98 - 108</td><td>mmol/L</td></tr><tr><td>Carbon dioxide, total [Moles/volume] in Serum or Plasma</td><td>23.5</td><td>22 - 32</td><td>mmol/L</td></tr><tr><td>Ketones [Presence] in Urine by Test strip</td><td>Urine ketone test = ++</td><td></td><td></td></tr><tr><td>Hemoglobin A1c/Hemoglobin.total in Blood</td><td><strong>3.4 L</strong></td><td>4 - 6.4</td><td>%</td></tr><tr><td>Glucose [Mass/volume] in Blood</td><td>92.3</td><td>70 - 100</td><td>mg/dL</td></tr><tr><td>Urea nitrogen [Mass/volume] in Blood</td><td>12.7</td><td>7 - 43</td><td>mg/dL</td></tr><tr><td>Creatinine [Mass/volume] in Blood</td><td><strong>4.3 H</strong></td><td>0.6 - 1.1</td><td>mg/dL</td></tr><tr><td>Calcium [Mass/volume] in Blood</td><td>9.2</td><td>8.5 - 10.5</td><td>mg/dL</td></tr><tr><td>Sodium [Moles/volume] in Blood</td><td>137.4</td><td>135 - 145</td><td>mmol/L</td></tr><tr><td>Potassium [Moles/volume] in Blood</td><td>3.7</td><td>3.5 - 5.1</td><td>mmol/L</td></tr><tr><td>Chloride [Moles/volume] in Blood</td><td>102.6</td><td>98 - 108</td><td>mmol/L</td></tr><tr><td>Carbon dioxide, total [Moles/volume] in Blood</td><td>23.5</td><td>22 - 29</td><td>mmol/L</td></tr></tbody></table></div>"
                },
                "title": "Chemistry"
              },
              {
                "code": {
                  "coding": [
                    {
                      "code": "$18729-4",
                      "system": "http://loinc.org",
                      "display": "Urinalysis studies (set)"
                    }
                  ],
                  "text": "Urinalysis"
                },
                "entry": [
                  {
                    "reference": "urn:uuid:00e14c57-9bc9-4455-be93-5075ea87d252"
                  },
                  {
                    "reference": "urn:uuid:c73e1af8-323b-4b45-ae89-b72aea237603"
                  },
                  {
                    "reference": "urn:uuid:e6da4644-3ded-4810-bce3-ff2672a76829"
                  },
                  {
                    "reference": "urn:uuid:2b5a3e48-d91f-4027-a1e0-470324368f15"
                  },
                  {
                    "reference": "urn:uuid:4e0a628e-1e43-4e70-9c70-874f973dee43"
                  },
                  {
                    "reference": "urn:uuid:670fbd14-ed4e-4099-9373-a6b588abd957"
                  },
                  {
                    "reference": "urn:uuid:369ea840-9fcb-4702-b141-12d376ee6447"
                  },
                  {
                    "reference": "urn:uuid:d1080899-d8c6-4bd2-a64c-9abd432b2188"
                  },
                  {
                    "reference": "urn:uuid:7747abaa-3952-45ab-bf8b-f97525d9f892"
                  },
                  {
                    "reference": "urn:uuid:ba8cdacd-4525-4b89-a735-5b418a2483c1"
                  },
                  {
                    "reference": "urn:uuid:bc2760dc-c393-434e-9f5a-de9646decc01"
                  },
                  {
                    "reference": "urn:uuid:75f17297-bc9e-4207-a521-4a82eb5e6477"
                  }
                ],
                "text": {
                  "status": "generated",
                  "div": "<div xmlns=\"http://www.w3.org/1999/xhtml\"><h3>Urinalysis</h3><table class=\"hl7__eu__lab__report\"><thead><tr><th>Test</th><th>28-MAR-2023</th><th>Reference&#xA0;Range</th><th>Unit</th></tr></thead><tbody><tr><td>Glucose [Mass/volume] in Urine by Test strip</td><td><strong>0.9 H</strong></td><td>0.8 - 0</td><td>mg/dL</td></tr><tr><td>Glucose [Presence] in Urine by Test strip</td><td>++</td><td></td><td></td></tr><tr><td>Bilirubin.total [Mass/volume] in Urine by Test strip</td><td><strong>1.3 H</strong></td><td>0 - 1</td><td>mg/dL</td></tr><tr><td>Bilirubin.total [Presence] in Urine by Test strip</td><td>Finding of bilirubin in urine</td><td></td><td></td></tr><tr><td>Ketones [Mass/volume] in Urine by Test strip</td><td>0.5</td><td>0 - 4</td><td>mg/dL</td></tr><tr><td>Specific gravity of Urine by Test strip</td><td><strong>1.0 L</strong></td><td>1.005 - 1.03</td><td>{nominal}</td></tr><tr><td>pH of Urine by Test strip</td><td>6.4</td><td>4.6 - 7</td><td>pH</td></tr><tr><td>Protein [Mass/volume] in Urine by Test strip</td><td><strong>289.3 H</strong></td><td>0 - 14</td><td>mg/dL</td></tr><tr><td>Protein [Presence] in Urine by Test strip</td><td>Urine protein test = ++</td><td></td><td></td></tr><tr><td>Nitrite [Presence] in Urine by Test strip</td><td>Urine nitrite negative</td><td></td><td></td></tr><tr><td>Hemoglobin [Presence] in Urine by Test strip</td><td>Urine blood test = negative</td><td></td><td></td></tr><tr><td>Leukocyte esterase [Presence] in Urine by Test strip</td><td>Urine leukocyte test negative</td><td></td><td></td></tr></tbody></table></div>"
                },
                "title": "Urinalysis"
              },
              {
                "code": {
                  "coding": [
                    {
                      "code": "$LP7846-1",
                      "system": "http://loinc.org",
                      "display": "Specimen information"
                    }
                  ],
                  "text": "Specimen information"
                },
                "entry": [
                  {
                    "reference": "urn:uuid:29925cdf-910a-4289-a9ad-c8ad44f5d32f"
                  },
                  {
                    "reference": "urn:uuid:f8a41db0-dcfe-4ba7-b4a3-d9c192a494d5"
                  },
                  {
                    "reference": "urn:uuid:fa0c080a-7296-4697-b0f5-051a16d08ed7"
                  },
                  {
                    "reference": "urn:uuid:b3f858ae-a4c3-48bd-b1fc-302fb5c25c83"
                  }
                ],
                "text": {
                  "status": "generated",
                  "div": "<div xmlns=\"http://www.w3.org/1999/xhtml\"><h3>Specimen information</h3><table class=\"hl7__eu__lab__report\"><thead><tr><th>Test</th><th>28-MAR-2023</th><th>Specimen</th><th></th></tr></thead><tbody><tr><td>Appearance of Urine</td><td>Cloudy urine</td><td>Urine</td><td></td></tr><tr><td>Odor of Urine</td><td>Urine smell ammoniacal</td><td>Urine</td><td></td></tr><tr><td>Clarity of Urine</td><td>Translucent</td><td>Urine</td><td></td></tr><tr><td>Color of Urine</td><td>Brown color</td><td>Urine</td><td></td></tr></tbody></table></div>"
                },
                "title": "Specimen information"
              }
            ],
            "title": "Laboratory Report"
          },
          {
            "text": {
              "status": "generated",
              "div": "<div xmlns=\"http://www.w3.org/1999/xhtml\"><h3>Annotation</h3><table class=\"hl7__eu__lab__report\"><tr><th>Conclusion and Recommendations based on this report and previous findings known to us</th></tr><tr><td>The patient shows markedly elevated creatinine, significant proteinuria, and abnormal urine findings (cloudy, brown, low specific gravity, bilirubin, glucose, ketones), suggesting acute or chronic renal dysfunction with possible nephrotic features. Blood glucose is normal, but HbA1c is unexpectedly low. No evidence of urinary tract infection. Recommend urgent nephrology evaluation for renal impairment and further assessment of possible underlying causes.</td></tr></table></div>"
            },
            "code": {
              "coding": [
                {
                  "system": "http://loinc.org",
                  "code": "48767-8",
                  "display": "Annotation comment"
                }
              ]
            },
            "title": "Annotation comment"
          }
        ],
        "status": "final",
        "subject": {
          "reference": "urn:uuid:f6d801d4-009d-48a5-bb07-93381a5533df",
          "display": "Meaghan Neary"
        },
        "date": "2023-03-28T00:11:04Z",
        "title": "Laboratory Report",
        "confidentiality": "N"
      }
    },
    {
      "fullUrl": "urn:uuid:5aba0321-7e95-4ba6-b51b-7958a72098e5",
      "resource": {
        "resourceType": "DiagnosticReport",
        "id": "5aba0321-7e95-4ba6-b51b-7958a72098e5",
        "meta": {
          "profile": [
            "http://hl7.eu/fhir/laboratory/StructureDefinition/DiagnosticReport-eu-lab"
          ]
        },
        "identifier": [
          {
            "assigner": {
              "display": "HL7 Europe"
            },
            "system": "urn:oid:2.16.840.1.113883.2.51.999",
            "value": "ad965f56-d9c4-4e97-ae7a-763cc75d5165"
          }
        ],
        "extension": [
          {
            "url": "http://hl7.org/fhir/5.0/StructureDefinition/extension-DiagnosticReport.composition",
            "valueReference": {
              "reference": "urn:uuid:ab0e49fc-99a5-4de8-a2cb-0c3d2a0b0928"
            }
          }
        ],
        "category": [
          {
            "coding": [
              {
                "code": "26436-6",
                "system": "http://loinc.org",
                "display": "Laboratory studies (set)"
              }
            ]
          }
        ],
        "specimen": [
          {
            "reference": "urn:uuid:ecbb7c89-01fd-4f08-a0f0-0b54e375cb34"
          },
          {
            "reference": "urn:uuid:098a557b-9880-4c63-a98e-cd18763e0758"
          },
          {
            "reference": "urn:uuid:e34cef92-5d59-4d25-ab2f-95ff19ab4f1f"
          }
        ],
        "result": [
          {
            "reference": "urn:uuid:1bb309a1-ec02-42e9-9ef8-c23f5564a28d"
          },
          {
            "reference": "urn:uuid:d30287dd-dce1-45cb-a3d6-c210b5364b49"
          },
          {
            "reference": "urn:uuid:9109908a-cbca-4d64-801f-a54247568d59"
          },
          {
            "reference": "urn:uuid:00cd2cbf-d715-4630-a844-f9055e195ece"
          },
          {
            "reference": "urn:uuid:4a2f0eb0-1123-49bb-be15-1e7e5ead34a8"
          },
          {
            "reference": "urn:uuid:d92303ff-c36b-4755-a5bf-5f3ba92ebd37"
          },
          {
            "reference": "urn:uuid:035f2b70-8bfb-4d58-acf5-43623461c401"
          },
          {
            "reference": "urn:uuid:8eed33de-e633-4c75-8456-695f25f5f97e"
          },
          {
            "reference": "urn:uuid:29925cdf-910a-4289-a9ad-c8ad44f5d32f"
          },
          {
            "reference": "urn:uuid:f8a41db0-dcfe-4ba7-b4a3-d9c192a494d5"
          },
          {
            "reference": "urn:uuid:fa0c080a-7296-4697-b0f5-051a16d08ed7"
          },
          {
            "reference": "urn:uuid:b3f858ae-a4c3-48bd-b1fc-302fb5c25c83"
          },
          {
            "reference": "urn:uuid:00e14c57-9bc9-4455-be93-5075ea87d252"
          },
          {
            "reference": "urn:uuid:c73e1af8-323b-4b45-ae89-b72aea237603"
          },
          {
            "reference": "urn:uuid:e6da4644-3ded-4810-bce3-ff2672a76829"
          },
          {
            "reference": "urn:uuid:2b5a3e48-d91f-4027-a1e0-470324368f15"
          },
          {
            "reference": "urn:uuid:4e0a628e-1e43-4e70-9c70-874f973dee43"
          },
          {
            "reference": "urn:uuid:a80bb9e1-3539-4edb-bedd-b09a9759640e"
          },
          {
            "reference": "urn:uuid:670fbd14-ed4e-4099-9373-a6b588abd957"
          },
          {
            "reference": "urn:uuid:369ea840-9fcb-4702-b141-12d376ee6447"
          },
          {
            "reference": "urn:uuid:d1080899-d8c6-4bd2-a64c-9abd432b2188"
          },
          {
            "reference": "urn:uuid:7747abaa-3952-45ab-bf8b-f97525d9f892"
          },
          {
            "reference": "urn:uuid:ba8cdacd-4525-4b89-a735-5b418a2483c1"
          },
          {
            "reference": "urn:uuid:bc2760dc-c393-434e-9f5a-de9646decc01"
          },
          {
            "reference": "urn:uuid:75f17297-bc9e-4207-a521-4a82eb5e6477"
          },
          {
            "reference": "urn:uuid:65ed58d0-ee26-483a-ac41-fa851e1877ef"
          },
          {
            "reference": "urn:uuid:d4a12281-84a8-4907-b0d7-1f6c7c2d878f"
          },
          {
            "reference": "urn:uuid:ac9cb339-0f02-4afa-9639-a6c8b7753c38"
          },
          {
            "reference": "urn:uuid:f4f7a3a7-cd36-4afb-855e-b66ba024b5f5"
          },
          {
            "reference": "urn:uuid:8b4d6d2f-97e0-4c4b-a09e-0522ea6fadc0"
          },
          {
            "reference": "urn:uuid:f2dcd648-91a3-4047-aa85-387afb84db47"
          },
          {
            "reference": "urn:uuid:db45babf-c339-441b-ab61-3f52d8575618"
          },
          {
            "reference": "urn:uuid:2f98a4d9-d90a-48eb-854b-5261c4bf7104"
          },
          {
            "reference": "urn:uuid:5beccc1a-9c7c-4521-ab38-be83587f2454"
          }
        ],
        "status": "registered",
        "code": {
          "coding": [
            {
              "code": "11502-2",
              "system": "http://loinc.org",
              "display": "Laboratory report"
            }
          ]
        },
        "subject": {
          "reference": "urn:uuid:f6d801d4-009d-48a5-bb07-93381a5533df",
          "display": "Meaghan Neary"
        }
      }
    },
    {
      "fullUrl": "urn:uuid:f6d801d4-009d-48a5-bb07-93381a5533df",
      "resource": {
        "resourceType": "Patient",
        "id": "f6d801d4-009d-48a5-bb07-93381a5533df",
        "meta": {
          "security": [
            {
              "system": "http://terminology.hl7.org/CodeSystem/v3-ActReason",
              "code": "HTEST"
            },
            {
              "system": "http://terminology.hl7.org/CodeSystem/v3-ActReason",
              "code": "TRAIN"
            }
          ],
          "tag": [
            {
              "system": "https://synderai.net/fhir/CodeSystem/tags",
              "code": "synthetic",
              "display": "SYNDERAI Synthetic data"
            }
          ],
          "profile": [
            "http://hl7.eu/fhir/base/StructureDefinition/patient-eu-core"
          ]
        },
        "identifier": [
          {
            "type": {
              "coding": [
                {
                  "code": "PT",
                  "system": "http://terminology.hl7.org/CodeSystem/v2-0203"
                }
              ]
            },
            "system": "http://ec.europa.eu/identifier/eci",
            "value": "1586-567257-8"
          },
          {
            "type": {
              "coding": [
                {
                  "code": "MR",
                  "system": "http://terminology.hl7.org/CodeSystem/v2-0203"
                }
              ]
            },
            "system": "http://local.setting.eu/identifier",
            "value": "443e6379-f231-b364-3ccb-644740a1aa2a"
          }
        ],
        "name": [
          {
            "family": "Neary"
          },
          {
            "given": [
              "Meaghan"
            ]
          },
          {
            "text": "Meaghan Neary"
          }
        ],
        "address": [
          {
            "line": [
              "64 Linskey Street"
            ],
            "use": "home",
            "type": "physical",
            "postalCode": "D02",
            "city": "Dublin",
            "country": "Ireland"
          }
        ],
        "telecom": [
          {
            "system": "phone",
            "value": "001-967-573-0911x465"
          }
        ],
        "extension": [
          {
            "url": "http://hl7.org/fhir/StructureDefinition/patient-nationality",
            "valueCodeableConcept": {
              "coding": [
                {
                  "code": "IE",
                  "system": "http://hl7.org/fhir/ValueSet/country"
                }
              ]
            }
          }
        ],
        "text": {
          "status": "generated",
          "div": "<div xmlns=\"http://www.w3.org/1999/xhtml\"><table class=\"hl7__ips\"><tr><td>Meaghan Neary</td><td>female</td><td>19-Dec-1960</td></tr></table></div>"
        },
        "gender": "female",
        "birthDate": "1960-12-19"
      }
    },
    {
      "fullUrl": "urn:uuid:a5a48270-a640-4784-a6ca-0b09b2837c0d",
      "resource": {
        "resourceType": "ServiceRequest",
        "id": "a5a48270-a640-4784-a6ca-0b09b2837c0d",
        "meta": {
          "profile": [
            "http://hl7.eu/fhir/laboratory/StructureDefinition/ServiceRequest-eu-lab"
          ]
        },
        "identifier": [
          {
            "system": "http://example.org",
            "value": "54bc2322-2c1a-4c09-a978-c90bdf1d19a3"
          }
        ],
        "specimen": [
          {
            "reference": "urn:uuid:ecbb7c89-01fd-4f08-a0f0-0b54e375cb34"
          },
          {
            "reference": "urn:uuid:098a557b-9880-4c63-a98e-cd18763e0758"
          },
          {
            "reference": "urn:uuid:e34cef92-5d59-4d25-ab2f-95ff19ab4f1f"
          }
        ],
        "reasonCode": [
          {
            "coding": [
              {
                "code": "55822004",
                "system": "http://snomed.info/sct",
                "display": "Hyperlipidemia"
              }
            ]
          },
          {
            "coding": [
              {
                "code": "433144002",
                "system": "http://snomed.info/sct",
                "display": "Chronic kidney disease stage 3"
              }
            ]
          },
          {
            "coding": [
              {
                "code": "157141000119108",
                "system": "http://snomed.info/sct",
                "display": "Proteinuria due to type 2 diabetes mellitus"
              }
            ]
          },
          {
            "coding": [
              {
                "code": "431856006",
                "system": "http://snomed.info/sct",
                "display": "Chronic kidney disease stage 2"
              }
            ]
          },
          {
            "coding": [
              {
                "code": "90781000119102",
                "system": "http://snomed.info/sct",
                "display": "Microalbuminuria due to type 2 diabetes mellitus"
              }
            ]
          },
          {
            "coding": [
              {
                "code": "127013003",
                "system": "http://snomed.info/sct",
                "display": "Disorder of kidney due to diabetes mellitus"
              }
            ]
          },
          {
            "coding": [
              {
                "code": "431855005",
                "system": "http://snomed.info/sct",
                "display": "Chronic kidney disease stage 1"
              }
            ]
          },
          {
            "coding": [
              {
                "code": "237602007",
                "system": "http://snomed.info/sct",
                "display": "Metabolic syndrome X"
              }
            ]
          },
          {
            "coding": [
              {
                "code": "271737000",
                "system": "http://snomed.info/sct",
                "display": "Anemia"
              }
            ]
          },
          {
            "coding": [
              {
                "code": "15777000",
                "system": "http://snomed.info/sct",
                "display": "Prediabetes"
              }
            ]
          },
          {
            "coding": [
              {
                "code": "59621000",
                "system": "http://snomed.info/sct",
                "display": "Essential hypertension"
              }
            ]
          }
        ],
        "status": "active",
        "intent": "order",
        "code": {
          "coding": [
            {
              "code": "108252007",
              "system": "http://snomed.info/sct",
              "display": "Laboratory procedure"
            }
          ]
        },
        "subject": {
          "reference": "urn:uuid:f6d801d4-009d-48a5-bb07-93381a5533df",
          "display": "Meaghan Neary"
        },
        "requester": {
          "reference": "urn:uuid:ea953753-4c71-4539-a4e4-54c889c09c21"
        }
      }
    },
    {
      "fullUrl": "urn:uuid:ea953753-4c71-4539-a4e4-54c889c09c21",
      "resource": {
        "resourceType": "PractitionerRole",
        "id": "ea953753-4c71-4539-a4e4-54c889c09c21",
        "meta": {
          "profile": [
            "http://hl7.eu/fhir/base/StructureDefinition/practitionerRole-eu"
          ]
        },
        "text": {
          "status": "generated",
          "div": "<div xmlns=\"http://www.w3.org/1999/xhtml\">Provider Role Id: ea953753-4c71-4539-a4e4-54c889c09c21</div>"
        },
        "organization": {
          "reference": "urn:uuid:0b517a83-cb4a-4f55-b821-9e4ac9bc64cc"
        }
      }
    },
    {
      "fullUrl": "urn:uuid:0b517a83-cb4a-4f55-b821-9e4ac9bc64cc",
      "resource": {
        "resourceType": "Organization",
        "id": "0b517a83-cb4a-4f55-b821-9e4ac9bc64cc",
        "meta": {
          "profile": [
            "http://hl7.eu/fhir/base/StructureDefinition/organization-eu"
          ]
        },
        "identifier": [
          {
            "assigner": {
              "display": "HL7 Europe"
            },
            "system": "urn:oid:2.16.840.1.113883.2.51.999",
            "value": "9a805733-b3ac-4e1f-9394-67a034f48870"
          }
        ],
        "address": [
          {
            "line": [
              "Parnell Square West nan"
            ],
            "city": "Dublin",
            "postalCode": "D01",
            "country": "Ireland"
          }
        ],
        "text": {
          "status": "generated",
          "div": "<div xmlns=\"http://www.w3.org/1999/xhtml\">Provider Organization: Rotunda Hospital</div>"
        },
        "name": "Rotunda Hospital"
      }
    },
    {
      "fullUrl": "urn:uuid:ecbb7c89-01fd-4f08-a0f0-0b54e375cb34",
      "resource": {
        "resourceType": "Specimen",
        "id": "ecbb7c89-01fd-4f08-a0f0-0b54e375cb34",
        "meta": {
          "profile": [
            "http://hl7.eu/fhir/laboratory/StructureDefinition/Specimen-eu-lab"
          ]
        },
        "collection": {
          "collectedDateTime": "2023-03-27"
        },
        "text": {
          "status": "generated",
          "div": "<div xmlns=\"http://www.w3.org/1999/xhtml\"><table class=\"hl7__eu__lab__report\"><tr><th>Specimen</th><th>Collection Date</th></tr><tr><td>Acellular blood (serum or plasma) specimen</td><td><span class=\"nb\">27-Mar-2023</span></td></tr></table></div>"
        },
        "type": {
          "coding": [
            {
              "code": "122592007",
              "system": "http://snomed.info/sct",
              "display": "Acellular blood (serum or plasma) specimen"
            }
          ]
        }
      }
    },
    {
      "fullUrl": "urn:uuid:098a557b-9880-4c63-a98e-cd18763e0758",
      "resource": {
        "resourceType": "Specimen",
        "id": "098a557b-9880-4c63-a98e-cd18763e0758",
        "meta": {
          "profile": [
            "http://hl7.eu/fhir/laboratory/StructureDefinition/Specimen-eu-lab"
          ]
        },
        "collection": {
          "collectedDateTime": "2023-03-27"
        },
        "text": {
          "status": "generated",
          "div": "<div xmlns=\"http://www.w3.org/1999/xhtml\"><table class=\"hl7__eu__lab__report\"><tr><th>Specimen</th><th>Collection Date</th></tr><tr><td>Urine specimen</td><td><span class=\"nb\">27-Mar-2023</span></td></tr></table></div>"
        },
        "type": {
          "coding": [
            {
              "code": "122575003",
              "system": "http://snomed.info/sct",
              "display": "Urine specimen"
            }
          ]
        }
      }
    },
    {
      "fullUrl": "urn:uuid:e34cef92-5d59-4d25-ab2f-95ff19ab4f1f",
      "resource": {
        "resourceType": "Specimen",
        "id": "e34cef92-5d59-4d25-ab2f-95ff19ab4f1f",
        "meta": {
          "profile": [
            "http://hl7.eu/fhir/laboratory/StructureDefinition/Specimen-eu-lab"
          ]
        },
        "collection": {
          "collectedDateTime": "2023-03-27"
        },
        "text": {
          "status": "generated",
          "div": "<div xmlns=\"http://www.w3.org/1999/xhtml\"><table class=\"hl7__eu__lab__report\"><tr><th>Specimen</th><th>Collection Date</th></tr><tr><td>Whole blood specimen (specimen)</td><td><span class=\"nb\">27-Mar-2023</span></td></tr></table></div>"
        },
        "type": {
          "coding": [
            {
              "code": "258580003",
              "system": "http://snomed.info/sct",
              "display": "Whole blood specimen (specimen)"
            }
          ]
        }
      }
    },
    {
      "fullUrl": "urn:uuid:1bb309a1-ec02-42e9-9ef8-c23f5564a28d",
      "resource": {
        "resourceType": "Observation",
        "id": "1bb309a1-ec02-42e9-9ef8-c23f5564a28d",
        "meta": {
          "profile": [
            "http://hl7.eu/fhir/laboratory/StructureDefinition/Observation-resultslab-eu-lab"
          ]
        },
        "performer": [
          {
            "display": "The Central European Lab"
          }
        ],
        "category": [
          {
            "coding": [
              {
                "system": "http://terminology.hl7.org/CodeSystem/observation-category",
                "code": "laboratory"
              }
            ]
          }
        ],
        "code": {
          "coding": [
            {
              "code": "2345-7",
              "system": "http://loinc.org",
              "display": "Glucose [Mass/volume] in Serum or Plasma"
            }
          ],
          "text": "Glucose [Mass/volume] in Serum or Plasma"
        },
        "valueQuantity": {
          "system": "http://unitsofmeasure.org",
          "value": 92.3,
          "unit": "mg/dL",
          "code": "mg/dL"
        },
        "referenceRange": [
          {
            "low": {
              "value": 70,
              "code": "mg/dL",
              "system": "http://unitsofmeasure.org"
            }
          },
          {
            "high": {
              "value": 99,
              "code": "mg/dL",
              "system": "http://unitsofmeasure.org"
            }
          }
        ],
        "text": {
          "status": "generated",
          "div": "<div xmlns=\"http://www.w3.org/1999/xhtml\"><table class=\"hl7__eu__lab__report\"><tr><th>Test</th><th>28-Mar-2023</th><th>Reference&#xA0;Range</th><th>Unit</th></tr><tr><td>Glucose [Mass/volume] in Serum or Plasma</td><td>92.3</td><td>70 - 99</td><td></td><td>mg/dL</td></tr></table></div>"
        },
        "status": "final",
        "subject": {
          "reference": "urn:uuid:f6d801d4-009d-48a5-bb07-93381a5533df",
          "display": "Meaghan Neary"
        },
        "effectiveDateTime": "2023-03-27T22:11:04Z",
        "specimen": {
          "reference": "urn:uuid:ecbb7c89-01fd-4f08-a0f0-0b54e375cb34"
        }
      }
    },
    {
      "fullUrl": "urn:uuid:d30287dd-dce1-45cb-a3d6-c210b5364b49",
      "resource": {
        "resourceType": "Observation",
        "id": "d30287dd-dce1-45cb-a3d6-c210b5364b49",
        "meta": {
          "profile": [
            "http://hl7.eu/fhir/laboratory/StructureDefinition/Observation-resultslab-eu-lab"
          ]
        },
        "performer": [
          {
            "display": "The Central European Lab"
          }
        ],
        "category": [
          {
            "coding": [
              {
                "system": "http://terminology.hl7.org/CodeSystem/observation-category",
                "code": "laboratory"
              }
            ]
          }
        ],
        "code": {
          "coding": [
            {
              "code": "3094-0",
              "system": "http://loinc.org",
              "display": "Urea nitrogen [Mass/volume] in Serum or Plasma"
            }
          ],
          "text": "Urea nitrogen [Mass/volume] in Serum or Plasma"
        },
        "valueQuantity": {
          "system": "http://unitsofmeasure.org",
          "value": 12.7,
          "unit": "mg/dL",
          "code": "mg/dL"
        },
        "referenceRange": [
          {
            "low": {
              "value": 7,
              "code": "mg/dL",
              "system": "http://unitsofmeasure.org"
            }
          },
          {
            "high": {
              "value": 50,
              "code": "mg/dL",
              "system": "http://unitsofmeasure.org"
            }
          }
        ],
        "text": {
          "status": "generated",
          "div": "<div xmlns=\"http://www.w3.org/1999/xhtml\"><table class=\"hl7__eu__lab__report\"><tr><th>Test</th><th>28-Mar-2023</th><th>Reference&#xA0;Range</th><th>Unit</th></tr><tr><td>Urea nitrogen [Mass/volume] in Serum or Plasma</td><td>12.7</td><td>7 - 50</td><td></td><td>mg/dL</td></tr></table></div>"
        },
        "status": "final",
        "subject": {
          "reference": "urn:uuid:f6d801d4-009d-48a5-bb07-93381a5533df",
          "display": "Meaghan Neary"
        },
        "effectiveDateTime": "2023-03-27T22:11:04Z",
        "specimen": {
          "reference": "urn:uuid:ecbb7c89-01fd-4f08-a0f0-0b54e375cb34"
        }
      }
    },
    {
      "fullUrl": "urn:uuid:9109908a-cbca-4d64-801f-a54247568d59",
      "resource": {
        "resourceType": "Observation",
        "id": "9109908a-cbca-4d64-801f-a54247568d59",
        "meta": {
          "profile": [
            "http://hl7.eu/fhir/laboratory/StructureDefinition/Observation-resultslab-eu-lab"
          ]
        },
        "performer": [
          {
            "display": "The Central European Lab"
          }
        ],
        "category": [
          {
            "coding": [
              {
                "system": "http://terminology.hl7.org/CodeSystem/observation-category",
                "code": "laboratory"
              }
            ]
          }
        ],
        "code": {
          "coding": [
            {
              "code": "2160-0",
              "system": "http://loinc.org",
              "display": "Creatinine [Mass/volume] in Serum or Plasma"
            }
          ],
          "text": "Creatinine [Mass/volume] in Serum or Plasma"
        },
        "valueQuantity": {
          "system": "http://unitsofmeasure.org",
          "value": 2,
          "unit": "mg/dL",
          "code": "mg/dL"
        },
        "referenceRange": [
          {
            "low": {
              "value": 0.6,
              "code": "mg/dL",
              "system": "http://unitsofmeasure.org"
            }
          },
          {
            "high": {
              "value": 1.1,
              "code": "mg/dL",
              "system": "http://unitsofmeasure.org"
            }
          }
        ],
        "interpretation": [
          {
            "coding": [
              {
                "code": "H",
                "system": "http://terminology.hl7.org/CodeSystem/v3-ObservationInterpretation",
                "display": "High"
              }
            ]
          }
        ],
        "text": {
          "status": "generated",
          "div": "<div xmlns=\"http://www.w3.org/1999/xhtml\"><table class=\"hl7__eu__lab__report\"><tr><th>Test</th><th>28-Mar-2023</th><th>Reference&#xA0;Range</th><th>Unit</th></tr><tr><td>Creatinine [Mass/volume] in Serum or Plasma</td><td>2.0</td><td>0.6 - 1.1</td><td>H</td><td>mg/dL</td></tr></table></div>"
        },
        "status": "final",
        "subject": {
          "reference": "urn:uuid:f6d801d4-009d-48a5-bb07-93381a5533df",
          "display": "Meaghan Neary"
        },
        "effectiveDateTime": "2023-03-27T22:11:04Z",
        "specimen": {
          "reference": "urn:uuid:ecbb7c89-01fd-4f08-a0f0-0b54e375cb34"
        }
      }
    },
    {
      "fullUrl": "urn:uuid:00cd2cbf-d715-4630-a844-f9055e195ece",
      "resource": {
        "resourceType": "Observation",
        "id": "00cd2cbf-d715-4630-a844-f9055e195ece",
        "meta": {
          "profile": [
            "http://hl7.eu/fhir/laboratory/StructureDefinition/Observation-resultslab-eu-lab"
          ]
        },
        "performer": [
          {
            "display": "The Central European Lab"
          }
        ],
        "category": [
          {
            "coding": [
              {
                "system": "http://terminology.hl7.org/CodeSystem/observation-category",
                "code": "laboratory"
              }
            ]
          }
        ],
        "code": {
          "coding": [
            {
              "code": "17861-6",
              "system": "http://loinc.org",
              "display": "Calcium [Mass/volume] in Serum or Plasma"
            }
          ],
          "text": "Calcium [Mass/volume] in Serum or Plasma"
        },
        "valueQuantity": {
          "system": "http://unitsofmeasure.org",
          "value": 9.2,
          "unit": "mg/dL",
          "code": "mg/dL"
        },
        "referenceRange": [
          {
            "low": {
              "value": 8.6,
              "code": "mg/dL",
              "system": "http://unitsofmeasure.org"
            }
          },
          {
            "high": {
              "value": 10.4,
              "code": "mg/dL",
              "system": "http://unitsofmeasure.org"
            }
          }
        ],
        "text": {
          "status": "generated",
          "div": "<div xmlns=\"http://www.w3.org/1999/xhtml\"><table class=\"hl7__eu__lab__report\"><tr><th>Test</th><th>28-Mar-2023</th><th>Reference&#xA0;Range</th><th>Unit</th></tr><tr><td>Calcium [Mass/volume] in Serum or Plasma</td><td>9.2</td><td>8.6 - 10.4</td><td></td><td>mg/dL</td></tr></table></div>"
        },
        "status": "final",
        "subject": {
          "reference": "urn:uuid:f6d801d4-009d-48a5-bb07-93381a5533df",
          "display": "Meaghan Neary"
        },
        "effectiveDateTime": "2023-03-27T22:11:04Z",
        "specimen": {
          "reference": "urn:uuid:ecbb7c89-01fd-4f08-a0f0-0b54e375cb34"
        }
      }
    },
    {
      "fullUrl": "urn:uuid:4a2f0eb0-1123-49bb-be15-1e7e5ead34a8",
      "resource": {
        "resourceType": "Observation",
        "id": "4a2f0eb0-1123-49bb-be15-1e7e5ead34a8",
        "meta": {
          "profile": [
            "http://hl7.eu/fhir/laboratory/StructureDefinition/Observation-resultslab-eu-lab"
          ]
        },
        "performer": [
          {
            "display": "The Central European Lab"
          }
        ],
        "category": [
          {
            "coding": [
              {
                "system": "http://terminology.hl7.org/CodeSystem/observation-category",
                "code": "laboratory"
              }
            ]
          }
        ],
        "code": {
          "coding": [
            {
              "code": "2951-2",
              "system": "http://loinc.org",
              "display": "Sodium [Moles/volume] in Serum or Plasma"
            }
          ],
          "text": "Sodium [Moles/volume] in Serum or Plasma"
        },
        "valueQuantity": {
          "system": "http://unitsofmeasure.org",
          "value": 137.4,
          "unit": "mmol/L",
          "code": "mmol/L"
        },
        "referenceRange": [
          {
            "low": {
              "value": 135,
              "code": "mmol/L",
              "system": "http://unitsofmeasure.org"
            }
          },
          {
            "high": {
              "value": 145,
              "code": "mmol/L",
              "system": "http://unitsofmeasure.org"
            }
          }
        ],
        "text": {
          "status": "generated",
          "div": "<div xmlns=\"http://www.w3.org/1999/xhtml\"><table class=\"hl7__eu__lab__report\"><tr><th>Test</th><th>28-Mar-2023</th><th>Reference&#xA0;Range</th><th>Unit</th></tr><tr><td>Sodium [Moles/volume] in Serum or Plasma</td><td>137.4</td><td>135 - 145</td><td></td><td>mmol/L</td></tr></table></div>"
        },
        "status": "final",
        "subject": {
          "reference": "urn:uuid:f6d801d4-009d-48a5-bb07-93381a5533df",
          "display": "Meaghan Neary"
        },
        "effectiveDateTime": "2023-03-27T22:11:04Z",
        "specimen": {
          "reference": "urn:uuid:ecbb7c89-01fd-4f08-a0f0-0b54e375cb34"
        }
      }
    },
    {
      "fullUrl": "urn:uuid:d92303ff-c36b-4755-a5bf-5f3ba92ebd37",
      "resource": {
        "resourceType": "Observation",
        "id": "d92303ff-c36b-4755-a5bf-5f3ba92ebd37",
        "meta": {
          "profile": [
            "http://hl7.eu/fhir/laboratory/StructureDefinition/Observation-resultslab-eu-lab"
          ]
        },
        "performer": [
          {
            "display": "The Central European Lab"
          }
        ],
        "category": [
          {
            "coding": [
              {
                "system": "http://terminology.hl7.org/CodeSystem/observation-category",
                "code": "laboratory"
              }
            ]
          }
        ],
        "code": {
          "coding": [
            {
              "code": "2823-3",
              "system": "http://loinc.org",
              "display": "Potassium [Moles/volume] in Serum or Plasma"
            }
          ],
          "text": "Potassium [Moles/volume] in Serum or Plasma"
        },
        "valueQuantity": {
          "system": "http://unitsofmeasure.org",
          "value": 3.7,
          "unit": "mmol/L",
          "code": "mmol/L"
        },
        "referenceRange": [
          {
            "low": {
              "value": 3.5,
              "code": "mmol/L",
              "system": "http://unitsofmeasure.org"
            }
          },
          {
            "high": {
              "value": 5.1,
              "code": "mmol/L",
              "system": "http://unitsofmeasure.org"
            }
          }
        ],
        "text": {
          "status": "generated",
          "div": "<div xmlns=\"http://www.w3.org/1999/xhtml\"><table class=\"hl7__eu__lab__report\"><tr><th>Test</th><th>28-Mar-2023</th><th>Reference&#xA0;Range</th><th>Unit</th></tr><tr><td>Potassium [Moles/volume] in Serum or Plasma</td><td>3.7</td><td>3.5 - 5.1</td><td></td><td>mmol/L</td></tr></table></div>"
        },
        "status": "final",
        "subject": {
          "reference": "urn:uuid:f6d801d4-009d-48a5-bb07-93381a5533df",
          "display": "Meaghan Neary"
        },
        "effectiveDateTime": "2023-03-27T22:11:04Z",
        "specimen": {
          "reference": "urn:uuid:ecbb7c89-01fd-4f08-a0f0-0b54e375cb34"
        }
      }
    },
    {
      "fullUrl": "urn:uuid:035f2b70-8bfb-4d58-acf5-43623461c401",
      "resource": {
        "resourceType": "Observation",
        "id": "035f2b70-8bfb-4d58-acf5-43623461c401",
        "meta": {
          "profile": [
            "http://hl7.eu/fhir/laboratory/StructureDefinition/Observation-resultslab-eu-lab"
          ]
        },
        "performer": [
          {
            "display": "The Central European Lab"
          }
        ],
        "category": [
          {
            "coding": [
              {
                "system": "http://terminology.hl7.org/CodeSystem/observation-category",
                "code": "laboratory"
              }
            ]
          }
        ],
        "code": {
          "coding": [
            {
              "code": "2075-0",
              "system": "http://loinc.org",
              "display": "Chloride [Moles/volume] in Serum or Plasma"
            }
          ],
          "text": "Chloride [Moles/volume] in Serum or Plasma"
        },
        "valueQuantity": {
          "system": "http://unitsofmeasure.org",
          "value": 102.6,
          "unit": "mmol/L",
          "code": "mmol/L"
        },
        "referenceRange": [
          {
            "low": {
              "value": 98,
              "code": "mmol/L",
              "system": "http://unitsofmeasure.org"
            }
          },
          {
            "high": {
              "value": 108,
              "code": "mmol/L",
              "system": "http://unitsofmeasure.org"
            }
          }
        ],
        "text": {
          "status": "generated",
          "div": "<div xmlns=\"http://www.w3.org/1999/xhtml\"><table class=\"hl7__eu__lab__report\"><tr><th>Test</th><th>28-Mar-2023</th><th>Reference&#xA0;Range</th><th>Unit</th></tr><tr><td>Chloride [Moles/volume] in Serum or Plasma</td><td>102.6</td><td>98 - 108</td><td></td><td>mmol/L</td></tr></table></div>"
        },
        "status": "final",
        "subject": {
          "reference": "urn:uuid:f6d801d4-009d-48a5-bb07-93381a5533df",
          "display": "Meaghan Neary"
        },
        "effectiveDateTime": "2023-03-27T22:11:04Z",
        "specimen": {
          "reference": "urn:uuid:ecbb7c89-01fd-4f08-a0f0-0b54e375cb34"
        }
      }
    },
    {
      "fullUrl": "urn:uuid:8eed33de-e633-4c75-8456-695f25f5f97e",
      "resource": {
        "resourceType": "Observation",
        "id": "8eed33de-e633-4c75-8456-695f25f5f97e",
        "meta": {
          "profile": [
            "http://hl7.eu/fhir/laboratory/StructureDefinition/Observation-resultslab-eu-lab"
          ]
        },
        "performer": [
          {
            "display": "The Central European Lab"
          }
        ],
        "category": [
          {
            "coding": [
              {
                "system": "http://terminology.hl7.org/CodeSystem/observation-category",
                "code": "laboratory"
              }
            ]
          }
        ],
        "code": {
          "coding": [
            {
              "code": "2028-9",
              "system": "http://loinc.org",
              "display": "Carbon dioxide, total [Moles/volume] in Serum or Plasma"
            }
          ],
          "text": "Carbon dioxide, total [Moles/volume] in Serum or Plasma"
        },
        "valueQuantity": {
          "system": "http://unitsofmeasure.org",
          "value": 23.5,
          "unit": "mmol/L",
          "code": "mmol/L"
        },
        "referenceRange": [
          {
            "low": {
              "value": 22,
              "code": "mmol/L",
              "system": "http://unitsofmeasure.org"
            }
          },
          {
            "high": {
              "value": 32,
              "code": "mmol/L",
              "system": "http://unitsofmeasure.org"
            }
          }
        ],
        "text": {
          "status": "generated",
          "div": "<div xmlns=\"http://www.w3.org/1999/xhtml\"><table class=\"hl7__eu__lab__report\"><tr><th>Test</th><th>28-Mar-2023</th><th>Reference&#xA0;Range</th><th>Unit</th></tr><tr><td>Carbon dioxide, total [Moles/volume] in Serum or Plasma</td><td>23.5</td><td>22 - 32</td><td></td><td>mmol/L</td></tr></table></div>"
        },
        "status": "final",
        "subject": {
          "reference": "urn:uuid:f6d801d4-009d-48a5-bb07-93381a5533df",
          "display": "Meaghan Neary"
        },
        "effectiveDateTime": "2023-03-27T22:11:04Z",
        "specimen": {
          "reference": "urn:uuid:ecbb7c89-01fd-4f08-a0f0-0b54e375cb34"
        }
      }
    },
    {
      "fullUrl": "urn:uuid:29925cdf-910a-4289-a9ad-c8ad44f5d32f",
      "resource": {
        "resourceType": "Observation",
        "id": "29925cdf-910a-4289-a9ad-c8ad44f5d32f",
        "meta": {
          "profile": [
            "http://hl7.eu/fhir/laboratory/StructureDefinition/Observation-resultslab-eu-lab"
          ]
        },
        "performer": [
          {
            "display": "The Central European Lab"
          }
        ],
        "category": [
          {
            "coding": [
              {
                "system": "http://terminology.hl7.org/CodeSystem/observation-category",
                "code": "laboratory"
              }
            ]
          }
        ],
        "code": {
          "coding": [
            {
              "code": "5767-9",
              "system": "http://loinc.org",
              "display": "Appearance of Urine"
            }
          ],
          "text": "Appearance of Urine"
        },
        "text": {
          "status": "generated",
          "div": "<div xmlns=\"http://www.w3.org/1999/xhtml\"><table class=\"hl7__eu__lab__report\"><tr><th>Test</th><th>28-Mar-2023</th><th>Reference&#xA0;Range</th><th>Unit</th></tr><tr><td>Appearance of Urine</td></tr></table></div>"
        },
        "status": "final",
        "subject": {
          "reference": "urn:uuid:f6d801d4-009d-48a5-bb07-93381a5533df",
          "display": "Meaghan Neary"
        },
        "effectiveDateTime": "2023-03-27T22:11:04Z",
        "specimen": {
          "reference": "urn:uuid:098a557b-9880-4c63-a98e-cd18763e0758"
        }
      }
    },
    {
      "fullUrl": "urn:uuid:f8a41db0-dcfe-4ba7-b4a3-d9c192a494d5",
      "resource": {
        "resourceType": "Observation",
        "id": "f8a41db0-dcfe-4ba7-b4a3-d9c192a494d5",
        "meta": {
          "profile": [
            "http://hl7.eu/fhir/laboratory/StructureDefinition/Observation-resultslab-eu-lab"
          ]
        },
        "performer": [
          {
            "display": "The Central European Lab"
          }
        ],
        "category": [
          {
            "coding": [
              {
                "system": "http://terminology.hl7.org/CodeSystem/observation-category",
                "code": "laboratory"
              }
            ]
          }
        ],
        "code": {
          "coding": [
            {
              "code": "34533-0",
              "system": "http://loinc.org",
              "display": "Odor of Urine"
            }
          ],
          "text": "Odor of Urine"
        },
        "text": {
          "status": "generated",
          "div": "<div xmlns=\"http://www.w3.org/1999/xhtml\"><table class=\"hl7__eu__lab__report\"><tr><th>Test</th><th>28-Mar-2023</th><th>Reference&#xA0;Range</th><th>Unit</th></tr><tr><td>Odor of Urine</td></tr></table></div>"
        },
        "status": "final",
        "subject": {
          "reference": "urn:uuid:f6d801d4-009d-48a5-bb07-93381a5533df",
          "display": "Meaghan Neary"
        },
        "effectiveDateTime": "2023-03-27T22:11:04Z",
        "specimen": {
          "reference": "urn:uuid:098a557b-9880-4c63-a98e-cd18763e0758"
        }
      }
    },
    {
      "fullUrl": "urn:uuid:fa0c080a-7296-4697-b0f5-051a16d08ed7",
      "resource": {
        "resourceType": "Observation",
        "id": "fa0c080a-7296-4697-b0f5-051a16d08ed7",
        "meta": {
          "profile": [
            "http://hl7.eu/fhir/laboratory/StructureDefinition/Observation-resultslab-eu-lab"
          ]
        },
        "performer": [
          {
            "display": "The Central European Lab"
          }
        ],
        "category": [
          {
            "coding": [
              {
                "system": "http://terminology.hl7.org/CodeSystem/observation-category",
                "code": "laboratory"
              }
            ]
          }
        ],
        "code": {
          "coding": [
            {
              "code": "32167-9",
              "system": "http://loinc.org",
              "display": "Clarity of Urine"
            }
          ],
          "text": "Clarity of Urine"
        },
        "text": {
          "status": "generated",
          "div": "<div xmlns=\"http://www.w3.org/1999/xhtml\"><table class=\"hl7__eu__lab__report\"><tr><th>Test</th><th>28-Mar-2023</th><th>Reference&#xA0;Range</th><th>Unit</th></tr><tr><td>Clarity of Urine</td></tr></table></div>"
        },
        "status": "final",
        "subject": {
          "reference": "urn:uuid:f6d801d4-009d-48a5-bb07-93381a5533df",
          "display": "Meaghan Neary"
        },
        "effectiveDateTime": "2023-03-27T22:11:04Z",
        "specimen": {
          "reference": "urn:uuid:098a557b-9880-4c63-a98e-cd18763e0758"
        }
      }
    },
    {
      "fullUrl": "urn:uuid:b3f858ae-a4c3-48bd-b1fc-302fb5c25c83",
      "resource": {
        "resourceType": "Observation",
        "id": "b3f858ae-a4c3-48bd-b1fc-302fb5c25c83",
        "meta": {
          "profile": [
            "http://hl7.eu/fhir/laboratory/StructureDefinition/Observation-resultslab-eu-lab"
          ]
        },
        "performer": [
          {
            "display": "The Central European Lab"
          }
        ],
        "category": [
          {
            "coding": [
              {
                "system": "http://terminology.hl7.org/CodeSystem/observation-category",
                "code": "laboratory"
              }
            ]
          }
        ],
        "code": {
          "coding": [
            {
              "code": "5778-6",
              "system": "http://loinc.org",
              "display": "Color of Urine"
            }
          ],
          "text": "Color of Urine"
        },
        "text": {
          "status": "generated",
          "div": "<div xmlns=\"http://www.w3.org/1999/xhtml\"><table class=\"hl7__eu__lab__report\"><tr><th>Test</th><th>28-Mar-2023</th><th>Reference&#xA0;Range</th><th>Unit</th></tr><tr><td>Color of Urine</td></tr></table></div>"
        },
        "status": "final",
        "subject": {
          "reference": "urn:uuid:f6d801d4-009d-48a5-bb07-93381a5533df",
          "display": "Meaghan Neary"
        },
        "effectiveDateTime": "2023-03-27T22:11:04Z",
        "specimen": {
          "reference": "urn:uuid:098a557b-9880-4c63-a98e-cd18763e0758"
        }
      }
    },
    {
      "fullUrl": "urn:uuid:00e14c57-9bc9-4455-be93-5075ea87d252",
      "resource": {
        "resourceType": "Observation",
        "id": "00e14c57-9bc9-4455-be93-5075ea87d252",
        "meta": {
          "profile": [
            "http://hl7.eu/fhir/laboratory/StructureDefinition/Observation-resultslab-eu-lab"
          ]
        },
        "performer": [
          {
            "display": "The Central European Lab"
          }
        ],
        "category": [
          {
            "coding": [
              {
                "system": "http://terminology.hl7.org/CodeSystem/observation-category",
                "code": "laboratory"
              }
            ]
          }
        ],
        "code": {
          "coding": [
            {
              "code": "5792-7",
              "system": "http://loinc.org",
              "display": "Glucose [Mass/volume] in Urine by Test strip"
            }
          ],
          "text": "Glucose [Mass/volume] in Urine by Test strip"
        },
        "valueQuantity": {
          "system": "http://unitsofmeasure.org",
          "value": 0.9,
          "unit": "mg/dL",
          "code": "mg/dL"
        },
        "referenceRange": [
          {
            "low": {
              "value": 0.8,
              "code": "mg/dL",
              "system": "http://unitsofmeasure.org"
            }
          },
          {
            "high": {
              "value": 0,
              "code": "mg/dL",
              "system": "http://unitsofmeasure.org"
            }
          }
        ],
        "interpretation": [
          {
            "coding": [
              {
                "code": "H",
                "system": "http://terminology.hl7.org/CodeSystem/v3-ObservationInterpretation",
                "display": "High"
              }
            ]
          }
        ],
        "text": {
          "status": "generated",
          "div": "<div xmlns=\"http://www.w3.org/1999/xhtml\"><table class=\"hl7__eu__lab__report\"><tr><th>Test</th><th>28-Mar-2023</th><th>Reference&#xA0;Range</th><th>Unit</th></tr><tr><td>Glucose [Mass/volume] in Urine by Test strip</td><td>0.9</td><td>0.8 - 0</td><td>H</td><td>mg/dL</td></tr></table></div>"
        },
        "status": "final",
        "subject": {
          "reference": "urn:uuid:f6d801d4-009d-48a5-bb07-93381a5533df",
          "display": "Meaghan Neary"
        },
        "effectiveDateTime": "2023-03-27T22:11:04Z",
        "specimen": {
          "reference": "urn:uuid:098a557b-9880-4c63-a98e-cd18763e0758"
        }
      }
    },
    {
      "fullUrl": "urn:uuid:c73e1af8-323b-4b45-ae89-b72aea237603",
      "resource": {
        "resourceType": "Observation",
        "id": "c73e1af8-323b-4b45-ae89-b72aea237603",
        "meta": {
          "profile": [
            "http://hl7.eu/fhir/laboratory/StructureDefinition/Observation-resultslab-eu-lab"
          ]
        },
        "performer": [
          {
            "display": "The Central European Lab"
          }
        ],
        "category": [
          {
            "coding": [
              {
                "system": "http://terminology.hl7.org/CodeSystem/observation-category",
                "code": "laboratory"
              }
            ]
          }
        ],
        "code": {
          "coding": [
            {
              "code": "25428-4",
              "system": "http://loinc.org",
              "display": "Glucose [Presence] in Urine by Test strip"
            }
          ],
          "text": "Glucose [Presence] in Urine by Test strip"
        },
        "text": {
          "status": "generated",
          "div": "<div xmlns=\"http://www.w3.org/1999/xhtml\"><table class=\"hl7__eu__lab__report\"><tr><th>Test</th><th>28-Mar-2023</th><th>Reference&#xA0;Range</th><th>Unit</th></tr><tr><td>Glucose [Presence] in Urine by Test strip</td></tr></table></div>"
        },
        "status": "final",
        "subject": {
          "reference": "urn:uuid:f6d801d4-009d-48a5-bb07-93381a5533df",
          "display": "Meaghan Neary"
        },
        "effectiveDateTime": "2023-03-27T22:11:04Z",
        "specimen": {
          "reference": "urn:uuid:098a557b-9880-4c63-a98e-cd18763e0758"
        }
      }
    },
    {
      "fullUrl": "urn:uuid:e6da4644-3ded-4810-bce3-ff2672a76829",
      "resource": {
        "resourceType": "Observation",
        "id": "e6da4644-3ded-4810-bce3-ff2672a76829",
        "meta": {
          "profile": [
            "http://hl7.eu/fhir/laboratory/StructureDefinition/Observation-resultslab-eu-lab"
          ]
        },
        "performer": [
          {
            "display": "The Central European Lab"
          }
        ],
        "category": [
          {
            "coding": [
              {
                "system": "http://terminology.hl7.org/CodeSystem/observation-category",
                "code": "laboratory"
              }
            ]
          }
        ],
        "code": {
          "coding": [
            {
              "code": "20505-4",
              "system": "http://loinc.org",
              "display": "Bilirubin.total [Mass/volume] in Urine by Test strip"
            }
          ],
          "text": "Bilirubin.total [Mass/volume] in Urine by Test strip"
        },
        "valueQuantity": {
          "system": "http://unitsofmeasure.org",
          "value": 1.3,
          "unit": "mg/dL",
          "code": "mg/dL"
        },
        "referenceRange": [
          {
            "low": {
              "value": 0,
              "code": "mg/dL",
              "system": "http://unitsofmeasure.org"
            }
          },
          {
            "high": {
              "value": 1,
              "code": "mg/dL",
              "system": "http://unitsofmeasure.org"
            }
          }
        ],
        "interpretation": [
          {
            "coding": [
              {
                "code": "H",
                "system": "http://terminology.hl7.org/CodeSystem/v3-ObservationInterpretation",
                "display": "High"
              }
            ]
          }
        ],
        "text": {
          "status": "generated",
          "div": "<div xmlns=\"http://www.w3.org/1999/xhtml\"><table class=\"hl7__eu__lab__report\"><tr><th>Test</th><th>28-Mar-2023</th><th>Reference&#xA0;Range</th><th>Unit</th></tr><tr><td>Bilirubin.total [Mass/volume] in Urine by Test strip</td><td>1.3</td><td>0 - 1</td><td>H</td><td>mg/dL</td></tr></table></div>"
        },
        "status": "final",
        "subject": {
          "reference": "urn:uuid:f6d801d4-009d-48a5-bb07-93381a5533df",
          "display": "Meaghan Neary"
        },
        "effectiveDateTime": "2023-03-27T22:11:04Z",
        "specimen": {
          "reference": "urn:uuid:098a557b-9880-4c63-a98e-cd18763e0758"
        }
      }
    },
    {
      "fullUrl": "urn:uuid:2b5a3e48-d91f-4027-a1e0-470324368f15",
      "resource": {
        "resourceType": "Observation",
        "id": "2b5a3e48-d91f-4027-a1e0-470324368f15",
        "meta": {
          "profile": [
            "http://hl7.eu/fhir/laboratory/StructureDefinition/Observation-resultslab-eu-lab"
          ]
        },
        "performer": [
          {
            "display": "The Central European Lab"
          }
        ],
        "category": [
          {
            "coding": [
              {
                "system": "http://terminology.hl7.org/CodeSystem/observation-category",
                "code": "laboratory"
              }
            ]
          }
        ],
        "code": {
          "coding": [
            {
              "code": "5770-3",
              "system": "http://loinc.org",
              "display": "Bilirubin.total [Presence] in Urine by Test strip"
            }
          ],
          "text": "Bilirubin.total [Presence] in Urine by Test strip"
        },
        "text": {
          "status": "generated",
          "div": "<div xmlns=\"http://www.w3.org/1999/xhtml\"><table class=\"hl7__eu__lab__report\"><tr><th>Test</th><th>28-Mar-2023</th><th>Reference&#xA0;Range</th><th>Unit</th></tr><tr><td>Bilirubin.total [Presence] in Urine by Test strip</td></tr></table></div>"
        },
        "status": "final",
        "subject": {
          "reference": "urn:uuid:f6d801d4-009d-48a5-bb07-93381a5533df",
          "display": "Meaghan Neary"
        },
        "effectiveDateTime": "2023-03-27T22:11:04Z",
        "specimen": {
          "reference": "urn:uuid:098a557b-9880-4c63-a98e-cd18763e0758"
        }
      }
    },
    {
      "fullUrl": "urn:uuid:4e0a628e-1e43-4e70-9c70-874f973dee43",
      "resource": {
        "resourceType": "Observation",
        "id": "4e0a628e-1e43-4e70-9c70-874f973dee43",
        "meta": {
          "profile": [
            "http://hl7.eu/fhir/laboratory/StructureDefinition/Observation-resultslab-eu-lab"
          ]
        },
        "performer": [
          {
            "display": "The Central European Lab"
          }
        ],
        "category": [
          {
            "coding": [
              {
                "system": "http://terminology.hl7.org/CodeSystem/observation-category",
                "code": "laboratory"
              }
            ]
          }
        ],
        "code": {
          "coding": [
            {
              "code": "5797-6",
              "system": "http://loinc.org",
              "display": "Ketones [Mass/volume] in Urine by Test strip"
            }
          ],
          "text": "Ketones [Mass/volume] in Urine by Test strip"
        },
        "valueQuantity": {
          "system": "http://unitsofmeasure.org",
          "value": 0.5,
          "unit": "mg/dL",
          "code": "mg/dL"
        },
        "referenceRange": [
          {
            "low": {
              "value": 0,
              "code": "mg/dL",
              "system": "http://unitsofmeasure.org"
            }
          },
          {
            "high": {
              "value": 4,
              "code": "mg/dL",
              "system": "http://unitsofmeasure.org"
            }
          }
        ],
        "text": {
          "status": "generated",
          "div": "<div xmlns=\"http://www.w3.org/1999/xhtml\"><table class=\"hl7__eu__lab__report\"><tr><th>Test</th><th>28-Mar-2023</th><th>Reference&#xA0;Range</th><th>Unit</th></tr><tr><td>Ketones [Mass/volume] in Urine by Test strip</td><td>0.5</td><td>0 - 4</td><td></td><td>mg/dL</td></tr></table></div>"
        },
        "status": "final",
        "subject": {
          "reference": "urn:uuid:f6d801d4-009d-48a5-bb07-93381a5533df",
          "display": "Meaghan Neary"
        },
        "effectiveDateTime": "2023-03-27T22:11:04Z",
        "specimen": {
          "reference": "urn:uuid:098a557b-9880-4c63-a98e-cd18763e0758"
        }
      }
    },
    {
      "fullUrl": "urn:uuid:a80bb9e1-3539-4edb-bedd-b09a9759640e",
      "resource": {
        "resourceType": "Observation",
        "id": "a80bb9e1-3539-4edb-bedd-b09a9759640e",
        "meta": {
          "profile": [
            "http://hl7.eu/fhir/laboratory/StructureDefinition/Observation-resultslab-eu-lab"
          ]
        },
        "performer": [
          {
            "display": "The Central European Lab"
          }
        ],
        "category": [
          {
            "coding": [
              {
                "system": "http://terminology.hl7.org/CodeSystem/observation-category",
                "code": "laboratory"
              }
            ]
          }
        ],
        "code": {
          "coding": [
            {
              "code": "2514-8",
              "system": "http://loinc.org",
              "display": "Ketones [Presence] in Urine by Test strip"
            }
          ],
          "text": "Ketones [Presence] in Urine by Test strip"
        },
        "text": {
          "status": "generated",
          "div": "<div xmlns=\"http://www.w3.org/1999/xhtml\"><table class=\"hl7__eu__lab__report\"><tr><th>Test</th><th>28-Mar-2023</th><th>Reference&#xA0;Range</th><th>Unit</th></tr><tr><td>Ketones [Presence] in Urine by Test strip</td></tr></table></div>"
        },
        "status": "final",
        "subject": {
          "reference": "urn:uuid:f6d801d4-009d-48a5-bb07-93381a5533df",
          "display": "Meaghan Neary"
        },
        "effectiveDateTime": "2023-03-27T22:11:04Z",
        "specimen": {
          "reference": "urn:uuid:098a557b-9880-4c63-a98e-cd18763e0758"
        }
      }
    },
    {
      "fullUrl": "urn:uuid:670fbd14-ed4e-4099-9373-a6b588abd957",
      "resource": {
        "resourceType": "Observation",
        "id": "670fbd14-ed4e-4099-9373-a6b588abd957",
        "meta": {
          "profile": [
            "http://hl7.eu/fhir/laboratory/StructureDefinition/Observation-resultslab-eu-lab"
          ]
        },
        "performer": [
          {
            "display": "The Central European Lab"
          }
        ],
        "category": [
          {
            "coding": [
              {
                "system": "http://terminology.hl7.org/CodeSystem/observation-category",
                "code": "laboratory"
              }
            ]
          }
        ],
        "code": {
          "coding": [
            {
              "code": "5811-5",
              "system": "http://loinc.org",
              "display": "Specific gravity of Urine by Test strip"
            }
          ],
          "text": "Specific gravity of Urine by Test strip"
        },
        "valueQuantity": {
          "system": "http://unitsofmeasure.org",
          "value": 1,
          "unit": "{nominal}",
          "code": "{nominal}"
        },
        "referenceRange": [
          {
            "low": {
              "value": 1.005,
              "code": "g/mL",
              "system": "http://unitsofmeasure.org"
            }
          },
          {
            "high": {
              "value": 1.03,
              "code": "g/mL",
              "system": "http://unitsofmeasure.org"
            }
          }
        ],
        "interpretation": [
          {
            "coding": [
              {
                "code": "L",
                "system": "http://terminology.hl7.org/CodeSystem/v3-ObservationInterpretation",
                "display": "Low"
              }
            ]
          }
        ],
        "text": {
          "status": "generated",
          "div": "<div xmlns=\"http://www.w3.org/1999/xhtml\"><table class=\"hl7__eu__lab__report\"><tr><th>Test</th><th>28-Mar-2023</th><th>Reference&#xA0;Range</th><th>Unit</th></tr><tr><td>Specific gravity of Urine by Test strip</td><td>1.0</td><td>1.005 - 1.03</td><td>L</td><td>{nominal}</td></tr></table></div>"
        },
        "status": "final",
        "subject": {
          "reference": "urn:uuid:f6d801d4-009d-48a5-bb07-93381a5533df",
          "display": "Meaghan Neary"
        },
        "effectiveDateTime": "2023-03-27T22:11:04Z",
        "specimen": {
          "reference": "urn:uuid:098a557b-9880-4c63-a98e-cd18763e0758"
        }
      }
    },
    {
      "fullUrl": "urn:uuid:369ea840-9fcb-4702-b141-12d376ee6447",
      "resource": {
        "resourceType": "Observation",
        "id": "369ea840-9fcb-4702-b141-12d376ee6447",
        "meta": {
          "profile": [
            "http://hl7.eu/fhir/laboratory/StructureDefinition/Observation-resultslab-eu-lab"
          ]
        },
        "performer": [
          {
            "display": "The Central European Lab"
          }
        ],
        "category": [
          {
            "coding": [
              {
                "system": "http://terminology.hl7.org/CodeSystem/observation-category",
                "code": "laboratory"
              }
            ]
          }
        ],
        "code": {
          "coding": [
            {
              "code": "5803-2",
              "system": "http://loinc.org",
              "display": "pH of Urine by Test strip"
            }
          ],
          "text": "pH of Urine by Test strip"
        },
        "valueQuantity": {
          "system": "http://unitsofmeasure.org",
          "value": 6.4,
          "unit": "pH",
          "code": "pH"
        },
        "referenceRange": [
          {
            "low": {
              "value": 4.6,
              "code": "pH",
              "system": "http://unitsofmeasure.org"
            }
          },
          {
            "high": {
              "value": 7,
              "code": "pH",
              "system": "http://unitsofmeasure.org"
            }
          }
        ],
        "text": {
          "status": "generated",
          "div": "<div xmlns=\"http://www.w3.org/1999/xhtml\"><table class=\"hl7__eu__lab__report\"><tr><th>Test</th><th>28-Mar-2023</th><th>Reference&#xA0;Range</th><th>Unit</th></tr><tr><td>pH of Urine by Test strip</td><td>6.4</td><td>4.6 - 7</td><td></td><td>pH</td></tr></table></div>"
        },
        "status": "final",
        "subject": {
          "reference": "urn:uuid:f6d801d4-009d-48a5-bb07-93381a5533df",
          "display": "Meaghan Neary"
        },
        "effectiveDateTime": "2023-03-27T22:11:04Z",
        "specimen": {
          "reference": "urn:uuid:098a557b-9880-4c63-a98e-cd18763e0758"
        }
      }
    },
    {
      "fullUrl": "urn:uuid:d1080899-d8c6-4bd2-a64c-9abd432b2188",
      "resource": {
        "resourceType": "Observation",
        "id": "d1080899-d8c6-4bd2-a64c-9abd432b2188",
        "meta": {
          "profile": [
            "http://hl7.eu/fhir/laboratory/StructureDefinition/Observation-resultslab-eu-lab"
          ]
        },
        "performer": [
          {
            "display": "The Central European Lab"
          }
        ],
        "category": [
          {
            "coding": [
              {
                "system": "http://terminology.hl7.org/CodeSystem/observation-category",
                "code": "laboratory"
              }
            ]
          }
        ],
        "code": {
          "coding": [
            {
              "code": "5804-0",
              "system": "http://loinc.org",
              "display": "Protein [Mass/volume] in Urine by Test strip"
            }
          ],
          "text": "Protein [Mass/volume] in Urine by Test strip"
        },
        "valueQuantity": {
          "system": "http://unitsofmeasure.org",
          "value": 289.3,
          "unit": "mg/dL",
          "code": "mg/dL"
        },
        "referenceRange": [
          {
            "low": {
              "value": 0,
              "code": "mg/dL",
              "system": "http://unitsofmeasure.org"
            }
          },
          {
            "high": {
              "value": 14,
              "code": "mg/dL",
              "system": "http://unitsofmeasure.org"
            }
          }
        ],
        "interpretation": [
          {
            "coding": [
              {
                "code": "H",
                "system": "http://terminology.hl7.org/CodeSystem/v3-ObservationInterpretation",
                "display": "High"
              }
            ]
          }
        ],
        "text": {
          "status": "generated",
          "div": "<div xmlns=\"http://www.w3.org/1999/xhtml\"><table class=\"hl7__eu__lab__report\"><tr><th>Test</th><th>28-Mar-2023</th><th>Reference&#xA0;Range</th><th>Unit</th></tr><tr><td>Protein [Mass/volume] in Urine by Test strip</td><td>289.3</td><td>0 - 14</td><td>H</td><td>mg/dL</td></tr></table></div>"
        },
        "status": "final",
        "subject": {
          "reference": "urn:uuid:f6d801d4-009d-48a5-bb07-93381a5533df",
          "display": "Meaghan Neary"
        },
        "effectiveDateTime": "2023-03-27T22:11:04Z",
        "specimen": {
          "reference": "urn:uuid:098a557b-9880-4c63-a98e-cd18763e0758"
        }
      }
    },
    {
      "fullUrl": "urn:uuid:7747abaa-3952-45ab-bf8b-f97525d9f892",
      "resource": {
        "resourceType": "Observation",
        "id": "7747abaa-3952-45ab-bf8b-f97525d9f892",
        "meta": {
          "profile": [
            "http://hl7.eu/fhir/laboratory/StructureDefinition/Observation-resultslab-eu-lab"
          ]
        },
        "performer": [
          {
            "display": "The Central European Lab"
          }
        ],
        "category": [
          {
            "coding": [
              {
                "system": "http://terminology.hl7.org/CodeSystem/observation-category",
                "code": "laboratory"
              }
            ]
          }
        ],
        "code": {
          "coding": [
            {
              "code": "20454-5",
              "system": "http://loinc.org",
              "display": "Protein [Presence] in Urine by Test strip"
            }
          ],
          "text": "Protein [Presence] in Urine by Test strip"
        },
        "text": {
          "status": "generated",
          "div": "<div xmlns=\"http://www.w3.org/1999/xhtml\"><table class=\"hl7__eu__lab__report\"><tr><th>Test</th><th>28-Mar-2023</th><th>Reference&#xA0;Range</th><th>Unit</th></tr><tr><td>Protein [Presence] in Urine by Test strip</td></tr></table></div>"
        },
        "status": "final",
        "subject": {
          "reference": "urn:uuid:f6d801d4-009d-48a5-bb07-93381a5533df",
          "display": "Meaghan Neary"
        },
        "effectiveDateTime": "2023-03-27T22:11:04Z",
        "specimen": {
          "reference": "urn:uuid:098a557b-9880-4c63-a98e-cd18763e0758"
        }
      }
    },
    {
      "fullUrl": "urn:uuid:ba8cdacd-4525-4b89-a735-5b418a2483c1",
      "resource": {
        "resourceType": "Observation",
        "id": "ba8cdacd-4525-4b89-a735-5b418a2483c1",
        "meta": {
          "profile": [
            "http://hl7.eu/fhir/laboratory/StructureDefinition/Observation-resultslab-eu-lab"
          ]
        },
        "performer": [
          {
            "display": "The Central European Lab"
          }
        ],
        "category": [
          {
            "coding": [
              {
                "system": "http://terminology.hl7.org/CodeSystem/observation-category",
                "code": "laboratory"
              }
            ]
          }
        ],
        "code": {
          "coding": [
            {
              "code": "5802-4",
              "system": "http://loinc.org",
              "display": "Nitrite [Presence] in Urine by Test strip"
            }
          ],
          "text": "Nitrite [Presence] in Urine by Test strip"
        },
        "text": {
          "status": "generated",
          "div": "<div xmlns=\"http://www.w3.org/1999/xhtml\"><table class=\"hl7__eu__lab__report\"><tr><th>Test</th><th>28-Mar-2023</th><th>Reference&#xA0;Range</th><th>Unit</th></tr><tr><td>Nitrite [Presence] in Urine by Test strip</td></tr></table></div>"
        },
        "status": "final",
        "subject": {
          "reference": "urn:uuid:f6d801d4-009d-48a5-bb07-93381a5533df",
          "display": "Meaghan Neary"
        },
        "effectiveDateTime": "2023-03-27T22:11:04Z",
        "specimen": {
          "reference": "urn:uuid:098a557b-9880-4c63-a98e-cd18763e0758"
        }
      }
    },
    {
      "fullUrl": "urn:uuid:bc2760dc-c393-434e-9f5a-de9646decc01",
      "resource": {
        "resourceType": "Observation",
        "id": "bc2760dc-c393-434e-9f5a-de9646decc01",
        "meta": {
          "profile": [
            "http://hl7.eu/fhir/laboratory/StructureDefinition/Observation-resultslab-eu-lab"
          ]
        },
        "performer": [
          {
            "display": "The Central European Lab"
          }
        ],
        "category": [
          {
            "coding": [
              {
                "system": "http://terminology.hl7.org/CodeSystem/observation-category",
                "code": "laboratory"
              }
            ]
          }
        ],
        "code": {
          "coding": [
            {
              "code": "5794-3",
              "system": "http://loinc.org",
              "display": "Hemoglobin [Presence] in Urine by Test strip"
            }
          ],
          "text": "Hemoglobin [Presence] in Urine by Test strip"
        },
        "text": {
          "status": "generated",
          "div": "<div xmlns=\"http://www.w3.org/1999/xhtml\"><table class=\"hl7__eu__lab__report\"><tr><th>Test</th><th>28-Mar-2023</th><th>Reference&#xA0;Range</th><th>Unit</th></tr><tr><td>Hemoglobin [Presence] in Urine by Test strip</td></tr></table></div>"
        },
        "status": "final",
        "subject": {
          "reference": "urn:uuid:f6d801d4-009d-48a5-bb07-93381a5533df",
          "display": "Meaghan Neary"
        },
        "effectiveDateTime": "2023-03-27T22:11:04Z",
        "specimen": {
          "reference": "urn:uuid:098a557b-9880-4c63-a98e-cd18763e0758"
        }
      }
    },
    {
      "fullUrl": "urn:uuid:75f17297-bc9e-4207-a521-4a82eb5e6477",
      "resource": {
        "resourceType": "Observation",
        "id": "75f17297-bc9e-4207-a521-4a82eb5e6477",
        "meta": {
          "profile": [
            "http://hl7.eu/fhir/laboratory/StructureDefinition/Observation-resultslab-eu-lab"
          ]
        },
        "performer": [
          {
            "display": "The Central European Lab"
          }
        ],
        "category": [
          {
            "coding": [
              {
                "system": "http://terminology.hl7.org/CodeSystem/observation-category",
                "code": "laboratory"
              }
            ]
          }
        ],
        "code": {
          "coding": [
            {
              "code": "5799-2",
              "system": "http://loinc.org",
              "display": "Leukocyte esterase [Presence] in Urine by Test strip"
            }
          ],
          "text": "Leukocyte esterase [Presence] in Urine by Test strip"
        },
        "text": {
          "status": "generated",
          "div": "<div xmlns=\"http://www.w3.org/1999/xhtml\"><table class=\"hl7__eu__lab__report\"><tr><th>Test</th><th>28-Mar-2023</th><th>Reference&#xA0;Range</th><th>Unit</th></tr><tr><td>Leukocyte esterase [Presence] in Urine by Test strip</td></tr></table></div>"
        },
        "status": "final",
        "subject": {
          "reference": "urn:uuid:f6d801d4-009d-48a5-bb07-93381a5533df",
          "display": "Meaghan Neary"
        },
        "effectiveDateTime": "2023-03-27T22:11:04Z",
        "specimen": {
          "reference": "urn:uuid:098a557b-9880-4c63-a98e-cd18763e0758"
        }
      }
    },
    {
      "fullUrl": "urn:uuid:65ed58d0-ee26-483a-ac41-fa851e1877ef",
      "resource": {
        "resourceType": "Observation",
        "id": "65ed58d0-ee26-483a-ac41-fa851e1877ef",
        "meta": {
          "profile": [
            "http://hl7.eu/fhir/laboratory/StructureDefinition/Observation-resultslab-eu-lab"
          ]
        },
        "performer": [
          {
            "display": "The Central European Lab"
          }
        ],
        "category": [
          {
            "coding": [
              {
                "system": "http://terminology.hl7.org/CodeSystem/observation-category",
                "code": "laboratory"
              }
            ]
          }
        ],
        "code": {
          "coding": [
            {
              "code": "4548-4",
              "system": "http://loinc.org",
              "display": "Hemoglobin A1c/Hemoglobin.total in Blood"
            }
          ],
          "text": "Hemoglobin A1c/Hemoglobin.total in Blood"
        },
        "valueQuantity": {
          "system": "http://unitsofmeasure.org",
          "value": 3.4,
          "unit": "%",
          "code": "%"
        },
        "referenceRange": [
          {
            "low": {
              "value": 4,
              "code": "%",
              "system": "http://unitsofmeasure.org"
            }
          },
          {
            "high": {
              "value": 6.4,
              "code": "%",
              "system": "http://unitsofmeasure.org"
            }
          }
        ],
        "interpretation": [
          {
            "coding": [
              {
                "code": "L",
                "system": "http://terminology.hl7.org/CodeSystem/v3-ObservationInterpretation",
                "display": "Low"
              }
            ]
          }
        ],
        "text": {
          "status": "generated",
          "div": "<div xmlns=\"http://www.w3.org/1999/xhtml\"><table class=\"hl7__eu__lab__report\"><tr><th>Test</th><th>28-Mar-2023</th><th>Reference&#xA0;Range</th><th>Unit</th></tr><tr><td>Hemoglobin A1c/Hemoglobin.total in Blood</td><td>3.4</td><td>4 - 6.4</td><td>L</td><td>%</td></tr></table></div>"
        },
        "status": "final",
        "subject": {
          "reference": "urn:uuid:f6d801d4-009d-48a5-bb07-93381a5533df",
          "display": "Meaghan Neary"
        },
        "effectiveDateTime": "2023-03-27T22:11:04Z",
        "specimen": {
          "reference": "urn:uuid:e34cef92-5d59-4d25-ab2f-95ff19ab4f1f"
        }
      }
    },
    {
      "fullUrl": "urn:uuid:d4a12281-84a8-4907-b0d7-1f6c7c2d878f",
      "resource": {
        "resourceType": "Observation",
        "id": "d4a12281-84a8-4907-b0d7-1f6c7c2d878f",
        "meta": {
          "profile": [
            "http://hl7.eu/fhir/laboratory/StructureDefinition/Observation-resultslab-eu-lab"
          ]
        },
        "performer": [
          {
            "display": "The Central European Lab"
          }
        ],
        "category": [
          {
            "coding": [
              {
                "system": "http://terminology.hl7.org/CodeSystem/observation-category",
                "code": "laboratory"
              }
            ]
          }
        ],
        "code": {
          "coding": [
            {
              "code": "2339-0",
              "system": "http://loinc.org",
              "display": "Glucose [Mass/volume] in Blood"
            }
          ],
          "text": "Glucose [Mass/volume] in Blood"
        },
        "valueQuantity": {
          "system": "http://unitsofmeasure.org",
          "value": 92.3,
          "unit": "mg/dL",
          "code": "mg/dL"
        },
        "referenceRange": [
          {
            "low": {
              "value": 70,
              "code": "mg/dL",
              "system": "http://unitsofmeasure.org"
            }
          },
          {
            "high": {
              "value": 100,
              "code": "mg/dL",
              "system": "http://unitsofmeasure.org"
            }
          }
        ],
        "text": {
          "status": "generated",
          "div": "<div xmlns=\"http://www.w3.org/1999/xhtml\"><table class=\"hl7__eu__lab__report\"><tr><th>Test</th><th>28-Mar-2023</th><th>Reference&#xA0;Range</th><th>Unit</th></tr><tr><td>Glucose [Mass/volume] in Blood</td><td>92.3</td><td>70 - 100</td><td></td><td>mg/dL</td></tr></table></div>"
        },
        "status": "final",
        "subject": {
          "reference": "urn:uuid:f6d801d4-009d-48a5-bb07-93381a5533df",
          "display": "Meaghan Neary"
        },
        "effectiveDateTime": "2023-03-27T22:11:04Z",
        "specimen": {
          "reference": "urn:uuid:e34cef92-5d59-4d25-ab2f-95ff19ab4f1f"
        }
      }
    },
    {
      "fullUrl": "urn:uuid:ac9cb339-0f02-4afa-9639-a6c8b7753c38",
      "resource": {
        "resourceType": "Observation",
        "id": "ac9cb339-0f02-4afa-9639-a6c8b7753c38",
        "meta": {
          "profile": [
            "http://hl7.eu/fhir/laboratory/StructureDefinition/Observation-resultslab-eu-lab"
          ]
        },
        "performer": [
          {
            "display": "The Central European Lab"
          }
        ],
        "category": [
          {
            "coding": [
              {
                "system": "http://terminology.hl7.org/CodeSystem/observation-category",
                "code": "laboratory"
              }
            ]
          }
        ],
        "code": {
          "coding": [
            {
              "code": "6299-2",
              "system": "http://loinc.org",
              "display": "Urea nitrogen [Mass/volume] in Blood"
            }
          ],
          "text": "Urea nitrogen [Mass/volume] in Blood"
        },
        "valueQuantity": {
          "system": "http://unitsofmeasure.org",
          "value": 12.7,
          "unit": "mg/dL",
          "code": "mg/dL"
        },
        "referenceRange": [
          {
            "low": {
              "value": 7,
              "code": "mg/dL",
              "system": "http://unitsofmeasure.org"
            }
          },
          {
            "high": {
              "value": 43,
              "code": "mg/dL",
              "system": "http://unitsofmeasure.org"
            }
          }
        ],
        "text": {
          "status": "generated",
          "div": "<div xmlns=\"http://www.w3.org/1999/xhtml\"><table class=\"hl7__eu__lab__report\"><tr><th>Test</th><th>28-Mar-2023</th><th>Reference&#xA0;Range</th><th>Unit</th></tr><tr><td>Urea nitrogen [Mass/volume] in Blood</td><td>12.7</td><td>7 - 43</td><td></td><td>mg/dL</td></tr></table></div>"
        },
        "status": "final",
        "subject": {
          "reference": "urn:uuid:f6d801d4-009d-48a5-bb07-93381a5533df",
          "display": "Meaghan Neary"
        },
        "effectiveDateTime": "2023-03-27T22:11:04Z",
        "specimen": {
          "reference": "urn:uuid:e34cef92-5d59-4d25-ab2f-95ff19ab4f1f"
        }
      }
    },
    {
      "fullUrl": "urn:uuid:f4f7a3a7-cd36-4afb-855e-b66ba024b5f5",
      "resource": {
        "resourceType": "Observation",
        "id": "f4f7a3a7-cd36-4afb-855e-b66ba024b5f5",
        "meta": {
          "profile": [
            "http://hl7.eu/fhir/laboratory/StructureDefinition/Observation-resultslab-eu-lab"
          ]
        },
        "performer": [
          {
            "display": "The Central European Lab"
          }
        ],
        "category": [
          {
            "coding": [
              {
                "system": "http://terminology.hl7.org/CodeSystem/observation-category",
                "code": "laboratory"
              }
            ]
          }
        ],
        "code": {
          "coding": [
            {
              "code": "38483-4",
              "system": "http://loinc.org",
              "display": "Creatinine [Mass/volume] in Blood"
            }
          ],
          "text": "Creatinine [Mass/volume] in Blood"
        },
        "valueQuantity": {
          "system": "http://unitsofmeasure.org",
          "value": 4.3,
          "unit": "mg/dL",
          "code": "mg/dL"
        },
        "referenceRange": [
          {
            "low": {
              "value": 0.6,
              "code": "mg/dL",
              "system": "http://unitsofmeasure.org"
            }
          },
          {
            "high": {
              "value": 1.1,
              "code": "mg/dL",
              "system": "http://unitsofmeasure.org"
            }
          }
        ],
        "interpretation": [
          {
            "coding": [
              {
                "code": "H",
                "system": "http://terminology.hl7.org/CodeSystem/v3-ObservationInterpretation",
                "display": "High"
              }
            ]
          }
        ],
        "text": {
          "status": "generated",
          "div": "<div xmlns=\"http://www.w3.org/1999/xhtml\"><table class=\"hl7__eu__lab__report\"><tr><th>Test</th><th>28-Mar-2023</th><th>Reference&#xA0;Range</th><th>Unit</th></tr><tr><td>Creatinine [Mass/volume] in Blood</td><td>4.3</td><td>0.6 - 1.1</td><td>H</td><td>mg/dL</td></tr></table></div>"
        },
        "status": "final",
        "subject": {
          "reference": "urn:uuid:f6d801d4-009d-48a5-bb07-93381a5533df",
          "display": "Meaghan Neary"
        },
        "effectiveDateTime": "2023-03-27T22:11:04Z",
        "specimen": {
          "reference": "urn:uuid:e34cef92-5d59-4d25-ab2f-95ff19ab4f1f"
        }
      }
    },
    {
      "fullUrl": "urn:uuid:8b4d6d2f-97e0-4c4b-a09e-0522ea6fadc0",
      "resource": {
        "resourceType": "Observation",
        "id": "8b4d6d2f-97e0-4c4b-a09e-0522ea6fadc0",
        "meta": {
          "profile": [
            "http://hl7.eu/fhir/laboratory/StructureDefinition/Observation-resultslab-eu-lab"
          ]
        },
        "performer": [
          {
            "display": "The Central European Lab"
          }
        ],
        "category": [
          {
            "coding": [
              {
                "system": "http://terminology.hl7.org/CodeSystem/observation-category",
                "code": "laboratory"
              }
            ]
          }
        ],
        "code": {
          "coding": [
            {
              "code": "49765-1",
              "system": "http://loinc.org",
              "display": "Calcium [Mass/volume] in Blood"
            }
          ],
          "text": "Calcium [Mass/volume] in Blood"
        },
        "valueQuantity": {
          "system": "http://unitsofmeasure.org",
          "value": 9.2,
          "unit": "mg/dL",
          "code": "mg/dL"
        },
        "referenceRange": [
          {
            "low": {
              "value": 8.5,
              "code": "mg/dL",
              "system": "http://unitsofmeasure.org"
            }
          },
          {
            "high": {
              "value": 10.5,
              "code": "mg/dL",
              "system": "http://unitsofmeasure.org"
            }
          }
        ],
        "text": {
          "status": "generated",
          "div": "<div xmlns=\"http://www.w3.org/1999/xhtml\"><table class=\"hl7__eu__lab__report\"><tr><th>Test</th><th>28-Mar-2023</th><th>Reference&#xA0;Range</th><th>Unit</th></tr><tr><td>Calcium [Mass/volume] in Blood</td><td>9.2</td><td>8.5 - 10.5</td><td></td><td>mg/dL</td></tr></table></div>"
        },
        "status": "final",
        "subject": {
          "reference": "urn:uuid:f6d801d4-009d-48a5-bb07-93381a5533df",
          "display": "Meaghan Neary"
        },
        "effectiveDateTime": "2023-03-27T22:11:04Z",
        "specimen": {
          "reference": "urn:uuid:e34cef92-5d59-4d25-ab2f-95ff19ab4f1f"
        }
      }
    },
    {
      "fullUrl": "urn:uuid:f2dcd648-91a3-4047-aa85-387afb84db47",
      "resource": {
        "resourceType": "Observation",
        "id": "f2dcd648-91a3-4047-aa85-387afb84db47",
        "meta": {
          "profile": [
            "http://hl7.eu/fhir/laboratory/StructureDefinition/Observation-resultslab-eu-lab"
          ]
        },
        "performer": [
          {
            "display": "The Central European Lab"
          }
        ],
        "category": [
          {
            "coding": [
              {
                "system": "http://terminology.hl7.org/CodeSystem/observation-category",
                "code": "laboratory"
              }
            ]
          }
        ],
        "code": {
          "coding": [
            {
              "code": "2947-0",
              "system": "http://loinc.org",
              "display": "Sodium [Moles/volume] in Blood"
            }
          ],
          "text": "Sodium [Moles/volume] in Blood"
        },
        "valueQuantity": {
          "system": "http://unitsofmeasure.org",
          "value": 137.4,
          "unit": "mmol/L",
          "code": "mmol/L"
        },
        "referenceRange": [
          {
            "low": {
              "value": 135,
              "code": "mmol/L",
              "system": "http://unitsofmeasure.org"
            }
          },
          {
            "high": {
              "value": 145,
              "code": "mmol/L",
              "system": "http://unitsofmeasure.org"
            }
          }
        ],
        "text": {
          "status": "generated",
          "div": "<div xmlns=\"http://www.w3.org/1999/xhtml\"><table class=\"hl7__eu__lab__report\"><tr><th>Test</th><th>28-Mar-2023</th><th>Reference&#xA0;Range</th><th>Unit</th></tr><tr><td>Sodium [Moles/volume] in Blood</td><td>137.4</td><td>135 - 145</td><td></td><td>mmol/L</td></tr></table></div>"
        },
        "status": "final",
        "subject": {
          "reference": "urn:uuid:f6d801d4-009d-48a5-bb07-93381a5533df",
          "display": "Meaghan Neary"
        },
        "effectiveDateTime": "2023-03-27T22:11:04Z",
        "specimen": {
          "reference": "urn:uuid:e34cef92-5d59-4d25-ab2f-95ff19ab4f1f"
        }
      }
    },
    {
      "fullUrl": "urn:uuid:db45babf-c339-441b-ab61-3f52d8575618",
      "resource": {
        "resourceType": "Observation",
        "id": "db45babf-c339-441b-ab61-3f52d8575618",
        "meta": {
          "profile": [
            "http://hl7.eu/fhir/laboratory/StructureDefinition/Observation-resultslab-eu-lab"
          ]
        },
        "performer": [
          {
            "display": "The Central European Lab"
          }
        ],
        "category": [
          {
            "coding": [
              {
                "system": "http://terminology.hl7.org/CodeSystem/observation-category",
                "code": "laboratory"
              }
            ]
          }
        ],
        "code": {
          "coding": [
            {
              "code": "6298-4",
              "system": "http://loinc.org",
              "display": "Potassium [Moles/volume] in Blood"
            }
          ],
          "text": "Potassium [Moles/volume] in Blood"
        },
        "valueQuantity": {
          "system": "http://unitsofmeasure.org",
          "value": 3.7,
          "unit": "mmol/L",
          "code": "mmol/L"
        },
        "referenceRange": [
          {
            "low": {
              "value": 3.5,
              "code": "mmol/L",
              "system": "http://unitsofmeasure.org"
            }
          },
          {
            "high": {
              "value": 5.1,
              "code": "mmol/L",
              "system": "http://unitsofmeasure.org"
            }
          }
        ],
        "text": {
          "status": "generated",
          "div": "<div xmlns=\"http://www.w3.org/1999/xhtml\"><table class=\"hl7__eu__lab__report\"><tr><th>Test</th><th>28-Mar-2023</th><th>Reference&#xA0;Range</th><th>Unit</th></tr><tr><td>Potassium [Moles/volume] in Blood</td><td>3.7</td><td>3.5 - 5.1</td><td></td><td>mmol/L</td></tr></table></div>"
        },
        "status": "final",
        "subject": {
          "reference": "urn:uuid:f6d801d4-009d-48a5-bb07-93381a5533df",
          "display": "Meaghan Neary"
        },
        "effectiveDateTime": "2023-03-27T22:11:04Z",
        "specimen": {
          "reference": "urn:uuid:e34cef92-5d59-4d25-ab2f-95ff19ab4f1f"
        }
      }
    },
    {
      "fullUrl": "urn:uuid:2f98a4d9-d90a-48eb-854b-5261c4bf7104",
      "resource": {
        "resourceType": "Observation",
        "id": "2f98a4d9-d90a-48eb-854b-5261c4bf7104",
        "meta": {
          "profile": [
            "http://hl7.eu/fhir/laboratory/StructureDefinition/Observation-resultslab-eu-lab"
          ]
        },
        "performer": [
          {
            "display": "The Central European Lab"
          }
        ],
        "category": [
          {
            "coding": [
              {
                "system": "http://terminology.hl7.org/CodeSystem/observation-category",
                "code": "laboratory"
              }
            ]
          }
        ],
        "code": {
          "coding": [
            {
              "code": "2069-3",
              "system": "http://loinc.org",
              "display": "Chloride [Moles/volume] in Blood"
            }
          ],
          "text": "Chloride [Moles/volume] in Blood"
        },
        "valueQuantity": {
          "system": "http://unitsofmeasure.org",
          "value": 102.6,
          "unit": "mmol/L",
          "code": "mmol/L"
        },
        "referenceRange": [
          {
            "low": {
              "value": 98,
              "code": "mmol/L",
              "system": "http://unitsofmeasure.org"
            }
          },
          {
            "high": {
              "value": 108,
              "code": "mmol/L",
              "system": "http://unitsofmeasure.org"
            }
          }
        ],
        "text": {
          "status": "generated",
          "div": "<div xmlns=\"http://www.w3.org/1999/xhtml\"><table class=\"hl7__eu__lab__report\"><tr><th>Test</th><th>28-Mar-2023</th><th>Reference&#xA0;Range</th><th>Unit</th></tr><tr><td>Chloride [Moles/volume] in Blood</td><td>102.6</td><td>98 - 108</td><td></td><td>mmol/L</td></tr></table></div>"
        },
        "status": "final",
        "subject": {
          "reference": "urn:uuid:f6d801d4-009d-48a5-bb07-93381a5533df",
          "display": "Meaghan Neary"
        },
        "effectiveDateTime": "2023-03-27T22:11:04Z",
        "specimen": {
          "reference": "urn:uuid:e34cef92-5d59-4d25-ab2f-95ff19ab4f1f"
        }
      }
    },
    {
      "fullUrl": "urn:uuid:5beccc1a-9c7c-4521-ab38-be83587f2454",
      "resource": {
        "resourceType": "Observation",
        "id": "5beccc1a-9c7c-4521-ab38-be83587f2454",
        "meta": {
          "profile": [
            "http://hl7.eu/fhir/laboratory/StructureDefinition/Observation-resultslab-eu-lab"
          ]
        },
        "performer": [
          {
            "display": "The Central European Lab"
          }
        ],
        "category": [
          {
            "coding": [
              {
                "system": "http://terminology.hl7.org/CodeSystem/observation-category",
                "code": "laboratory"
              }
            ]
          }
        ],
        "code": {
          "coding": [
            {
              "code": "20565-8",
              "system": "http://loinc.org",
              "display": "Carbon dioxide, total [Moles/volume] in Blood"
            }
          ],
          "text": "Carbon dioxide, total [Moles/volume] in Blood"
        },
        "valueQuantity": {
          "system": "http://unitsofmeasure.org",
          "value": 23.5,
          "unit": "mmol/L",
          "code": "mmol/L"
        },
        "referenceRange": [
          {
            "low": {
              "value": 22,
              "code": "mmol/L",
              "system": "http://unitsofmeasure.org"
            }
          },
          {
            "high": {
              "value": 29,
              "code": "mmol/L",
              "system": "http://unitsofmeasure.org"
            }
          }
        ],
        "text": {
          "status": "generated",
          "div": "<div xmlns=\"http://www.w3.org/1999/xhtml\"><table class=\"hl7__eu__lab__report\"><tr><th>Test</th><th>28-Mar-2023</th><th>Reference&#xA0;Range</th><th>Unit</th></tr><tr><td>Carbon dioxide, total [Moles/volume] in Blood</td><td>23.5</td><td>22 - 29</td><td></td><td>mmol/L</td></tr></table></div>"
        },
        "status": "final",
        "subject": {
          "reference": "urn:uuid:f6d801d4-009d-48a5-bb07-93381a5533df",
          "display": "Meaghan Neary"
        },
        "effectiveDateTime": "2023-03-27T22:11:04Z",
        "specimen": {
          "reference": "urn:uuid:e34cef92-5d59-4d25-ab2f-95ff19ab4f1f"
        }
      }
    },
    {
      "fullUrl": "urn:uuid:36b8ad82-a005-463e-a0d9-71715b42fc90",
      "resource": {
        "resourceType": "Device",
        "id": "36b8ad82-a005-463e-a0d9-71715b42fc90",
        "deviceName": [
          {
            "name": "SYNDERAI Synthetic Generator",
            "type": "manufacturer-name"
          }
        ],
        "version": [
          {
            "value": "5.0"
          }
        ],
        "text": {
          "status": "generated",
          "div": "<div xmlns=\"http://www.w3.org/1999/xhtml\">SYNDERAI Synthetic Generator v5.0</div>"
        },
        "status": "active\"",
        "distinctIdentifier": "synderai-generator-50",
        "manufacturer": "SYNDERAI Project"
      }
    },
    {
      "fullUrl": "urn:uuid:56827489-a73c-48f4-936b-bc145f5a8c60",
      "resource": {
        "resourceType": "Provenance",
        "id": "56827489-a73c-48f4-936b-bc145f5a8c60",
        "target": [
          {
            "reference": "Patient/f6d801d4-009d-48a5-bb07-93381a5533df"
          },
          {
            "reference": "Bundle/9bc16955-5043-4721-b7c8-015866b47c2e"
          },
          {
            "reference": "Composition/0f6ab603-000b-4b40-a996-8d676715c7f8"
          },
          {
            "reference": "PractitionerRole/c2e4636c-64ce-455d-ac0a-8104eca0a24d"
          },
          {
            "reference": "Practitioner/073cd897-7259-4d2d-ada2-744b9ad53d97"
          },
          {
            "reference": "PractitionerRole/ea953753-4c71-4539-a4e4-54c889c09c21"
          },
          {
            "reference": "Organization/0b517a83-cb4a-4f55-b821-9e4ac9bc64cc"
          }
        ],
        "activity": {
          "text": "Synthetic Example Data Generation"
        },
        "policy": [
          "https://synderai.net/synderai-synthetic-data-policy"
        ],
        "agent": [
          {
            "type": {
              "text": "author"
            },
            "who": {
              "reference": "Device/36b8ad82-a005-463e-a0d9-71715b42fc90"
            }
          }
        ],
        "reason": [
          {
            "text": "Interoperability Testing and Training (non-clinical use)"
          }
        ],
        "text": {
          "status": "generated",
          "div": "<div xmlns=\"http://www.w3.org/1999/xhtml\">Provenance for SYNDERAI Synthetic Example Data Resource</div>"
        },
        "recorded": "2023-03-28T00:11:04Z"
      }
    },
    {
      "fullUrl": "urn:uuid:c2e4636c-64ce-455d-ac0a-8104eca0a24d",
      "resource": {
        "resourceType": "PractitionerRole",
        "id": "c2e4636c-64ce-455d-ac0a-8104eca0a24d",
        "meta": {
          "profile": [
            "http://hl7.eu/fhir/base/StructureDefinition/practitionerRole-eu"
          ]
        },
        "text": {
          "status": "generated",
          "div": "<div xmlns=\"http://www.w3.org/1999/xhtml\">Laboratory Role Id: c2e4636c-64ce-455d-ac0a-8104eca0a24d</div>"
        },
        "practitioner": {
          "reference": "urn:uuid:073cd897-7259-4d2d-ada2-744b9ad53d97"
        }
      }
    },
    {
      "fullUrl": "urn:uuid:073cd897-7259-4d2d-ada2-744b9ad53d97",
      "resource": {
        "resourceType": "Practitioner",
        "id": "073cd897-7259-4d2d-ada2-744b9ad53d97",
        "meta": {
          "profile": [
            "http://hl7.eu/fhir/base/StructureDefinition/practitioner-eu"
          ]
        },
        "identifier": [
          {
            "assigner": {
              "display": "HL7 Europe"
            },
            "system": "urn:oid:2.16.840.1.113883.2.51.999",
            "value": "1fa7e7b3-f612-4eef-ae4e-2157b30f061a"
          }
        ],
        "name": [
          {
            "prefix": [
              "dr"
            ],
            "given": [
              "Ex"
            ],
            "family": "Ample"
          }
        ],
        "address": [
          {
            "line": [
              "Laboratoire Central Européenne",
              "Boulevard du Jardin Botanique 32"
            ],
            "postalCode": "1000",
            "city": "Brussels",
            "country": "Belgium"
          }
        ],
        "text": {
          "status": "generated",
          "div": "<div xmlns=\"http://www.w3.org/1999/xhtml\">Laboratory: Laboratoire Central Européenne, 1000 Brussels, Belgium</div>"
        }
      }
    }
  ],
  "type": "document",
  "timestamp": "2023-03-28T00:11:04Z"
}
