{
  "resourceType": "Bundle",
  "id": "8dda1de6-09dd-4903-b78a-e2767879039b",
  "meta": {
    "profile": [
      "http://hl7.eu/fhir/laboratory/StructureDefinition/Bundle-eu-lab"
    ]
  },
  "identifier": {
    "assigner": {
      "display": "HL7 Europe"
    },
    "system": "urn:oid:2.16.840.1.113883.2.51.999",
    "value": "ed15451c-d25c-4056-878a-80a35c214784"
  },
  "entry": [
    {
      "fullUrl": "urn:uuid:003f611a-e593-4784-a411-93675ffd0eb1",
      "resource": {
        "resourceType": "Composition",
        "id": "003f611a-e593-4784-a411-93675ffd0eb1",
        "meta": {
          "profile": [
            "http://hl7.eu/fhir/laboratory/StructureDefinition/Composition-eu-lab"
          ]
        },
        "identifier": {
          "assigner": {
            "display": "HL7 Europe"
          },
          "system": "urn:oid:2.16.840.1.113883.2.51.999",
          "value": "51c399ee-6c04-4764-b9f7-9413dc041e4f"
        },
        "author": [
          {
            "reference": "urn:uuid:5f3fe248-a55b-481d-9555-d57b49e08b0c"
          }
        ],
        "category": [
          {
            "coding": [
              {
                "code": "26436-6",
                "system": "http://loinc.org",
                "display": "Laboratory studies (set)"
              }
            ]
          }
        ],
        "type": {
          "coding": [
            {
              "code": "11502-2",
              "system": "http://loinc.org",
              "display": "Laboratory report"
            }
          ],
          "text": "Laboratory Report"
        },
        "section": [
          {
            "code": {
              "coding": [
                {
                  "code": "26436-6",
                  "system": "http://loinc.org",
                  "display": "Laboratory studies (set)"
                }
              ],
              "text": "Laboratory studies"
            },
            "section": [
              {
                "code": {
                  "coding": [
                    {
                      "code": "$18723-7",
                      "system": "http://loinc.org",
                      "display": "Hematology studies (set)"
                    }
                  ],
                  "text": "Hematology"
                },
                "entry": [
                  {
                    "reference": "urn:uuid:c2b79539-7038-48f3-8ed6-7670d8267a74"
                  },
                  {
                    "reference": "urn:uuid:341d511c-6010-428c-a337-ff499c13172e"
                  },
                  {
                    "reference": "urn:uuid:19727a2f-636d-456c-9f6e-729a9854a8e0"
                  },
                  {
                    "reference": "urn:uuid:f69dc2ab-aef7-479f-af64-95ff3e459e0e"
                  },
                  {
                    "reference": "urn:uuid:c9d06534-9520-4d45-bae0-95ff3b4ac9f0"
                  },
                  {
                    "reference": "urn:uuid:d5ee28b1-89ce-4e81-b376-7f62618306e1"
                  },
                  {
                    "reference": "urn:uuid:df0cbfce-6b23-4e71-9778-64f612326a10"
                  },
                  {
                    "reference": "urn:uuid:5c100e68-30b8-4a1d-a3bd-2b5c81fa9b26"
                  },
                  {
                    "reference": "urn:uuid:28ddf5fd-8718-4bb0-ad4b-7f6f0eb5ee36"
                  },
                  {
                    "reference": "urn:uuid:8762c324-8382-4771-9f66-b6866847da4f"
                  },
                  {
                    "reference": "urn:uuid:9684e7bd-6a80-4c34-8a92-b410c2853e55"
                  }
                ],
                "text": {
                  "status": "generated",
                  "div": "<div xmlns=\"http://www.w3.org/1999/xhtml\"><h3>Hematology</h3><table class=\"hl7__eu__lab__report\"><thead><tr><th>Test</th><th>23-MAR-2023</th><th>Reference&#xA0;Range</th><th>Unit</th></tr></thead><tbody><tr><td>Leukocytes [#/volume] in Blood by Automated count</td><td>6.7</td><td>3.6 - 10.5</td><td>10*3/uL</td></tr><tr><td>Erythrocytes [#/volume] in Blood by Automated count</td><td>4.5</td><td>4 - 5.7</td><td>10*6/uL</td></tr><tr><td>Hemoglobin [Mass/volume] in Blood</td><td><strong>12.6 L</strong></td><td>13.8 - 17.5</td><td>g/dL</td></tr><tr><td>Hematocrit [Volume Fraction] of Blood by Automated count</td><td>39.4</td><td>37 - 52</td><td>%</td></tr><tr><td>MCV [Entitic volume] by Automated count</td><td>83.2</td><td>76 - 98</td><td>fL</td></tr><tr><td>MCH [Entitic mass] by Automated count</td><td>28.4</td><td>27 - 33</td><td>pg</td></tr><tr><td>MCHC [Mass/volume] by Automated count</td><td>35.3</td><td>31 - 36</td><td>g/dL</td></tr><tr><td>Erythrocyte distribution width [Entitic volume] by Automated count</td><td>39.8</td><td>36 - 55</td><td>fL</td></tr><tr><td>Platelets [#/volume] in Blood by Automated count</td><td>434.0</td><td>150 - 450</td><td>10*3/uL</td></tr><tr><td>Platelet distribution width [Entitic volume] in Blood by Automated count</td><td><strong>246.7 H</strong></td><td>13.4 - 17.4</td><td>fL</td></tr><tr><td>Platelet mean volume [Entitic volume] in Blood by Automated count</td><td>10.1</td><td>9.4 - 14</td><td>fL</td></tr></tbody></table></div>"
                },
                "title": "Hematology"
              },
              {
                "code": {
                  "coding": [
                    {
                      "code": "$18719-5",
                      "system": "http://loinc.org",
                      "display": "Chemistry studies (set)"
                    }
                  ],
                  "text": "Chemistry"
                },
                "entry": [
                  {
                    "reference": "urn:uuid:c731d96f-98de-4918-8fc0-d2bbd16603d6"
                  },
                  {
                    "reference": "urn:uuid:659c26be-fad9-45ee-8f78-efa79c67596c"
                  },
                  {
                    "reference": "urn:uuid:2b1fda3e-588c-46a5-9add-bb072ecbe3e1"
                  },
                  {
                    "reference": "urn:uuid:69171797-1f5a-40c4-8e94-8d3134b42a99"
                  },
                  {
                    "reference": "urn:uuid:057084da-08e4-42a2-9e57-a6da8d910ff1"
                  },
                  {
                    "reference": "urn:uuid:fab6ac4b-2e2c-45fe-841a-bcce230402cc"
                  },
                  {
                    "reference": "urn:uuid:c81d4332-f72c-4ea6-afc4-4c12417e3524"
                  },
                  {
                    "reference": "urn:uuid:c2763efd-7419-4bb7-ab2f-811ef8aa33ec"
                  },
                  {
                    "reference": "urn:uuid:82906b64-6182-4dd3-a544-4b97243faf95"
                  },
                  {
                    "reference": "urn:uuid:37c84be2-0ac4-41dc-8be1-c8c7006eeffa"
                  },
                  {
                    "reference": "urn:uuid:758f1fcc-fd24-449f-b42d-13747636001b"
                  },
                  {
                    "reference": "urn:uuid:92e86f05-cc98-484c-9c80-c34267703cd9"
                  },
                  {
                    "reference": "urn:uuid:a0fe143d-6e2e-478e-b69b-82f8950a7c02"
                  },
                  {
                    "reference": "urn:uuid:e752a5ba-526e-4712-bc84-613e13dacc49"
                  },
                  {
                    "reference": "urn:uuid:3ae9f2f6-0030-41f6-9676-d91f28933fc1"
                  },
                  {
                    "reference": "urn:uuid:aba5a56a-1854-446f-87dd-c0107389f0bc"
                  },
                  {
                    "reference": "urn:uuid:b82e92f7-8cd2-44c8-948f-693210fdab0c"
                  },
                  {
                    "reference": "urn:uuid:a8653e55-9775-4087-9885-d1c55138b2d1"
                  }
                ],
                "text": {
                  "status": "generated",
                  "div": "<div xmlns=\"http://www.w3.org/1999/xhtml\"><h3>Chemistry</h3><table class=\"hl7__eu__lab__report\"><thead><tr><th>Test</th><th>23-MAR-2023</th><th>Reference&#xA0;Range</th><th>Unit</th></tr></thead><tbody><tr><td>Glucose [Mass/volume] in Serum or Plasma</td><td>88.4</td><td>70 - 140</td><td>mg/dL</td></tr><tr><td>Urea nitrogen [Mass/volume] in Serum or Plasma</td><td>17.4</td><td>7 - 25</td><td>mg/dL</td></tr><tr><td>Creatinine [Mass/volume] in Serum or Plasma</td><td><strong>2.1 H</strong></td><td>0.9 - 1.3</td><td>mg/dL</td></tr><tr><td>Calcium [Mass/volume] in Serum or Plasma</td><td>9.3</td><td>8.5 - 10.5</td><td>mg/dL</td></tr><tr><td>Sodium [Moles/volume] in Serum or Plasma</td><td>136.4</td><td>135 - 145</td><td>mmol/L</td></tr><tr><td>Potassium [Moles/volume] in Serum or Plasma</td><td>3.7</td><td>3.5 - 5.3</td><td>mmol/L</td></tr><tr><td>Chloride [Moles/volume] in Serum or Plasma</td><td>104.1</td><td>98 - 107</td><td>mmol/L</td></tr><tr><td>Carbon dioxide, total [Moles/volume] in Serum or Plasma</td><td>25.5</td><td>22 - 29</td><td>mmol/L</td></tr><tr><td>Ketones [Presence] in Urine by Test strip</td><td>Urine ketone test = +</td><td></td><td></td></tr><tr><td>Hemoglobin A1c/Hemoglobin.total in Blood</td><td><strong>3.0 L</strong></td><td>4.5 - 6.4</td><td>%</td></tr><tr><td>Glucose [Mass/volume] in Blood</td><td>88.4</td><td>70 - 140</td><td>mg/dL</td></tr><tr><td>Urea nitrogen [Mass/volume] in Blood</td><td>17.4</td><td>7 - 25</td><td>mg/dL</td></tr><tr><td>Creatinine [Mass/volume] in Blood</td><td><strong>1.9 H</strong></td><td>0.9 - 1.3</td><td>mg/dL</td></tr><tr><td>Calcium [Mass/volume] in Blood</td><td>9.3</td><td>8.6 - 10.2</td><td>mg/dL</td></tr><tr><td>Sodium [Moles/volume] in Blood</td><td>136.4</td><td>135 - 145</td><td>mmol/L</td></tr><tr><td>Potassium [Moles/volume] in Blood</td><td>3.7</td><td>3.5 - 5.1</td><td>mmol/L</td></tr><tr><td>Chloride [Moles/volume] in Blood</td><td>104.1</td><td>98 - 108</td><td>mmol/L</td></tr><tr><td>Carbon dioxide, total [Moles/volume] in Blood</td><td>25.5</td><td>22 - 32</td><td>mmol/L</td></tr></tbody></table></div>"
                },
                "title": "Chemistry"
              },
              {
                "code": {
                  "coding": [
                    {
                      "code": "$18729-4",
                      "system": "http://loinc.org",
                      "display": "Urinalysis studies (set)"
                    }
                  ],
                  "text": "Urinalysis"
                },
                "entry": [
                  {
                    "reference": "urn:uuid:61d4db54-21ea-45be-832c-100cd9e5916a"
                  },
                  {
                    "reference": "urn:uuid:ddfce7fb-c761-4146-853a-91e888caa176"
                  },
                  {
                    "reference": "urn:uuid:6008efd2-3ca7-4068-ae83-0a67479f0bda"
                  },
                  {
                    "reference": "urn:uuid:95c45137-d894-41dd-b8a6-e472b8deda3e"
                  },
                  {
                    "reference": "urn:uuid:212d5f66-fc4f-4a79-a893-bac2d45b8299"
                  },
                  {
                    "reference": "urn:uuid:8d33702d-f2cc-4ec5-a426-e6e790f508c5"
                  },
                  {
                    "reference": "urn:uuid:4f1ee3d8-3024-4530-99d6-ed2543c7da08"
                  },
                  {
                    "reference": "urn:uuid:321e5038-b8db-4f00-8f53-6bbbb5e02c7c"
                  },
                  {
                    "reference": "urn:uuid:65c8b4ab-5248-42c2-9d8c-09e000cb8bc9"
                  },
                  {
                    "reference": "urn:uuid:20ec487a-65f7-4611-930c-f757705692c0"
                  },
                  {
                    "reference": "urn:uuid:78db1efa-62fd-436e-9640-9185cc6b100c"
                  },
                  {
                    "reference": "urn:uuid:d0e4dcc6-e8bf-4829-b6a3-4ae849adcebf"
                  }
                ],
                "text": {
                  "status": "generated",
                  "div": "<div xmlns=\"http://www.w3.org/1999/xhtml\"><h3>Urinalysis</h3><table class=\"hl7__eu__lab__report\"><thead><tr><th>Test</th><th>23-MAR-2023</th><th>Reference&#xA0;Range</th><th>Unit</th></tr></thead><tbody><tr><td>Glucose [Mass/volume] in Urine by Test strip</td><td><strong>1.8 H</strong></td><td>0.8 - 0</td><td>mg/dL</td></tr><tr><td>Glucose [Presence] in Urine by Test strip</td><td>++</td><td></td><td></td></tr><tr><td>Bilirubin.total [Mass/volume] in Urine by Test strip</td><td>1.1</td><td>0.2 - 1.5</td><td>mg/dL</td></tr><tr><td>Bilirubin.total [Presence] in Urine by Test strip</td><td>Finding of bilirubin in urine</td><td></td><td></td></tr><tr><td>Ketones [Mass/volume] in Urine by Test strip</td><td><strong>6.4 H</strong></td><td>0 - 4</td><td>mg/dL</td></tr><tr><td>Specific gravity of Urine by Test strip</td><td><strong>1.0 L</strong></td><td>1.01 - 1.03</td><td>{nominal}</td></tr><tr><td>pH of Urine by Test strip</td><td>6.9</td><td>4.5 - 7.5</td><td>pH</td></tr><tr><td>Protein [Mass/volume] in Urine by Test strip</td><td><strong>173.0 H</strong></td><td>0 - 150</td><td>mg/dL</td></tr><tr><td>Protein [Presence] in Urine by Test strip</td><td>Urine protein test = ++</td><td></td><td></td></tr><tr><td>Nitrite [Presence] in Urine by Test strip</td><td>Urine nitrite negative</td><td></td><td></td></tr><tr><td>Hemoglobin [Presence] in Urine by Test strip</td><td>Urine blood test = negative</td><td></td><td></td></tr><tr><td>Leukocyte esterase [Presence] in Urine by Test strip</td><td>Urine leukocyte test negative</td><td></td><td></td></tr></tbody></table></div>"
                },
                "title": "Urinalysis"
              },
              {
                "code": {
                  "coding": [
                    {
                      "code": "$LP7846-1",
                      "system": "http://loinc.org",
                      "display": "Specimen information"
                    }
                  ],
                  "text": "Specimen information"
                },
                "entry": [
                  {
                    "reference": "urn:uuid:24be472e-1b46-4c1f-8372-149326e78b2e"
                  },
                  {
                    "reference": "urn:uuid:941b2044-e017-479f-a722-548a95517856"
                  },
                  {
                    "reference": "urn:uuid:7c75ba19-21a4-4765-88d8-5818063e3aba"
                  },
                  {
                    "reference": "urn:uuid:67e46fa3-5e69-4ba3-8582-90144592dee1"
                  }
                ],
                "text": {
                  "status": "generated",
                  "div": "<div xmlns=\"http://www.w3.org/1999/xhtml\"><h3>Specimen information</h3><table class=\"hl7__eu__lab__report\"><thead><tr><th>Test</th><th>23-MAR-2023</th><th>Specimen</th><th></th></tr></thead><tbody><tr><td>Appearance of Urine</td><td>Cloudy urine</td><td>Urine</td><td></td></tr><tr><td>Odor of Urine</td><td>Urine smell ammoniacal</td><td>Urine</td><td></td></tr><tr><td>Clarity of Urine</td><td>Translucent</td><td>Urine</td><td></td></tr><tr><td>Color of Urine</td><td>Brown color</td><td>Urine</td><td></td></tr></tbody></table></div>"
                },
                "title": "Specimen information"
              }
            ],
            "title": "Laboratory Report"
          },
          {
            "text": {
              "status": "generated",
              "div": "<div xmlns=\"http://www.w3.org/1999/xhtml\"><h3>Annotation</h3><table class=\"hl7__eu__lab__report\"><tr><th>Conclusion and Recommendations based on this report and previous findings known to us</th></tr><tr><td>The patient shows elevated creatinine, proteinuria, and low urine specific gravity, suggesting impaired renal function. Urine findings (cloudy, brown, ammoniacal) may indicate urinary tract pathology, but no infection markers are present. Mild anemia is noted. Blood glucose is normal, but HbA1c is unexpectedly low-may reflect recent anemia or altered red cell turnover. Urine ketones and glucose are elevated, warranting further metabolic assessment. Recommend nephrology evaluation and review of possible causes for low HbA1c.</td></tr></table></div>"
            },
            "code": {
              "coding": [
                {
                  "system": "http://loinc.org",
                  "code": "48767-8",
                  "display": "Annotation comment"
                }
              ]
            },
            "title": "Annotation comment"
          }
        ],
        "status": "final",
        "subject": {
          "reference": "urn:uuid:7ecda2a2-5b16-426b-9043-e9f34931f45c",
          "display": "Pelayo Casal"
        },
        "date": "2023-03-23T06:38:59Z",
        "title": "Laboratory Report",
        "confidentiality": "N"
      }
    },
    {
      "fullUrl": "urn:uuid:e8608a46-4138-49ec-99b9-97db41506e4c",
      "resource": {
        "resourceType": "DiagnosticReport",
        "id": "e8608a46-4138-49ec-99b9-97db41506e4c",
        "meta": {
          "profile": [
            "http://hl7.eu/fhir/laboratory/StructureDefinition/DiagnosticReport-eu-lab"
          ]
        },
        "identifier": [
          {
            "assigner": {
              "display": "HL7 Europe"
            },
            "system": "urn:oid:2.16.840.1.113883.2.51.999",
            "value": "eb18461e-7fea-4b74-9e24-d971d332a752"
          }
        ],
        "extension": [
          {
            "url": "http://hl7.org/fhir/5.0/StructureDefinition/extension-DiagnosticReport.composition",
            "valueReference": {
              "reference": "urn:uuid:51c399ee-6c04-4764-b9f7-9413dc041e4f"
            }
          }
        ],
        "category": [
          {
            "coding": [
              {
                "code": "26436-6",
                "system": "http://loinc.org",
                "display": "Laboratory studies (set)"
              }
            ]
          }
        ],
        "specimen": [
          {
            "reference": "urn:uuid:d4efe396-4714-43d7-a7e6-40bf546c16d7"
          },
          {
            "reference": "urn:uuid:61f37f4d-91e2-426b-a1dd-b54b71e12c63"
          },
          {
            "reference": "urn:uuid:16f12db0-abc5-45ad-a1f1-c51cc1c4875e"
          },
          {
            "reference": "urn:uuid:16f12db0-abc5-45ad-a1f1-c51cc1c4875e"
          }
        ],
        "result": [
          {
            "reference": "urn:uuid:c731d96f-98de-4918-8fc0-d2bbd16603d6"
          },
          {
            "reference": "urn:uuid:659c26be-fad9-45ee-8f78-efa79c67596c"
          },
          {
            "reference": "urn:uuid:2b1fda3e-588c-46a5-9add-bb072ecbe3e1"
          },
          {
            "reference": "urn:uuid:69171797-1f5a-40c4-8e94-8d3134b42a99"
          },
          {
            "reference": "urn:uuid:057084da-08e4-42a2-9e57-a6da8d910ff1"
          },
          {
            "reference": "urn:uuid:fab6ac4b-2e2c-45fe-841a-bcce230402cc"
          },
          {
            "reference": "urn:uuid:c81d4332-f72c-4ea6-afc4-4c12417e3524"
          },
          {
            "reference": "urn:uuid:c2763efd-7419-4bb7-ab2f-811ef8aa33ec"
          },
          {
            "reference": "urn:uuid:24be472e-1b46-4c1f-8372-149326e78b2e"
          },
          {
            "reference": "urn:uuid:941b2044-e017-479f-a722-548a95517856"
          },
          {
            "reference": "urn:uuid:7c75ba19-21a4-4765-88d8-5818063e3aba"
          },
          {
            "reference": "urn:uuid:67e46fa3-5e69-4ba3-8582-90144592dee1"
          },
          {
            "reference": "urn:uuid:61d4db54-21ea-45be-832c-100cd9e5916a"
          },
          {
            "reference": "urn:uuid:ddfce7fb-c761-4146-853a-91e888caa176"
          },
          {
            "reference": "urn:uuid:6008efd2-3ca7-4068-ae83-0a67479f0bda"
          },
          {
            "reference": "urn:uuid:95c45137-d894-41dd-b8a6-e472b8deda3e"
          },
          {
            "reference": "urn:uuid:212d5f66-fc4f-4a79-a893-bac2d45b8299"
          },
          {
            "reference": "urn:uuid:82906b64-6182-4dd3-a544-4b97243faf95"
          },
          {
            "reference": "urn:uuid:8d33702d-f2cc-4ec5-a426-e6e790f508c5"
          },
          {
            "reference": "urn:uuid:4f1ee3d8-3024-4530-99d6-ed2543c7da08"
          },
          {
            "reference": "urn:uuid:321e5038-b8db-4f00-8f53-6bbbb5e02c7c"
          },
          {
            "reference": "urn:uuid:65c8b4ab-5248-42c2-9d8c-09e000cb8bc9"
          },
          {
            "reference": "urn:uuid:20ec487a-65f7-4611-930c-f757705692c0"
          },
          {
            "reference": "urn:uuid:78db1efa-62fd-436e-9640-9185cc6b100c"
          },
          {
            "reference": "urn:uuid:d0e4dcc6-e8bf-4829-b6a3-4ae849adcebf"
          },
          {
            "reference": "urn:uuid:37c84be2-0ac4-41dc-8be1-c8c7006eeffa"
          },
          {
            "reference": "urn:uuid:758f1fcc-fd24-449f-b42d-13747636001b"
          },
          {
            "reference": "urn:uuid:92e86f05-cc98-484c-9c80-c34267703cd9"
          },
          {
            "reference": "urn:uuid:a0fe143d-6e2e-478e-b69b-82f8950a7c02"
          },
          {
            "reference": "urn:uuid:e752a5ba-526e-4712-bc84-613e13dacc49"
          },
          {
            "reference": "urn:uuid:3ae9f2f6-0030-41f6-9676-d91f28933fc1"
          },
          {
            "reference": "urn:uuid:aba5a56a-1854-446f-87dd-c0107389f0bc"
          },
          {
            "reference": "urn:uuid:b82e92f7-8cd2-44c8-948f-693210fdab0c"
          },
          {
            "reference": "urn:uuid:a8653e55-9775-4087-9885-d1c55138b2d1"
          },
          {
            "reference": "urn:uuid:c2b79539-7038-48f3-8ed6-7670d8267a74"
          },
          {
            "reference": "urn:uuid:341d511c-6010-428c-a337-ff499c13172e"
          },
          {
            "reference": "urn:uuid:19727a2f-636d-456c-9f6e-729a9854a8e0"
          },
          {
            "reference": "urn:uuid:f69dc2ab-aef7-479f-af64-95ff3e459e0e"
          },
          {
            "reference": "urn:uuid:c9d06534-9520-4d45-bae0-95ff3b4ac9f0"
          },
          {
            "reference": "urn:uuid:d5ee28b1-89ce-4e81-b376-7f62618306e1"
          },
          {
            "reference": "urn:uuid:df0cbfce-6b23-4e71-9778-64f612326a10"
          },
          {
            "reference": "urn:uuid:5c100e68-30b8-4a1d-a3bd-2b5c81fa9b26"
          },
          {
            "reference": "urn:uuid:28ddf5fd-8718-4bb0-ad4b-7f6f0eb5ee36"
          },
          {
            "reference": "urn:uuid:8762c324-8382-4771-9f66-b6866847da4f"
          },
          {
            "reference": "urn:uuid:9684e7bd-6a80-4c34-8a92-b410c2853e55"
          }
        ],
        "status": "registered",
        "code": {
          "coding": [
            {
              "code": "11502-2",
              "system": "http://loinc.org",
              "display": "Laboratory report"
            }
          ]
        },
        "subject": {
          "reference": "urn:uuid:7ecda2a2-5b16-426b-9043-e9f34931f45c",
          "display": "Pelayo Casal"
        }
      }
    },
    {
      "fullUrl": "urn:uuid:7ecda2a2-5b16-426b-9043-e9f34931f45c",
      "resource": {
        "resourceType": "Patient",
        "id": "7ecda2a2-5b16-426b-9043-e9f34931f45c",
        "meta": {
          "security": [
            {
              "system": "http://terminology.hl7.org/CodeSystem/v3-ActReason",
              "code": "HTEST"
            },
            {
              "system": "http://terminology.hl7.org/CodeSystem/v3-ActReason",
              "code": "TRAIN"
            }
          ],
          "tag": [
            {
              "system": "https://synderai.net/fhir/CodeSystem/tags",
              "code": "synthetic",
              "display": "SYNDERAI Synthetic data"
            }
          ],
          "profile": [
            "http://hl7.eu/fhir/base/StructureDefinition/patient-eu-core"
          ]
        },
        "identifier": [
          {
            "type": {
              "coding": [
                {
                  "code": "PT",
                  "system": "http://terminology.hl7.org/CodeSystem/v2-0203"
                }
              ]
            },
            "system": "http://ec.europa.eu/identifier/eci",
            "value": "7707-510028-7"
          },
          {
            "type": {
              "coding": [
                {
                  "code": "MR",
                  "system": "http://terminology.hl7.org/CodeSystem/v2-0203"
                }
              ]
            },
            "system": "http://local.setting.eu/identifier",
            "value": "d88e82c6-df33-82d2-8538-f8b57da06491"
          }
        ],
        "name": [
          {
            "family": "Casal"
          },
          {
            "given": [
              "Pelayo"
            ]
          },
          {
            "text": "Pelayo Casal"
          }
        ],
        "address": [
          {
            "line": [
              "Callejón de Ignacio Pedrosa 67 Apt. 68 "
            ],
            "use": "home",
            "type": "physical",
            "postalCode": "35001",
            "city": "Las Palmas",
            "country": "Spain"
          }
        ],
        "telecom": [
          {
            "system": "phone",
            "value": "+34 875724898"
          }
        ],
        "extension": [
          {
            "url": "http://hl7.org/fhir/StructureDefinition/patient-nationality",
            "valueCodeableConcept": {
              "coding": [
                {
                  "code": "ES",
                  "system": "http://hl7.org/fhir/ValueSet/country"
                }
              ]
            }
          }
        ],
        "text": {
          "status": "generated",
          "div": "<div xmlns=\"http://www.w3.org/1999/xhtml\"><table class=\"hl7__ips\"><tr><td>Pelayo Casal</td><td>male</td><td>19-Apr-1940</td></tr></table></div>"
        },
        "gender": "male",
        "birthDate": "1940-04-19"
      }
    },
    {
      "fullUrl": "urn:uuid:29399758-5b9e-43d6-88e7-9047a9d1c56d",
      "resource": {
        "resourceType": "ServiceRequest",
        "id": "29399758-5b9e-43d6-88e7-9047a9d1c56d",
        "meta": {
          "profile": [
            "http://hl7.eu/fhir/laboratory/StructureDefinition/ServiceRequest-eu-lab"
          ]
        },
        "identifier": [
          {
            "system": "http://example.org",
            "value": "39132bef-66f3-49a2-a230-9047eeed0539"
          }
        ],
        "specimen": [
          {
            "reference": "urn:uuid:d4efe396-4714-43d7-a7e6-40bf546c16d7"
          },
          {
            "reference": "urn:uuid:61f37f4d-91e2-426b-a1dd-b54b71e12c63"
          },
          {
            "reference": "urn:uuid:16f12db0-abc5-45ad-a1f1-c51cc1c4875e"
          }
        ],
        "reasonCode": [
          {
            "coding": [
              {
                "code": "431856006",
                "system": "http://snomed.info/sct",
                "display": "Chronic kidney disease stage 2"
              }
            ]
          },
          {
            "coding": [
              {
                "code": "90781000119102",
                "system": "http://snomed.info/sct",
                "display": "Microalbuminuria due to type 2 diabetes mellitus"
              }
            ]
          },
          {
            "coding": [
              {
                "code": "127013003",
                "system": "http://snomed.info/sct",
                "display": "Disorder of kidney due to diabetes mellitus"
              }
            ]
          },
          {
            "coding": [
              {
                "code": "431855005",
                "system": "http://snomed.info/sct",
                "display": "Chronic kidney disease stage 1"
              }
            ]
          },
          {
            "coding": [
              {
                "code": "64859006",
                "system": "http://snomed.info/sct",
                "display": "Osteoporosis"
              }
            ]
          },
          {
            "coding": [
              {
                "code": "414545008",
                "system": "http://snomed.info/sct",
                "display": "Ischemic heart disease"
              }
            ]
          },
          {
            "coding": [
              {
                "code": "237602007",
                "system": "http://snomed.info/sct",
                "display": "Metabolic syndrome X"
              }
            ]
          },
          {
            "coding": [
              {
                "code": "59621000",
                "system": "http://snomed.info/sct",
                "display": "Essential hypertension"
              }
            ]
          },
          {
            "coding": [
              {
                "code": "271737000",
                "system": "http://snomed.info/sct",
                "display": "Anemia"
              }
            ]
          },
          {
            "coding": [
              {
                "code": "15777000",
                "system": "http://snomed.info/sct",
                "display": "Prediabetes"
              }
            ]
          }
        ],
        "status": "active",
        "intent": "order",
        "code": {
          "coding": [
            {
              "code": "108252007",
              "system": "http://snomed.info/sct",
              "display": "Laboratory procedure"
            }
          ]
        },
        "subject": {
          "reference": "urn:uuid:7ecda2a2-5b16-426b-9043-e9f34931f45c",
          "display": "Pelayo Casal"
        },
        "requester": {
          "reference": "urn:uuid:dc9adfae-40cb-4c0e-9ae6-c9fc9ae13c4a"
        }
      }
    },
    {
      "fullUrl": "urn:uuid:dc9adfae-40cb-4c0e-9ae6-c9fc9ae13c4a",
      "resource": {
        "resourceType": "PractitionerRole",
        "id": "dc9adfae-40cb-4c0e-9ae6-c9fc9ae13c4a",
        "meta": {
          "profile": [
            "http://hl7.eu/fhir/base/StructureDefinition/practitionerRole-eu"
          ]
        },
        "text": {
          "status": "generated",
          "div": "<div xmlns=\"http://www.w3.org/1999/xhtml\">Provider Role Id: dc9adfae-40cb-4c0e-9ae6-c9fc9ae13c4a</div>"
        },
        "organization": {
          "reference": "urn:uuid:34d29f12-012a-4896-a57e-fa871074611c"
        }
      }
    },
    {
      "fullUrl": "urn:uuid:34d29f12-012a-4896-a57e-fa871074611c",
      "resource": {
        "resourceType": "Organization",
        "id": "34d29f12-012a-4896-a57e-fa871074611c",
        "meta": {
          "profile": [
            "http://hl7.eu/fhir/base/StructureDefinition/organization-eu"
          ]
        },
        "identifier": [
          {
            "assigner": {
              "display": "HL7 Europe"
            },
            "system": "urn:oid:2.16.840.1.113883.2.51.999",
            "value": "7f975d74-cfbd-4122-a666-c3b575500d9a"
          }
        ],
        "address": [
          {
            "country": "Spain"
          }
        ],
        "text": {
          "status": "generated",
          "div": "<div xmlns=\"http://www.w3.org/1999/xhtml\">Provider Organization: Centro de Salud de Guanarteme</div>"
        },
        "name": "Centro de Salud de Guanarteme"
      }
    },
    {
      "fullUrl": "urn:uuid:d4efe396-4714-43d7-a7e6-40bf546c16d7",
      "resource": {
        "resourceType": "Specimen",
        "id": "d4efe396-4714-43d7-a7e6-40bf546c16d7",
        "meta": {
          "profile": [
            "http://hl7.eu/fhir/laboratory/StructureDefinition/Specimen-eu-lab"
          ]
        },
        "collection": {
          "collectedDateTime": "2023-03-23"
        },
        "text": {
          "status": "generated",
          "div": "<div xmlns=\"http://www.w3.org/1999/xhtml\"><table class=\"hl7__eu__lab__report\"><tr><th>Specimen</th><th>Collection Date</th></tr><tr><td>Acellular blood (serum or plasma) specimen</td><td><span class=\"nb\">23-Mar-2023</span></td></tr></table></div>"
        },
        "type": {
          "coding": [
            {
              "code": "122592007",
              "system": "http://snomed.info/sct",
              "display": "Acellular blood (serum or plasma) specimen"
            }
          ]
        }
      }
    },
    {
      "fullUrl": "urn:uuid:61f37f4d-91e2-426b-a1dd-b54b71e12c63",
      "resource": {
        "resourceType": "Specimen",
        "id": "61f37f4d-91e2-426b-a1dd-b54b71e12c63",
        "meta": {
          "profile": [
            "http://hl7.eu/fhir/laboratory/StructureDefinition/Specimen-eu-lab"
          ]
        },
        "collection": {
          "collectedDateTime": "2023-03-23"
        },
        "text": {
          "status": "generated",
          "div": "<div xmlns=\"http://www.w3.org/1999/xhtml\"><table class=\"hl7__eu__lab__report\"><tr><th>Specimen</th><th>Collection Date</th></tr><tr><td>Urine specimen</td><td><span class=\"nb\">23-Mar-2023</span></td></tr></table></div>"
        },
        "type": {
          "coding": [
            {
              "code": "122575003",
              "system": "http://snomed.info/sct",
              "display": "Urine specimen"
            }
          ]
        }
      }
    },
    {
      "fullUrl": "urn:uuid:16f12db0-abc5-45ad-a1f1-c51cc1c4875e",
      "resource": {
        "resourceType": "Specimen",
        "id": "16f12db0-abc5-45ad-a1f1-c51cc1c4875e",
        "meta": {
          "profile": [
            "http://hl7.eu/fhir/laboratory/StructureDefinition/Specimen-eu-lab"
          ]
        },
        "collection": {
          "collectedDateTime": "2023-03-23"
        },
        "text": {
          "status": "generated",
          "div": "<div xmlns=\"http://www.w3.org/1999/xhtml\"><table class=\"hl7__eu__lab__report\"><tr><th>Specimen</th><th>Collection Date</th></tr><tr><td>Whole blood specimen (specimen)</td><td><span class=\"nb\">23-Mar-2023</span></td></tr></table></div>"
        },
        "type": {
          "coding": [
            {
              "code": "258580003",
              "system": "http://snomed.info/sct",
              "display": "Whole blood specimen (specimen)"
            }
          ]
        }
      }
    },
    {
      "fullUrl": "urn:uuid:16f12db0-abc5-45ad-a1f1-c51cc1c4875e",
      "resource": {
        "resourceType": "Specimen",
        "id": "16f12db0-abc5-45ad-a1f1-c51cc1c4875e",
        "meta": {
          "profile": [
            "http://hl7.eu/fhir/laboratory/StructureDefinition/Specimen-eu-lab"
          ]
        },
        "collection": {
          "collectedDateTime": "2023-03-23"
        },
        "text": {
          "status": "generated",
          "div": "<div xmlns=\"http://www.w3.org/1999/xhtml\"><table class=\"hl7__eu__lab__report\"><tr><th>Specimen</th><th>Collection Date</th></tr><tr><td>Whole blood specimen (specimen)</td><td><span class=\"nb\">23-Mar-2023</span></td></tr></table></div>"
        },
        "type": {
          "coding": [
            {
              "code": "258580003",
              "system": "http://snomed.info/sct",
              "display": "Whole blood specimen (specimen)"
            }
          ]
        }
      }
    },
    {
      "fullUrl": "urn:uuid:c731d96f-98de-4918-8fc0-d2bbd16603d6",
      "resource": {
        "resourceType": "Observation",
        "id": "c731d96f-98de-4918-8fc0-d2bbd16603d6",
        "meta": {
          "profile": [
            "http://hl7.eu/fhir/laboratory/StructureDefinition/Observation-resultslab-eu-lab"
          ]
        },
        "performer": [
          {
            "display": "The Central European Lab"
          }
        ],
        "category": [
          {
            "coding": [
              {
                "system": "http://terminology.hl7.org/CodeSystem/observation-category",
                "code": "laboratory"
              }
            ]
          }
        ],
        "code": {
          "coding": [
            {
              "code": "2345-7",
              "system": "http://loinc.org",
              "display": "Glucose [Mass/volume] in Serum or Plasma"
            }
          ],
          "text": "Glucose [Mass/volume] in Serum or Plasma"
        },
        "valueQuantity": {
          "system": "http://unitsofmeasure.org",
          "value": 88.4,
          "unit": "mg/dL",
          "code": "mg/dL"
        },
        "referenceRange": [
          {
            "low": {
              "value": 70,
              "code": "mg/dL",
              "system": "http://unitsofmeasure.org"
            }
          },
          {
            "high": {
              "value": 140,
              "code": "mg/dL",
              "system": "http://unitsofmeasure.org"
            }
          }
        ],
        "text": {
          "status": "generated",
          "div": "<div xmlns=\"http://www.w3.org/1999/xhtml\"><table class=\"hl7__eu__lab__report\"><tr><th>Test</th><th>23-Mar-2023</th><th>Reference&#xA0;Range</th><th>Unit</th></tr><tr><td>Glucose [Mass/volume] in Serum or Plasma</td><td>88.4</td><td>70 - 140</td><td></td><td>mg/dL</td></tr></table></div>"
        },
        "status": "final",
        "subject": {
          "reference": "urn:uuid:7ecda2a2-5b16-426b-9043-e9f34931f45c",
          "display": "Pelayo Casal"
        },
        "effectiveDateTime": "2023-03-23T05:38:59Z",
        "specimen": {
          "reference": "urn:uuid:d4efe396-4714-43d7-a7e6-40bf546c16d7"
        }
      }
    },
    {
      "fullUrl": "urn:uuid:659c26be-fad9-45ee-8f78-efa79c67596c",
      "resource": {
        "resourceType": "Observation",
        "id": "659c26be-fad9-45ee-8f78-efa79c67596c",
        "meta": {
          "profile": [
            "http://hl7.eu/fhir/laboratory/StructureDefinition/Observation-resultslab-eu-lab"
          ]
        },
        "performer": [
          {
            "display": "The Central European Lab"
          }
        ],
        "category": [
          {
            "coding": [
              {
                "system": "http://terminology.hl7.org/CodeSystem/observation-category",
                "code": "laboratory"
              }
            ]
          }
        ],
        "code": {
          "coding": [
            {
              "code": "3094-0",
              "system": "http://loinc.org",
              "display": "Urea nitrogen [Mass/volume] in Serum or Plasma"
            }
          ],
          "text": "Urea nitrogen [Mass/volume] in Serum or Plasma"
        },
        "valueQuantity": {
          "system": "http://unitsofmeasure.org",
          "value": 17.4,
          "unit": "mg/dL",
          "code": "mg/dL"
        },
        "referenceRange": [
          {
            "low": {
              "value": 7,
              "code": "mg/dL",
              "system": "http://unitsofmeasure.org"
            }
          },
          {
            "high": {
              "value": 25,
              "code": "mg/dL",
              "system": "http://unitsofmeasure.org"
            }
          }
        ],
        "text": {
          "status": "generated",
          "div": "<div xmlns=\"http://www.w3.org/1999/xhtml\"><table class=\"hl7__eu__lab__report\"><tr><th>Test</th><th>23-Mar-2023</th><th>Reference&#xA0;Range</th><th>Unit</th></tr><tr><td>Urea nitrogen [Mass/volume] in Serum or Plasma</td><td>17.4</td><td>7 - 25</td><td></td><td>mg/dL</td></tr></table></div>"
        },
        "status": "final",
        "subject": {
          "reference": "urn:uuid:7ecda2a2-5b16-426b-9043-e9f34931f45c",
          "display": "Pelayo Casal"
        },
        "effectiveDateTime": "2023-03-23T05:38:59Z",
        "specimen": {
          "reference": "urn:uuid:d4efe396-4714-43d7-a7e6-40bf546c16d7"
        }
      }
    },
    {
      "fullUrl": "urn:uuid:2b1fda3e-588c-46a5-9add-bb072ecbe3e1",
      "resource": {
        "resourceType": "Observation",
        "id": "2b1fda3e-588c-46a5-9add-bb072ecbe3e1",
        "meta": {
          "profile": [
            "http://hl7.eu/fhir/laboratory/StructureDefinition/Observation-resultslab-eu-lab"
          ]
        },
        "performer": [
          {
            "display": "The Central European Lab"
          }
        ],
        "category": [
          {
            "coding": [
              {
                "system": "http://terminology.hl7.org/CodeSystem/observation-category",
                "code": "laboratory"
              }
            ]
          }
        ],
        "code": {
          "coding": [
            {
              "code": "2160-0",
              "system": "http://loinc.org",
              "display": "Creatinine [Mass/volume] in Serum or Plasma"
            }
          ],
          "text": "Creatinine [Mass/volume] in Serum or Plasma"
        },
        "valueQuantity": {
          "system": "http://unitsofmeasure.org",
          "value": 2.1,
          "unit": "mg/dL",
          "code": "mg/dL"
        },
        "referenceRange": [
          {
            "low": {
              "value": 0.9,
              "code": "mg/dL",
              "system": "http://unitsofmeasure.org"
            }
          },
          {
            "high": {
              "value": 1.3,
              "code": "mg/dL",
              "system": "http://unitsofmeasure.org"
            }
          }
        ],
        "interpretation": [
          {
            "coding": [
              {
                "code": "H",
                "system": "http://terminology.hl7.org/CodeSystem/v3-ObservationInterpretation",
                "display": "High"
              }
            ]
          }
        ],
        "text": {
          "status": "generated",
          "div": "<div xmlns=\"http://www.w3.org/1999/xhtml\"><table class=\"hl7__eu__lab__report\"><tr><th>Test</th><th>23-Mar-2023</th><th>Reference&#xA0;Range</th><th>Unit</th></tr><tr><td>Creatinine [Mass/volume] in Serum or Plasma</td><td>2.1</td><td>0.9 - 1.3</td><td>H</td><td>mg/dL</td></tr></table></div>"
        },
        "status": "final",
        "subject": {
          "reference": "urn:uuid:7ecda2a2-5b16-426b-9043-e9f34931f45c",
          "display": "Pelayo Casal"
        },
        "effectiveDateTime": "2023-03-23T05:38:59Z",
        "specimen": {
          "reference": "urn:uuid:d4efe396-4714-43d7-a7e6-40bf546c16d7"
        }
      }
    },
    {
      "fullUrl": "urn:uuid:69171797-1f5a-40c4-8e94-8d3134b42a99",
      "resource": {
        "resourceType": "Observation",
        "id": "69171797-1f5a-40c4-8e94-8d3134b42a99",
        "meta": {
          "profile": [
            "http://hl7.eu/fhir/laboratory/StructureDefinition/Observation-resultslab-eu-lab"
          ]
        },
        "performer": [
          {
            "display": "The Central European Lab"
          }
        ],
        "category": [
          {
            "coding": [
              {
                "system": "http://terminology.hl7.org/CodeSystem/observation-category",
                "code": "laboratory"
              }
            ]
          }
        ],
        "code": {
          "coding": [
            {
              "code": "17861-6",
              "system": "http://loinc.org",
              "display": "Calcium [Mass/volume] in Serum or Plasma"
            }
          ],
          "text": "Calcium [Mass/volume] in Serum or Plasma"
        },
        "valueQuantity": {
          "system": "http://unitsofmeasure.org",
          "value": 9.3,
          "unit": "mg/dL",
          "code": "mg/dL"
        },
        "referenceRange": [
          {
            "low": {
              "value": 8.5,
              "code": "mg/dL",
              "system": "http://unitsofmeasure.org"
            }
          },
          {
            "high": {
              "value": 10.5,
              "code": "mg/dL",
              "system": "http://unitsofmeasure.org"
            }
          }
        ],
        "text": {
          "status": "generated",
          "div": "<div xmlns=\"http://www.w3.org/1999/xhtml\"><table class=\"hl7__eu__lab__report\"><tr><th>Test</th><th>23-Mar-2023</th><th>Reference&#xA0;Range</th><th>Unit</th></tr><tr><td>Calcium [Mass/volume] in Serum or Plasma</td><td>9.3</td><td>8.5 - 10.5</td><td></td><td>mg/dL</td></tr></table></div>"
        },
        "status": "final",
        "subject": {
          "reference": "urn:uuid:7ecda2a2-5b16-426b-9043-e9f34931f45c",
          "display": "Pelayo Casal"
        },
        "effectiveDateTime": "2023-03-23T05:38:59Z",
        "specimen": {
          "reference": "urn:uuid:d4efe396-4714-43d7-a7e6-40bf546c16d7"
        }
      }
    },
    {
      "fullUrl": "urn:uuid:057084da-08e4-42a2-9e57-a6da8d910ff1",
      "resource": {
        "resourceType": "Observation",
        "id": "057084da-08e4-42a2-9e57-a6da8d910ff1",
        "meta": {
          "profile": [
            "http://hl7.eu/fhir/laboratory/StructureDefinition/Observation-resultslab-eu-lab"
          ]
        },
        "performer": [
          {
            "display": "The Central European Lab"
          }
        ],
        "category": [
          {
            "coding": [
              {
                "system": "http://terminology.hl7.org/CodeSystem/observation-category",
                "code": "laboratory"
              }
            ]
          }
        ],
        "code": {
          "coding": [
            {
              "code": "2951-2",
              "system": "http://loinc.org",
              "display": "Sodium [Moles/volume] in Serum or Plasma"
            }
          ],
          "text": "Sodium [Moles/volume] in Serum or Plasma"
        },
        "valueQuantity": {
          "system": "http://unitsofmeasure.org",
          "value": 136.4,
          "unit": "mmol/L",
          "code": "mmol/L"
        },
        "referenceRange": [
          {
            "low": {
              "value": 135,
              "code": "mmol/L",
              "system": "http://unitsofmeasure.org"
            }
          },
          {
            "high": {
              "value": 145,
              "code": "mmol/L",
              "system": "http://unitsofmeasure.org"
            }
          }
        ],
        "text": {
          "status": "generated",
          "div": "<div xmlns=\"http://www.w3.org/1999/xhtml\"><table class=\"hl7__eu__lab__report\"><tr><th>Test</th><th>23-Mar-2023</th><th>Reference&#xA0;Range</th><th>Unit</th></tr><tr><td>Sodium [Moles/volume] in Serum or Plasma</td><td>136.4</td><td>135 - 145</td><td></td><td>mmol/L</td></tr></table></div>"
        },
        "status": "final",
        "subject": {
          "reference": "urn:uuid:7ecda2a2-5b16-426b-9043-e9f34931f45c",
          "display": "Pelayo Casal"
        },
        "effectiveDateTime": "2023-03-23T05:38:59Z",
        "specimen": {
          "reference": "urn:uuid:d4efe396-4714-43d7-a7e6-40bf546c16d7"
        }
      }
    },
    {
      "fullUrl": "urn:uuid:fab6ac4b-2e2c-45fe-841a-bcce230402cc",
      "resource": {
        "resourceType": "Observation",
        "id": "fab6ac4b-2e2c-45fe-841a-bcce230402cc",
        "meta": {
          "profile": [
            "http://hl7.eu/fhir/laboratory/StructureDefinition/Observation-resultslab-eu-lab"
          ]
        },
        "performer": [
          {
            "display": "The Central European Lab"
          }
        ],
        "category": [
          {
            "coding": [
              {
                "system": "http://terminology.hl7.org/CodeSystem/observation-category",
                "code": "laboratory"
              }
            ]
          }
        ],
        "code": {
          "coding": [
            {
              "code": "2823-3",
              "system": "http://loinc.org",
              "display": "Potassium [Moles/volume] in Serum or Plasma"
            }
          ],
          "text": "Potassium [Moles/volume] in Serum or Plasma"
        },
        "valueQuantity": {
          "system": "http://unitsofmeasure.org",
          "value": 3.7,
          "unit": "mmol/L",
          "code": "mmol/L"
        },
        "referenceRange": [
          {
            "low": {
              "value": 3.5,
              "code": "mmol/L",
              "system": "http://unitsofmeasure.org"
            }
          },
          {
            "high": {
              "value": 5.3,
              "code": "mmol/L",
              "system": "http://unitsofmeasure.org"
            }
          }
        ],
        "text": {
          "status": "generated",
          "div": "<div xmlns=\"http://www.w3.org/1999/xhtml\"><table class=\"hl7__eu__lab__report\"><tr><th>Test</th><th>23-Mar-2023</th><th>Reference&#xA0;Range</th><th>Unit</th></tr><tr><td>Potassium [Moles/volume] in Serum or Plasma</td><td>3.7</td><td>3.5 - 5.3</td><td></td><td>mmol/L</td></tr></table></div>"
        },
        "status": "final",
        "subject": {
          "reference": "urn:uuid:7ecda2a2-5b16-426b-9043-e9f34931f45c",
          "display": "Pelayo Casal"
        },
        "effectiveDateTime": "2023-03-23T05:38:59Z",
        "specimen": {
          "reference": "urn:uuid:d4efe396-4714-43d7-a7e6-40bf546c16d7"
        }
      }
    },
    {
      "fullUrl": "urn:uuid:c81d4332-f72c-4ea6-afc4-4c12417e3524",
      "resource": {
        "resourceType": "Observation",
        "id": "c81d4332-f72c-4ea6-afc4-4c12417e3524",
        "meta": {
          "profile": [
            "http://hl7.eu/fhir/laboratory/StructureDefinition/Observation-resultslab-eu-lab"
          ]
        },
        "performer": [
          {
            "display": "The Central European Lab"
          }
        ],
        "category": [
          {
            "coding": [
              {
                "system": "http://terminology.hl7.org/CodeSystem/observation-category",
                "code": "laboratory"
              }
            ]
          }
        ],
        "code": {
          "coding": [
            {
              "code": "2075-0",
              "system": "http://loinc.org",
              "display": "Chloride [Moles/volume] in Serum or Plasma"
            }
          ],
          "text": "Chloride [Moles/volume] in Serum or Plasma"
        },
        "valueQuantity": {
          "system": "http://unitsofmeasure.org",
          "value": 104.1,
          "unit": "mmol/L",
          "code": "mmol/L"
        },
        "referenceRange": [
          {
            "low": {
              "value": 98,
              "code": "mmol/L",
              "system": "http://unitsofmeasure.org"
            }
          },
          {
            "high": {
              "value": 107,
              "code": "mmol/L",
              "system": "http://unitsofmeasure.org"
            }
          }
        ],
        "text": {
          "status": "generated",
          "div": "<div xmlns=\"http://www.w3.org/1999/xhtml\"><table class=\"hl7__eu__lab__report\"><tr><th>Test</th><th>23-Mar-2023</th><th>Reference&#xA0;Range</th><th>Unit</th></tr><tr><td>Chloride [Moles/volume] in Serum or Plasma</td><td>104.1</td><td>98 - 107</td><td></td><td>mmol/L</td></tr></table></div>"
        },
        "status": "final",
        "subject": {
          "reference": "urn:uuid:7ecda2a2-5b16-426b-9043-e9f34931f45c",
          "display": "Pelayo Casal"
        },
        "effectiveDateTime": "2023-03-23T05:38:59Z",
        "specimen": {
          "reference": "urn:uuid:d4efe396-4714-43d7-a7e6-40bf546c16d7"
        }
      }
    },
    {
      "fullUrl": "urn:uuid:c2763efd-7419-4bb7-ab2f-811ef8aa33ec",
      "resource": {
        "resourceType": "Observation",
        "id": "c2763efd-7419-4bb7-ab2f-811ef8aa33ec",
        "meta": {
          "profile": [
            "http://hl7.eu/fhir/laboratory/StructureDefinition/Observation-resultslab-eu-lab"
          ]
        },
        "performer": [
          {
            "display": "The Central European Lab"
          }
        ],
        "category": [
          {
            "coding": [
              {
                "system": "http://terminology.hl7.org/CodeSystem/observation-category",
                "code": "laboratory"
              }
            ]
          }
        ],
        "code": {
          "coding": [
            {
              "code": "2028-9",
              "system": "http://loinc.org",
              "display": "Carbon dioxide, total [Moles/volume] in Serum or Plasma"
            }
          ],
          "text": "Carbon dioxide, total [Moles/volume] in Serum or Plasma"
        },
        "valueQuantity": {
          "system": "http://unitsofmeasure.org",
          "value": 25.5,
          "unit": "mmol/L",
          "code": "mmol/L"
        },
        "referenceRange": [
          {
            "low": {
              "value": 22,
              "code": "mmol/L",
              "system": "http://unitsofmeasure.org"
            }
          },
          {
            "high": {
              "value": 29,
              "code": "mmol/L",
              "system": "http://unitsofmeasure.org"
            }
          }
        ],
        "text": {
          "status": "generated",
          "div": "<div xmlns=\"http://www.w3.org/1999/xhtml\"><table class=\"hl7__eu__lab__report\"><tr><th>Test</th><th>23-Mar-2023</th><th>Reference&#xA0;Range</th><th>Unit</th></tr><tr><td>Carbon dioxide, total [Moles/volume] in Serum or Plasma</td><td>25.5</td><td>22 - 29</td><td></td><td>mmol/L</td></tr></table></div>"
        },
        "status": "final",
        "subject": {
          "reference": "urn:uuid:7ecda2a2-5b16-426b-9043-e9f34931f45c",
          "display": "Pelayo Casal"
        },
        "effectiveDateTime": "2023-03-23T05:38:59Z",
        "specimen": {
          "reference": "urn:uuid:d4efe396-4714-43d7-a7e6-40bf546c16d7"
        }
      }
    },
    {
      "fullUrl": "urn:uuid:24be472e-1b46-4c1f-8372-149326e78b2e",
      "resource": {
        "resourceType": "Observation",
        "id": "24be472e-1b46-4c1f-8372-149326e78b2e",
        "meta": {
          "profile": [
            "http://hl7.eu/fhir/laboratory/StructureDefinition/Observation-resultslab-eu-lab"
          ]
        },
        "performer": [
          {
            "display": "The Central European Lab"
          }
        ],
        "category": [
          {
            "coding": [
              {
                "system": "http://terminology.hl7.org/CodeSystem/observation-category",
                "code": "laboratory"
              }
            ]
          }
        ],
        "code": {
          "coding": [
            {
              "code": "5767-9",
              "system": "http://loinc.org",
              "display": "Appearance of Urine"
            }
          ],
          "text": "Appearance of Urine"
        },
        "text": {
          "status": "generated",
          "div": "<div xmlns=\"http://www.w3.org/1999/xhtml\"><table class=\"hl7__eu__lab__report\"><tr><th>Test</th><th>23-Mar-2023</th><th>Reference&#xA0;Range</th><th>Unit</th></tr><tr><td>Appearance of Urine</td></tr></table></div>"
        },
        "status": "final",
        "subject": {
          "reference": "urn:uuid:7ecda2a2-5b16-426b-9043-e9f34931f45c",
          "display": "Pelayo Casal"
        },
        "effectiveDateTime": "2023-03-23T05:38:59Z",
        "specimen": {
          "reference": "urn:uuid:61f37f4d-91e2-426b-a1dd-b54b71e12c63"
        }
      }
    },
    {
      "fullUrl": "urn:uuid:941b2044-e017-479f-a722-548a95517856",
      "resource": {
        "resourceType": "Observation",
        "id": "941b2044-e017-479f-a722-548a95517856",
        "meta": {
          "profile": [
            "http://hl7.eu/fhir/laboratory/StructureDefinition/Observation-resultslab-eu-lab"
          ]
        },
        "performer": [
          {
            "display": "The Central European Lab"
          }
        ],
        "category": [
          {
            "coding": [
              {
                "system": "http://terminology.hl7.org/CodeSystem/observation-category",
                "code": "laboratory"
              }
            ]
          }
        ],
        "code": {
          "coding": [
            {
              "code": "34533-0",
              "system": "http://loinc.org",
              "display": "Odor of Urine"
            }
          ],
          "text": "Odor of Urine"
        },
        "text": {
          "status": "generated",
          "div": "<div xmlns=\"http://www.w3.org/1999/xhtml\"><table class=\"hl7__eu__lab__report\"><tr><th>Test</th><th>23-Mar-2023</th><th>Reference&#xA0;Range</th><th>Unit</th></tr><tr><td>Odor of Urine</td></tr></table></div>"
        },
        "status": "final",
        "subject": {
          "reference": "urn:uuid:7ecda2a2-5b16-426b-9043-e9f34931f45c",
          "display": "Pelayo Casal"
        },
        "effectiveDateTime": "2023-03-23T05:38:59Z",
        "specimen": {
          "reference": "urn:uuid:61f37f4d-91e2-426b-a1dd-b54b71e12c63"
        }
      }
    },
    {
      "fullUrl": "urn:uuid:7c75ba19-21a4-4765-88d8-5818063e3aba",
      "resource": {
        "resourceType": "Observation",
        "id": "7c75ba19-21a4-4765-88d8-5818063e3aba",
        "meta": {
          "profile": [
            "http://hl7.eu/fhir/laboratory/StructureDefinition/Observation-resultslab-eu-lab"
          ]
        },
        "performer": [
          {
            "display": "The Central European Lab"
          }
        ],
        "category": [
          {
            "coding": [
              {
                "system": "http://terminology.hl7.org/CodeSystem/observation-category",
                "code": "laboratory"
              }
            ]
          }
        ],
        "code": {
          "coding": [
            {
              "code": "32167-9",
              "system": "http://loinc.org",
              "display": "Clarity of Urine"
            }
          ],
          "text": "Clarity of Urine"
        },
        "text": {
          "status": "generated",
          "div": "<div xmlns=\"http://www.w3.org/1999/xhtml\"><table class=\"hl7__eu__lab__report\"><tr><th>Test</th><th>23-Mar-2023</th><th>Reference&#xA0;Range</th><th>Unit</th></tr><tr><td>Clarity of Urine</td></tr></table></div>"
        },
        "status": "final",
        "subject": {
          "reference": "urn:uuid:7ecda2a2-5b16-426b-9043-e9f34931f45c",
          "display": "Pelayo Casal"
        },
        "effectiveDateTime": "2023-03-23T05:38:59Z",
        "specimen": {
          "reference": "urn:uuid:61f37f4d-91e2-426b-a1dd-b54b71e12c63"
        }
      }
    },
    {
      "fullUrl": "urn:uuid:67e46fa3-5e69-4ba3-8582-90144592dee1",
      "resource": {
        "resourceType": "Observation",
        "id": "67e46fa3-5e69-4ba3-8582-90144592dee1",
        "meta": {
          "profile": [
            "http://hl7.eu/fhir/laboratory/StructureDefinition/Observation-resultslab-eu-lab"
          ]
        },
        "performer": [
          {
            "display": "The Central European Lab"
          }
        ],
        "category": [
          {
            "coding": [
              {
                "system": "http://terminology.hl7.org/CodeSystem/observation-category",
                "code": "laboratory"
              }
            ]
          }
        ],
        "code": {
          "coding": [
            {
              "code": "5778-6",
              "system": "http://loinc.org",
              "display": "Color of Urine"
            }
          ],
          "text": "Color of Urine"
        },
        "text": {
          "status": "generated",
          "div": "<div xmlns=\"http://www.w3.org/1999/xhtml\"><table class=\"hl7__eu__lab__report\"><tr><th>Test</th><th>23-Mar-2023</th><th>Reference&#xA0;Range</th><th>Unit</th></tr><tr><td>Color of Urine</td></tr></table></div>"
        },
        "status": "final",
        "subject": {
          "reference": "urn:uuid:7ecda2a2-5b16-426b-9043-e9f34931f45c",
          "display": "Pelayo Casal"
        },
        "effectiveDateTime": "2023-03-23T05:38:59Z",
        "specimen": {
          "reference": "urn:uuid:61f37f4d-91e2-426b-a1dd-b54b71e12c63"
        }
      }
    },
    {
      "fullUrl": "urn:uuid:61d4db54-21ea-45be-832c-100cd9e5916a",
      "resource": {
        "resourceType": "Observation",
        "id": "61d4db54-21ea-45be-832c-100cd9e5916a",
        "meta": {
          "profile": [
            "http://hl7.eu/fhir/laboratory/StructureDefinition/Observation-resultslab-eu-lab"
          ]
        },
        "performer": [
          {
            "display": "The Central European Lab"
          }
        ],
        "category": [
          {
            "coding": [
              {
                "system": "http://terminology.hl7.org/CodeSystem/observation-category",
                "code": "laboratory"
              }
            ]
          }
        ],
        "code": {
          "coding": [
            {
              "code": "5792-7",
              "system": "http://loinc.org",
              "display": "Glucose [Mass/volume] in Urine by Test strip"
            }
          ],
          "text": "Glucose [Mass/volume] in Urine by Test strip"
        },
        "valueQuantity": {
          "system": "http://unitsofmeasure.org",
          "value": 1.8,
          "unit": "mg/dL",
          "code": "mg/dL"
        },
        "referenceRange": [
          {
            "low": {
              "value": 0.8,
              "code": "mg/dL",
              "system": "http://unitsofmeasure.org"
            }
          },
          {
            "high": {
              "value": 0,
              "code": "mg/dL",
              "system": "http://unitsofmeasure.org"
            }
          }
        ],
        "interpretation": [
          {
            "coding": [
              {
                "code": "H",
                "system": "http://terminology.hl7.org/CodeSystem/v3-ObservationInterpretation",
                "display": "High"
              }
            ]
          }
        ],
        "text": {
          "status": "generated",
          "div": "<div xmlns=\"http://www.w3.org/1999/xhtml\"><table class=\"hl7__eu__lab__report\"><tr><th>Test</th><th>23-Mar-2023</th><th>Reference&#xA0;Range</th><th>Unit</th></tr><tr><td>Glucose [Mass/volume] in Urine by Test strip</td><td>1.8</td><td>0.8 - 0</td><td>H</td><td>mg/dL</td></tr></table></div>"
        },
        "status": "final",
        "subject": {
          "reference": "urn:uuid:7ecda2a2-5b16-426b-9043-e9f34931f45c",
          "display": "Pelayo Casal"
        },
        "effectiveDateTime": "2023-03-23T05:38:59Z",
        "specimen": {
          "reference": "urn:uuid:61f37f4d-91e2-426b-a1dd-b54b71e12c63"
        }
      }
    },
    {
      "fullUrl": "urn:uuid:ddfce7fb-c761-4146-853a-91e888caa176",
      "resource": {
        "resourceType": "Observation",
        "id": "ddfce7fb-c761-4146-853a-91e888caa176",
        "meta": {
          "profile": [
            "http://hl7.eu/fhir/laboratory/StructureDefinition/Observation-resultslab-eu-lab"
          ]
        },
        "performer": [
          {
            "display": "The Central European Lab"
          }
        ],
        "category": [
          {
            "coding": [
              {
                "system": "http://terminology.hl7.org/CodeSystem/observation-category",
                "code": "laboratory"
              }
            ]
          }
        ],
        "code": {
          "coding": [
            {
              "code": "25428-4",
              "system": "http://loinc.org",
              "display": "Glucose [Presence] in Urine by Test strip"
            }
          ],
          "text": "Glucose [Presence] in Urine by Test strip"
        },
        "text": {
          "status": "generated",
          "div": "<div xmlns=\"http://www.w3.org/1999/xhtml\"><table class=\"hl7__eu__lab__report\"><tr><th>Test</th><th>23-Mar-2023</th><th>Reference&#xA0;Range</th><th>Unit</th></tr><tr><td>Glucose [Presence] in Urine by Test strip</td></tr></table></div>"
        },
        "status": "final",
        "subject": {
          "reference": "urn:uuid:7ecda2a2-5b16-426b-9043-e9f34931f45c",
          "display": "Pelayo Casal"
        },
        "effectiveDateTime": "2023-03-23T05:38:59Z",
        "specimen": {
          "reference": "urn:uuid:61f37f4d-91e2-426b-a1dd-b54b71e12c63"
        }
      }
    },
    {
      "fullUrl": "urn:uuid:6008efd2-3ca7-4068-ae83-0a67479f0bda",
      "resource": {
        "resourceType": "Observation",
        "id": "6008efd2-3ca7-4068-ae83-0a67479f0bda",
        "meta": {
          "profile": [
            "http://hl7.eu/fhir/laboratory/StructureDefinition/Observation-resultslab-eu-lab"
          ]
        },
        "performer": [
          {
            "display": "The Central European Lab"
          }
        ],
        "category": [
          {
            "coding": [
              {
                "system": "http://terminology.hl7.org/CodeSystem/observation-category",
                "code": "laboratory"
              }
            ]
          }
        ],
        "code": {
          "coding": [
            {
              "code": "20505-4",
              "system": "http://loinc.org",
              "display": "Bilirubin.total [Mass/volume] in Urine by Test strip"
            }
          ],
          "text": "Bilirubin.total [Mass/volume] in Urine by Test strip"
        },
        "valueQuantity": {
          "system": "http://unitsofmeasure.org",
          "value": 1.1,
          "unit": "mg/dL",
          "code": "mg/dL"
        },
        "referenceRange": [
          {
            "low": {
              "value": 0.2,
              "code": "mg/dL",
              "system": "http://unitsofmeasure.org"
            }
          },
          {
            "high": {
              "value": 1.5,
              "code": "mg/dL",
              "system": "http://unitsofmeasure.org"
            }
          }
        ],
        "text": {
          "status": "generated",
          "div": "<div xmlns=\"http://www.w3.org/1999/xhtml\"><table class=\"hl7__eu__lab__report\"><tr><th>Test</th><th>23-Mar-2023</th><th>Reference&#xA0;Range</th><th>Unit</th></tr><tr><td>Bilirubin.total [Mass/volume] in Urine by Test strip</td><td>1.1</td><td>0.2 - 1.5</td><td></td><td>mg/dL</td></tr></table></div>"
        },
        "status": "final",
        "subject": {
          "reference": "urn:uuid:7ecda2a2-5b16-426b-9043-e9f34931f45c",
          "display": "Pelayo Casal"
        },
        "effectiveDateTime": "2023-03-23T05:38:59Z",
        "specimen": {
          "reference": "urn:uuid:61f37f4d-91e2-426b-a1dd-b54b71e12c63"
        }
      }
    },
    {
      "fullUrl": "urn:uuid:95c45137-d894-41dd-b8a6-e472b8deda3e",
      "resource": {
        "resourceType": "Observation",
        "id": "95c45137-d894-41dd-b8a6-e472b8deda3e",
        "meta": {
          "profile": [
            "http://hl7.eu/fhir/laboratory/StructureDefinition/Observation-resultslab-eu-lab"
          ]
        },
        "performer": [
          {
            "display": "The Central European Lab"
          }
        ],
        "category": [
          {
            "coding": [
              {
                "system": "http://terminology.hl7.org/CodeSystem/observation-category",
                "code": "laboratory"
              }
            ]
          }
        ],
        "code": {
          "coding": [
            {
              "code": "5770-3",
              "system": "http://loinc.org",
              "display": "Bilirubin.total [Presence] in Urine by Test strip"
            }
          ],
          "text": "Bilirubin.total [Presence] in Urine by Test strip"
        },
        "text": {
          "status": "generated",
          "div": "<div xmlns=\"http://www.w3.org/1999/xhtml\"><table class=\"hl7__eu__lab__report\"><tr><th>Test</th><th>23-Mar-2023</th><th>Reference&#xA0;Range</th><th>Unit</th></tr><tr><td>Bilirubin.total [Presence] in Urine by Test strip</td></tr></table></div>"
        },
        "status": "final",
        "subject": {
          "reference": "urn:uuid:7ecda2a2-5b16-426b-9043-e9f34931f45c",
          "display": "Pelayo Casal"
        },
        "effectiveDateTime": "2023-03-23T05:38:59Z",
        "specimen": {
          "reference": "urn:uuid:61f37f4d-91e2-426b-a1dd-b54b71e12c63"
        }
      }
    },
    {
      "fullUrl": "urn:uuid:212d5f66-fc4f-4a79-a893-bac2d45b8299",
      "resource": {
        "resourceType": "Observation",
        "id": "212d5f66-fc4f-4a79-a893-bac2d45b8299",
        "meta": {
          "profile": [
            "http://hl7.eu/fhir/laboratory/StructureDefinition/Observation-resultslab-eu-lab"
          ]
        },
        "performer": [
          {
            "display": "The Central European Lab"
          }
        ],
        "category": [
          {
            "coding": [
              {
                "system": "http://terminology.hl7.org/CodeSystem/observation-category",
                "code": "laboratory"
              }
            ]
          }
        ],
        "code": {
          "coding": [
            {
              "code": "5797-6",
              "system": "http://loinc.org",
              "display": "Ketones [Mass/volume] in Urine by Test strip"
            }
          ],
          "text": "Ketones [Mass/volume] in Urine by Test strip"
        },
        "valueQuantity": {
          "system": "http://unitsofmeasure.org",
          "value": 6.4,
          "unit": "mg/dL",
          "code": "mg/dL"
        },
        "referenceRange": [
          {
            "low": {
              "value": 0,
              "code": "mg/dL",
              "system": "http://unitsofmeasure.org"
            }
          },
          {
            "high": {
              "value": 4,
              "code": "mg/dL",
              "system": "http://unitsofmeasure.org"
            }
          }
        ],
        "interpretation": [
          {
            "coding": [
              {
                "code": "H",
                "system": "http://terminology.hl7.org/CodeSystem/v3-ObservationInterpretation",
                "display": "High"
              }
            ]
          }
        ],
        "text": {
          "status": "generated",
          "div": "<div xmlns=\"http://www.w3.org/1999/xhtml\"><table class=\"hl7__eu__lab__report\"><tr><th>Test</th><th>23-Mar-2023</th><th>Reference&#xA0;Range</th><th>Unit</th></tr><tr><td>Ketones [Mass/volume] in Urine by Test strip</td><td>6.4</td><td>0 - 4</td><td>H</td><td>mg/dL</td></tr></table></div>"
        },
        "status": "final",
        "subject": {
          "reference": "urn:uuid:7ecda2a2-5b16-426b-9043-e9f34931f45c",
          "display": "Pelayo Casal"
        },
        "effectiveDateTime": "2023-03-23T05:38:59Z",
        "specimen": {
          "reference": "urn:uuid:61f37f4d-91e2-426b-a1dd-b54b71e12c63"
        }
      }
    },
    {
      "fullUrl": "urn:uuid:82906b64-6182-4dd3-a544-4b97243faf95",
      "resource": {
        "resourceType": "Observation",
        "id": "82906b64-6182-4dd3-a544-4b97243faf95",
        "meta": {
          "profile": [
            "http://hl7.eu/fhir/laboratory/StructureDefinition/Observation-resultslab-eu-lab"
          ]
        },
        "performer": [
          {
            "display": "The Central European Lab"
          }
        ],
        "category": [
          {
            "coding": [
              {
                "system": "http://terminology.hl7.org/CodeSystem/observation-category",
                "code": "laboratory"
              }
            ]
          }
        ],
        "code": {
          "coding": [
            {
              "code": "2514-8",
              "system": "http://loinc.org",
              "display": "Ketones [Presence] in Urine by Test strip"
            }
          ],
          "text": "Ketones [Presence] in Urine by Test strip"
        },
        "text": {
          "status": "generated",
          "div": "<div xmlns=\"http://www.w3.org/1999/xhtml\"><table class=\"hl7__eu__lab__report\"><tr><th>Test</th><th>23-Mar-2023</th><th>Reference&#xA0;Range</th><th>Unit</th></tr><tr><td>Ketones [Presence] in Urine by Test strip</td></tr></table></div>"
        },
        "status": "final",
        "subject": {
          "reference": "urn:uuid:7ecda2a2-5b16-426b-9043-e9f34931f45c",
          "display": "Pelayo Casal"
        },
        "effectiveDateTime": "2023-03-23T05:38:59Z",
        "specimen": {
          "reference": "urn:uuid:61f37f4d-91e2-426b-a1dd-b54b71e12c63"
        }
      }
    },
    {
      "fullUrl": "urn:uuid:8d33702d-f2cc-4ec5-a426-e6e790f508c5",
      "resource": {
        "resourceType": "Observation",
        "id": "8d33702d-f2cc-4ec5-a426-e6e790f508c5",
        "meta": {
          "profile": [
            "http://hl7.eu/fhir/laboratory/StructureDefinition/Observation-resultslab-eu-lab"
          ]
        },
        "performer": [
          {
            "display": "The Central European Lab"
          }
        ],
        "category": [
          {
            "coding": [
              {
                "system": "http://terminology.hl7.org/CodeSystem/observation-category",
                "code": "laboratory"
              }
            ]
          }
        ],
        "code": {
          "coding": [
            {
              "code": "5811-5",
              "system": "http://loinc.org",
              "display": "Specific gravity of Urine by Test strip"
            }
          ],
          "text": "Specific gravity of Urine by Test strip"
        },
        "valueQuantity": {
          "system": "http://unitsofmeasure.org",
          "value": 1,
          "unit": "{nominal}",
          "code": "{nominal}"
        },
        "referenceRange": [
          {
            "low": {
              "value": 1.01,
              "code": "g/mL",
              "system": "http://unitsofmeasure.org"
            }
          },
          {
            "high": {
              "value": 1.03,
              "code": "g/mL",
              "system": "http://unitsofmeasure.org"
            }
          }
        ],
        "interpretation": [
          {
            "coding": [
              {
                "code": "L",
                "system": "http://terminology.hl7.org/CodeSystem/v3-ObservationInterpretation",
                "display": "Low"
              }
            ]
          }
        ],
        "text": {
          "status": "generated",
          "div": "<div xmlns=\"http://www.w3.org/1999/xhtml\"><table class=\"hl7__eu__lab__report\"><tr><th>Test</th><th>23-Mar-2023</th><th>Reference&#xA0;Range</th><th>Unit</th></tr><tr><td>Specific gravity of Urine by Test strip</td><td>1.0</td><td>1.01 - 1.03</td><td>L</td><td>{nominal}</td></tr></table></div>"
        },
        "status": "final",
        "subject": {
          "reference": "urn:uuid:7ecda2a2-5b16-426b-9043-e9f34931f45c",
          "display": "Pelayo Casal"
        },
        "effectiveDateTime": "2023-03-23T05:38:59Z",
        "specimen": {
          "reference": "urn:uuid:61f37f4d-91e2-426b-a1dd-b54b71e12c63"
        }
      }
    },
    {
      "fullUrl": "urn:uuid:4f1ee3d8-3024-4530-99d6-ed2543c7da08",
      "resource": {
        "resourceType": "Observation",
        "id": "4f1ee3d8-3024-4530-99d6-ed2543c7da08",
        "meta": {
          "profile": [
            "http://hl7.eu/fhir/laboratory/StructureDefinition/Observation-resultslab-eu-lab"
          ]
        },
        "performer": [
          {
            "display": "The Central European Lab"
          }
        ],
        "category": [
          {
            "coding": [
              {
                "system": "http://terminology.hl7.org/CodeSystem/observation-category",
                "code": "laboratory"
              }
            ]
          }
        ],
        "code": {
          "coding": [
            {
              "code": "5803-2",
              "system": "http://loinc.org",
              "display": "pH of Urine by Test strip"
            }
          ],
          "text": "pH of Urine by Test strip"
        },
        "valueQuantity": {
          "system": "http://unitsofmeasure.org",
          "value": 6.9,
          "unit": "pH",
          "code": "pH"
        },
        "referenceRange": [
          {
            "low": {
              "value": 4.5,
              "code": "pH",
              "system": "http://unitsofmeasure.org"
            }
          },
          {
            "high": {
              "value": 7.5,
              "code": "pH",
              "system": "http://unitsofmeasure.org"
            }
          }
        ],
        "text": {
          "status": "generated",
          "div": "<div xmlns=\"http://www.w3.org/1999/xhtml\"><table class=\"hl7__eu__lab__report\"><tr><th>Test</th><th>23-Mar-2023</th><th>Reference&#xA0;Range</th><th>Unit</th></tr><tr><td>pH of Urine by Test strip</td><td>6.9</td><td>4.5 - 7.5</td><td></td><td>pH</td></tr></table></div>"
        },
        "status": "final",
        "subject": {
          "reference": "urn:uuid:7ecda2a2-5b16-426b-9043-e9f34931f45c",
          "display": "Pelayo Casal"
        },
        "effectiveDateTime": "2023-03-23T05:38:59Z",
        "specimen": {
          "reference": "urn:uuid:61f37f4d-91e2-426b-a1dd-b54b71e12c63"
        }
      }
    },
    {
      "fullUrl": "urn:uuid:321e5038-b8db-4f00-8f53-6bbbb5e02c7c",
      "resource": {
        "resourceType": "Observation",
        "id": "321e5038-b8db-4f00-8f53-6bbbb5e02c7c",
        "meta": {
          "profile": [
            "http://hl7.eu/fhir/laboratory/StructureDefinition/Observation-resultslab-eu-lab"
          ]
        },
        "performer": [
          {
            "display": "The Central European Lab"
          }
        ],
        "category": [
          {
            "coding": [
              {
                "system": "http://terminology.hl7.org/CodeSystem/observation-category",
                "code": "laboratory"
              }
            ]
          }
        ],
        "code": {
          "coding": [
            {
              "code": "5804-0",
              "system": "http://loinc.org",
              "display": "Protein [Mass/volume] in Urine by Test strip"
            }
          ],
          "text": "Protein [Mass/volume] in Urine by Test strip"
        },
        "valueQuantity": {
          "system": "http://unitsofmeasure.org",
          "value": 173,
          "unit": "mg/dL",
          "code": "mg/dL"
        },
        "referenceRange": [
          {
            "low": {
              "value": 0,
              "code": "mg/dL",
              "system": "http://unitsofmeasure.org"
            }
          },
          {
            "high": {
              "value": 150,
              "code": "mg/dL",
              "system": "http://unitsofmeasure.org"
            }
          }
        ],
        "interpretation": [
          {
            "coding": [
              {
                "code": "H",
                "system": "http://terminology.hl7.org/CodeSystem/v3-ObservationInterpretation",
                "display": "High"
              }
            ]
          }
        ],
        "text": {
          "status": "generated",
          "div": "<div xmlns=\"http://www.w3.org/1999/xhtml\"><table class=\"hl7__eu__lab__report\"><tr><th>Test</th><th>23-Mar-2023</th><th>Reference&#xA0;Range</th><th>Unit</th></tr><tr><td>Protein [Mass/volume] in Urine by Test strip</td><td>173.0</td><td>0 - 150</td><td>H</td><td>mg/dL</td></tr></table></div>"
        },
        "status": "final",
        "subject": {
          "reference": "urn:uuid:7ecda2a2-5b16-426b-9043-e9f34931f45c",
          "display": "Pelayo Casal"
        },
        "effectiveDateTime": "2023-03-23T05:38:59Z",
        "specimen": {
          "reference": "urn:uuid:61f37f4d-91e2-426b-a1dd-b54b71e12c63"
        }
      }
    },
    {
      "fullUrl": "urn:uuid:65c8b4ab-5248-42c2-9d8c-09e000cb8bc9",
      "resource": {
        "resourceType": "Observation",
        "id": "65c8b4ab-5248-42c2-9d8c-09e000cb8bc9",
        "meta": {
          "profile": [
            "http://hl7.eu/fhir/laboratory/StructureDefinition/Observation-resultslab-eu-lab"
          ]
        },
        "performer": [
          {
            "display": "The Central European Lab"
          }
        ],
        "category": [
          {
            "coding": [
              {
                "system": "http://terminology.hl7.org/CodeSystem/observation-category",
                "code": "laboratory"
              }
            ]
          }
        ],
        "code": {
          "coding": [
            {
              "code": "20454-5",
              "system": "http://loinc.org",
              "display": "Protein [Presence] in Urine by Test strip"
            }
          ],
          "text": "Protein [Presence] in Urine by Test strip"
        },
        "text": {
          "status": "generated",
          "div": "<div xmlns=\"http://www.w3.org/1999/xhtml\"><table class=\"hl7__eu__lab__report\"><tr><th>Test</th><th>23-Mar-2023</th><th>Reference&#xA0;Range</th><th>Unit</th></tr><tr><td>Protein [Presence] in Urine by Test strip</td></tr></table></div>"
        },
        "status": "final",
        "subject": {
          "reference": "urn:uuid:7ecda2a2-5b16-426b-9043-e9f34931f45c",
          "display": "Pelayo Casal"
        },
        "effectiveDateTime": "2023-03-23T05:38:59Z",
        "specimen": {
          "reference": "urn:uuid:61f37f4d-91e2-426b-a1dd-b54b71e12c63"
        }
      }
    },
    {
      "fullUrl": "urn:uuid:20ec487a-65f7-4611-930c-f757705692c0",
      "resource": {
        "resourceType": "Observation",
        "id": "20ec487a-65f7-4611-930c-f757705692c0",
        "meta": {
          "profile": [
            "http://hl7.eu/fhir/laboratory/StructureDefinition/Observation-resultslab-eu-lab"
          ]
        },
        "performer": [
          {
            "display": "The Central European Lab"
          }
        ],
        "category": [
          {
            "coding": [
              {
                "system": "http://terminology.hl7.org/CodeSystem/observation-category",
                "code": "laboratory"
              }
            ]
          }
        ],
        "code": {
          "coding": [
            {
              "code": "5802-4",
              "system": "http://loinc.org",
              "display": "Nitrite [Presence] in Urine by Test strip"
            }
          ],
          "text": "Nitrite [Presence] in Urine by Test strip"
        },
        "text": {
          "status": "generated",
          "div": "<div xmlns=\"http://www.w3.org/1999/xhtml\"><table class=\"hl7__eu__lab__report\"><tr><th>Test</th><th>23-Mar-2023</th><th>Reference&#xA0;Range</th><th>Unit</th></tr><tr><td>Nitrite [Presence] in Urine by Test strip</td></tr></table></div>"
        },
        "status": "final",
        "subject": {
          "reference": "urn:uuid:7ecda2a2-5b16-426b-9043-e9f34931f45c",
          "display": "Pelayo Casal"
        },
        "effectiveDateTime": "2023-03-23T05:38:59Z",
        "specimen": {
          "reference": "urn:uuid:61f37f4d-91e2-426b-a1dd-b54b71e12c63"
        }
      }
    },
    {
      "fullUrl": "urn:uuid:78db1efa-62fd-436e-9640-9185cc6b100c",
      "resource": {
        "resourceType": "Observation",
        "id": "78db1efa-62fd-436e-9640-9185cc6b100c",
        "meta": {
          "profile": [
            "http://hl7.eu/fhir/laboratory/StructureDefinition/Observation-resultslab-eu-lab"
          ]
        },
        "performer": [
          {
            "display": "The Central European Lab"
          }
        ],
        "category": [
          {
            "coding": [
              {
                "system": "http://terminology.hl7.org/CodeSystem/observation-category",
                "code": "laboratory"
              }
            ]
          }
        ],
        "code": {
          "coding": [
            {
              "code": "5794-3",
              "system": "http://loinc.org",
              "display": "Hemoglobin [Presence] in Urine by Test strip"
            }
          ],
          "text": "Hemoglobin [Presence] in Urine by Test strip"
        },
        "text": {
          "status": "generated",
          "div": "<div xmlns=\"http://www.w3.org/1999/xhtml\"><table class=\"hl7__eu__lab__report\"><tr><th>Test</th><th>23-Mar-2023</th><th>Reference&#xA0;Range</th><th>Unit</th></tr><tr><td>Hemoglobin [Presence] in Urine by Test strip</td></tr></table></div>"
        },
        "status": "final",
        "subject": {
          "reference": "urn:uuid:7ecda2a2-5b16-426b-9043-e9f34931f45c",
          "display": "Pelayo Casal"
        },
        "effectiveDateTime": "2023-03-23T05:38:59Z",
        "specimen": {
          "reference": "urn:uuid:61f37f4d-91e2-426b-a1dd-b54b71e12c63"
        }
      }
    },
    {
      "fullUrl": "urn:uuid:d0e4dcc6-e8bf-4829-b6a3-4ae849adcebf",
      "resource": {
        "resourceType": "Observation",
        "id": "d0e4dcc6-e8bf-4829-b6a3-4ae849adcebf",
        "meta": {
          "profile": [
            "http://hl7.eu/fhir/laboratory/StructureDefinition/Observation-resultslab-eu-lab"
          ]
        },
        "performer": [
          {
            "display": "The Central European Lab"
          }
        ],
        "category": [
          {
            "coding": [
              {
                "system": "http://terminology.hl7.org/CodeSystem/observation-category",
                "code": "laboratory"
              }
            ]
          }
        ],
        "code": {
          "coding": [
            {
              "code": "5799-2",
              "system": "http://loinc.org",
              "display": "Leukocyte esterase [Presence] in Urine by Test strip"
            }
          ],
          "text": "Leukocyte esterase [Presence] in Urine by Test strip"
        },
        "text": {
          "status": "generated",
          "div": "<div xmlns=\"http://www.w3.org/1999/xhtml\"><table class=\"hl7__eu__lab__report\"><tr><th>Test</th><th>23-Mar-2023</th><th>Reference&#xA0;Range</th><th>Unit</th></tr><tr><td>Leukocyte esterase [Presence] in Urine by Test strip</td></tr></table></div>"
        },
        "status": "final",
        "subject": {
          "reference": "urn:uuid:7ecda2a2-5b16-426b-9043-e9f34931f45c",
          "display": "Pelayo Casal"
        },
        "effectiveDateTime": "2023-03-23T05:38:59Z",
        "specimen": {
          "reference": "urn:uuid:61f37f4d-91e2-426b-a1dd-b54b71e12c63"
        }
      }
    },
    {
      "fullUrl": "urn:uuid:37c84be2-0ac4-41dc-8be1-c8c7006eeffa",
      "resource": {
        "resourceType": "Observation",
        "id": "37c84be2-0ac4-41dc-8be1-c8c7006eeffa",
        "meta": {
          "profile": [
            "http://hl7.eu/fhir/laboratory/StructureDefinition/Observation-resultslab-eu-lab"
          ]
        },
        "performer": [
          {
            "display": "The Central European Lab"
          }
        ],
        "category": [
          {
            "coding": [
              {
                "system": "http://terminology.hl7.org/CodeSystem/observation-category",
                "code": "laboratory"
              }
            ]
          }
        ],
        "code": {
          "coding": [
            {
              "code": "4548-4",
              "system": "http://loinc.org",
              "display": "Hemoglobin A1c/Hemoglobin.total in Blood"
            }
          ],
          "text": "Hemoglobin A1c/Hemoglobin.total in Blood"
        },
        "valueQuantity": {
          "system": "http://unitsofmeasure.org",
          "value": 3,
          "unit": "%",
          "code": "%"
        },
        "referenceRange": [
          {
            "low": {
              "value": 4.5,
              "code": "%",
              "system": "http://unitsofmeasure.org"
            }
          },
          {
            "high": {
              "value": 6.4,
              "code": "%",
              "system": "http://unitsofmeasure.org"
            }
          }
        ],
        "interpretation": [
          {
            "coding": [
              {
                "code": "L",
                "system": "http://terminology.hl7.org/CodeSystem/v3-ObservationInterpretation",
                "display": "Low"
              }
            ]
          }
        ],
        "text": {
          "status": "generated",
          "div": "<div xmlns=\"http://www.w3.org/1999/xhtml\"><table class=\"hl7__eu__lab__report\"><tr><th>Test</th><th>23-Mar-2023</th><th>Reference&#xA0;Range</th><th>Unit</th></tr><tr><td>Hemoglobin A1c/Hemoglobin.total in Blood</td><td>3.0</td><td>4.5 - 6.4</td><td>L</td><td>%</td></tr></table></div>"
        },
        "status": "final",
        "subject": {
          "reference": "urn:uuid:7ecda2a2-5b16-426b-9043-e9f34931f45c",
          "display": "Pelayo Casal"
        },
        "effectiveDateTime": "2023-03-23T05:38:59Z",
        "specimen": {
          "reference": "urn:uuid:16f12db0-abc5-45ad-a1f1-c51cc1c4875e"
        }
      }
    },
    {
      "fullUrl": "urn:uuid:758f1fcc-fd24-449f-b42d-13747636001b",
      "resource": {
        "resourceType": "Observation",
        "id": "758f1fcc-fd24-449f-b42d-13747636001b",
        "meta": {
          "profile": [
            "http://hl7.eu/fhir/laboratory/StructureDefinition/Observation-resultslab-eu-lab"
          ]
        },
        "performer": [
          {
            "display": "The Central European Lab"
          }
        ],
        "category": [
          {
            "coding": [
              {
                "system": "http://terminology.hl7.org/CodeSystem/observation-category",
                "code": "laboratory"
              }
            ]
          }
        ],
        "code": {
          "coding": [
            {
              "code": "2339-0",
              "system": "http://loinc.org",
              "display": "Glucose [Mass/volume] in Blood"
            }
          ],
          "text": "Glucose [Mass/volume] in Blood"
        },
        "valueQuantity": {
          "system": "http://unitsofmeasure.org",
          "value": 88.4,
          "unit": "mg/dL",
          "code": "mg/dL"
        },
        "referenceRange": [
          {
            "low": {
              "value": 70,
              "code": "mg/dL",
              "system": "http://unitsofmeasure.org"
            }
          },
          {
            "high": {
              "value": 140,
              "code": "mg/dL",
              "system": "http://unitsofmeasure.org"
            }
          }
        ],
        "text": {
          "status": "generated",
          "div": "<div xmlns=\"http://www.w3.org/1999/xhtml\"><table class=\"hl7__eu__lab__report\"><tr><th>Test</th><th>23-Mar-2023</th><th>Reference&#xA0;Range</th><th>Unit</th></tr><tr><td>Glucose [Mass/volume] in Blood</td><td>88.4</td><td>70 - 140</td><td></td><td>mg/dL</td></tr></table></div>"
        },
        "status": "final",
        "subject": {
          "reference": "urn:uuid:7ecda2a2-5b16-426b-9043-e9f34931f45c",
          "display": "Pelayo Casal"
        },
        "effectiveDateTime": "2023-03-23T05:38:59Z",
        "specimen": {
          "reference": "urn:uuid:16f12db0-abc5-45ad-a1f1-c51cc1c4875e"
        }
      }
    },
    {
      "fullUrl": "urn:uuid:92e86f05-cc98-484c-9c80-c34267703cd9",
      "resource": {
        "resourceType": "Observation",
        "id": "92e86f05-cc98-484c-9c80-c34267703cd9",
        "meta": {
          "profile": [
            "http://hl7.eu/fhir/laboratory/StructureDefinition/Observation-resultslab-eu-lab"
          ]
        },
        "performer": [
          {
            "display": "The Central European Lab"
          }
        ],
        "category": [
          {
            "coding": [
              {
                "system": "http://terminology.hl7.org/CodeSystem/observation-category",
                "code": "laboratory"
              }
            ]
          }
        ],
        "code": {
          "coding": [
            {
              "code": "6299-2",
              "system": "http://loinc.org",
              "display": "Urea nitrogen [Mass/volume] in Blood"
            }
          ],
          "text": "Urea nitrogen [Mass/volume] in Blood"
        },
        "valueQuantity": {
          "system": "http://unitsofmeasure.org",
          "value": 17.4,
          "unit": "mg/dL",
          "code": "mg/dL"
        },
        "referenceRange": [
          {
            "low": {
              "value": 7,
              "code": "mg/dL",
              "system": "http://unitsofmeasure.org"
            }
          },
          {
            "high": {
              "value": 25,
              "code": "mg/dL",
              "system": "http://unitsofmeasure.org"
            }
          }
        ],
        "text": {
          "status": "generated",
          "div": "<div xmlns=\"http://www.w3.org/1999/xhtml\"><table class=\"hl7__eu__lab__report\"><tr><th>Test</th><th>23-Mar-2023</th><th>Reference&#xA0;Range</th><th>Unit</th></tr><tr><td>Urea nitrogen [Mass/volume] in Blood</td><td>17.4</td><td>7 - 25</td><td></td><td>mg/dL</td></tr></table></div>"
        },
        "status": "final",
        "subject": {
          "reference": "urn:uuid:7ecda2a2-5b16-426b-9043-e9f34931f45c",
          "display": "Pelayo Casal"
        },
        "effectiveDateTime": "2023-03-23T05:38:59Z",
        "specimen": {
          "reference": "urn:uuid:16f12db0-abc5-45ad-a1f1-c51cc1c4875e"
        }
      }
    },
    {
      "fullUrl": "urn:uuid:a0fe143d-6e2e-478e-b69b-82f8950a7c02",
      "resource": {
        "resourceType": "Observation",
        "id": "a0fe143d-6e2e-478e-b69b-82f8950a7c02",
        "meta": {
          "profile": [
            "http://hl7.eu/fhir/laboratory/StructureDefinition/Observation-resultslab-eu-lab"
          ]
        },
        "performer": [
          {
            "display": "The Central European Lab"
          }
        ],
        "category": [
          {
            "coding": [
              {
                "system": "http://terminology.hl7.org/CodeSystem/observation-category",
                "code": "laboratory"
              }
            ]
          }
        ],
        "code": {
          "coding": [
            {
              "code": "38483-4",
              "system": "http://loinc.org",
              "display": "Creatinine [Mass/volume] in Blood"
            }
          ],
          "text": "Creatinine [Mass/volume] in Blood"
        },
        "valueQuantity": {
          "system": "http://unitsofmeasure.org",
          "value": 1.9,
          "unit": "mg/dL",
          "code": "mg/dL"
        },
        "referenceRange": [
          {
            "low": {
              "value": 0.9,
              "code": "mg/dL",
              "system": "http://unitsofmeasure.org"
            }
          },
          {
            "high": {
              "value": 1.3,
              "code": "mg/dL",
              "system": "http://unitsofmeasure.org"
            }
          }
        ],
        "interpretation": [
          {
            "coding": [
              {
                "code": "H",
                "system": "http://terminology.hl7.org/CodeSystem/v3-ObservationInterpretation",
                "display": "High"
              }
            ]
          }
        ],
        "text": {
          "status": "generated",
          "div": "<div xmlns=\"http://www.w3.org/1999/xhtml\"><table class=\"hl7__eu__lab__report\"><tr><th>Test</th><th>23-Mar-2023</th><th>Reference&#xA0;Range</th><th>Unit</th></tr><tr><td>Creatinine [Mass/volume] in Blood</td><td>1.9</td><td>0.9 - 1.3</td><td>H</td><td>mg/dL</td></tr></table></div>"
        },
        "status": "final",
        "subject": {
          "reference": "urn:uuid:7ecda2a2-5b16-426b-9043-e9f34931f45c",
          "display": "Pelayo Casal"
        },
        "effectiveDateTime": "2023-03-23T05:38:59Z",
        "specimen": {
          "reference": "urn:uuid:16f12db0-abc5-45ad-a1f1-c51cc1c4875e"
        }
      }
    },
    {
      "fullUrl": "urn:uuid:e752a5ba-526e-4712-bc84-613e13dacc49",
      "resource": {
        "resourceType": "Observation",
        "id": "e752a5ba-526e-4712-bc84-613e13dacc49",
        "meta": {
          "profile": [
            "http://hl7.eu/fhir/laboratory/StructureDefinition/Observation-resultslab-eu-lab"
          ]
        },
        "performer": [
          {
            "display": "The Central European Lab"
          }
        ],
        "category": [
          {
            "coding": [
              {
                "system": "http://terminology.hl7.org/CodeSystem/observation-category",
                "code": "laboratory"
              }
            ]
          }
        ],
        "code": {
          "coding": [
            {
              "code": "49765-1",
              "system": "http://loinc.org",
              "display": "Calcium [Mass/volume] in Blood"
            }
          ],
          "text": "Calcium [Mass/volume] in Blood"
        },
        "valueQuantity": {
          "system": "http://unitsofmeasure.org",
          "value": 9.3,
          "unit": "mg/dL",
          "code": "mg/dL"
        },
        "referenceRange": [
          {
            "low": {
              "value": 8.6,
              "code": "mg/dL",
              "system": "http://unitsofmeasure.org"
            }
          },
          {
            "high": {
              "value": 10.2,
              "code": "mg/dL",
              "system": "http://unitsofmeasure.org"
            }
          }
        ],
        "text": {
          "status": "generated",
          "div": "<div xmlns=\"http://www.w3.org/1999/xhtml\"><table class=\"hl7__eu__lab__report\"><tr><th>Test</th><th>23-Mar-2023</th><th>Reference&#xA0;Range</th><th>Unit</th></tr><tr><td>Calcium [Mass/volume] in Blood</td><td>9.3</td><td>8.6 - 10.2</td><td></td><td>mg/dL</td></tr></table></div>"
        },
        "status": "final",
        "subject": {
          "reference": "urn:uuid:7ecda2a2-5b16-426b-9043-e9f34931f45c",
          "display": "Pelayo Casal"
        },
        "effectiveDateTime": "2023-03-23T05:38:59Z",
        "specimen": {
          "reference": "urn:uuid:16f12db0-abc5-45ad-a1f1-c51cc1c4875e"
        }
      }
    },
    {
      "fullUrl": "urn:uuid:3ae9f2f6-0030-41f6-9676-d91f28933fc1",
      "resource": {
        "resourceType": "Observation",
        "id": "3ae9f2f6-0030-41f6-9676-d91f28933fc1",
        "meta": {
          "profile": [
            "http://hl7.eu/fhir/laboratory/StructureDefinition/Observation-resultslab-eu-lab"
          ]
        },
        "performer": [
          {
            "display": "The Central European Lab"
          }
        ],
        "category": [
          {
            "coding": [
              {
                "system": "http://terminology.hl7.org/CodeSystem/observation-category",
                "code": "laboratory"
              }
            ]
          }
        ],
        "code": {
          "coding": [
            {
              "code": "2947-0",
              "system": "http://loinc.org",
              "display": "Sodium [Moles/volume] in Blood"
            }
          ],
          "text": "Sodium [Moles/volume] in Blood"
        },
        "valueQuantity": {
          "system": "http://unitsofmeasure.org",
          "value": 136.4,
          "unit": "mmol/L",
          "code": "mmol/L"
        },
        "referenceRange": [
          {
            "low": {
              "value": 135,
              "code": "mmol/L",
              "system": "http://unitsofmeasure.org"
            }
          },
          {
            "high": {
              "value": 145,
              "code": "mmol/L",
              "system": "http://unitsofmeasure.org"
            }
          }
        ],
        "text": {
          "status": "generated",
          "div": "<div xmlns=\"http://www.w3.org/1999/xhtml\"><table class=\"hl7__eu__lab__report\"><tr><th>Test</th><th>23-Mar-2023</th><th>Reference&#xA0;Range</th><th>Unit</th></tr><tr><td>Sodium [Moles/volume] in Blood</td><td>136.4</td><td>135 - 145</td><td></td><td>mmol/L</td></tr></table></div>"
        },
        "status": "final",
        "subject": {
          "reference": "urn:uuid:7ecda2a2-5b16-426b-9043-e9f34931f45c",
          "display": "Pelayo Casal"
        },
        "effectiveDateTime": "2023-03-23T05:38:59Z",
        "specimen": {
          "reference": "urn:uuid:16f12db0-abc5-45ad-a1f1-c51cc1c4875e"
        }
      }
    },
    {
      "fullUrl": "urn:uuid:aba5a56a-1854-446f-87dd-c0107389f0bc",
      "resource": {
        "resourceType": "Observation",
        "id": "aba5a56a-1854-446f-87dd-c0107389f0bc",
        "meta": {
          "profile": [
            "http://hl7.eu/fhir/laboratory/StructureDefinition/Observation-resultslab-eu-lab"
          ]
        },
        "performer": [
          {
            "display": "The Central European Lab"
          }
        ],
        "category": [
          {
            "coding": [
              {
                "system": "http://terminology.hl7.org/CodeSystem/observation-category",
                "code": "laboratory"
              }
            ]
          }
        ],
        "code": {
          "coding": [
            {
              "code": "6298-4",
              "system": "http://loinc.org",
              "display": "Potassium [Moles/volume] in Blood"
            }
          ],
          "text": "Potassium [Moles/volume] in Blood"
        },
        "valueQuantity": {
          "system": "http://unitsofmeasure.org",
          "value": 3.7,
          "unit": "mmol/L",
          "code": "mmol/L"
        },
        "referenceRange": [
          {
            "low": {
              "value": 3.5,
              "code": "mmol/L",
              "system": "http://unitsofmeasure.org"
            }
          },
          {
            "high": {
              "value": 5.1,
              "code": "mmol/L",
              "system": "http://unitsofmeasure.org"
            }
          }
        ],
        "text": {
          "status": "generated",
          "div": "<div xmlns=\"http://www.w3.org/1999/xhtml\"><table class=\"hl7__eu__lab__report\"><tr><th>Test</th><th>23-Mar-2023</th><th>Reference&#xA0;Range</th><th>Unit</th></tr><tr><td>Potassium [Moles/volume] in Blood</td><td>3.7</td><td>3.5 - 5.1</td><td></td><td>mmol/L</td></tr></table></div>"
        },
        "status": "final",
        "subject": {
          "reference": "urn:uuid:7ecda2a2-5b16-426b-9043-e9f34931f45c",
          "display": "Pelayo Casal"
        },
        "effectiveDateTime": "2023-03-23T05:38:59Z",
        "specimen": {
          "reference": "urn:uuid:16f12db0-abc5-45ad-a1f1-c51cc1c4875e"
        }
      }
    },
    {
      "fullUrl": "urn:uuid:b82e92f7-8cd2-44c8-948f-693210fdab0c",
      "resource": {
        "resourceType": "Observation",
        "id": "b82e92f7-8cd2-44c8-948f-693210fdab0c",
        "meta": {
          "profile": [
            "http://hl7.eu/fhir/laboratory/StructureDefinition/Observation-resultslab-eu-lab"
          ]
        },
        "performer": [
          {
            "display": "The Central European Lab"
          }
        ],
        "category": [
          {
            "coding": [
              {
                "system": "http://terminology.hl7.org/CodeSystem/observation-category",
                "code": "laboratory"
              }
            ]
          }
        ],
        "code": {
          "coding": [
            {
              "code": "2069-3",
              "system": "http://loinc.org",
              "display": "Chloride [Moles/volume] in Blood"
            }
          ],
          "text": "Chloride [Moles/volume] in Blood"
        },
        "valueQuantity": {
          "system": "http://unitsofmeasure.org",
          "value": 104.1,
          "unit": "mmol/L",
          "code": "mmol/L"
        },
        "referenceRange": [
          {
            "low": {
              "value": 98,
              "code": "mmol/L",
              "system": "http://unitsofmeasure.org"
            }
          },
          {
            "high": {
              "value": 108,
              "code": "mmol/L",
              "system": "http://unitsofmeasure.org"
            }
          }
        ],
        "text": {
          "status": "generated",
          "div": "<div xmlns=\"http://www.w3.org/1999/xhtml\"><table class=\"hl7__eu__lab__report\"><tr><th>Test</th><th>23-Mar-2023</th><th>Reference&#xA0;Range</th><th>Unit</th></tr><tr><td>Chloride [Moles/volume] in Blood</td><td>104.1</td><td>98 - 108</td><td></td><td>mmol/L</td></tr></table></div>"
        },
        "status": "final",
        "subject": {
          "reference": "urn:uuid:7ecda2a2-5b16-426b-9043-e9f34931f45c",
          "display": "Pelayo Casal"
        },
        "effectiveDateTime": "2023-03-23T05:38:59Z",
        "specimen": {
          "reference": "urn:uuid:16f12db0-abc5-45ad-a1f1-c51cc1c4875e"
        }
      }
    },
    {
      "fullUrl": "urn:uuid:a8653e55-9775-4087-9885-d1c55138b2d1",
      "resource": {
        "resourceType": "Observation",
        "id": "a8653e55-9775-4087-9885-d1c55138b2d1",
        "meta": {
          "profile": [
            "http://hl7.eu/fhir/laboratory/StructureDefinition/Observation-resultslab-eu-lab"
          ]
        },
        "performer": [
          {
            "display": "The Central European Lab"
          }
        ],
        "category": [
          {
            "coding": [
              {
                "system": "http://terminology.hl7.org/CodeSystem/observation-category",
                "code": "laboratory"
              }
            ]
          }
        ],
        "code": {
          "coding": [
            {
              "code": "20565-8",
              "system": "http://loinc.org",
              "display": "Carbon dioxide, total [Moles/volume] in Blood"
            }
          ],
          "text": "Carbon dioxide, total [Moles/volume] in Blood"
        },
        "valueQuantity": {
          "system": "http://unitsofmeasure.org",
          "value": 25.5,
          "unit": "mmol/L",
          "code": "mmol/L"
        },
        "referenceRange": [
          {
            "low": {
              "value": 22,
              "code": "mmol/L",
              "system": "http://unitsofmeasure.org"
            }
          },
          {
            "high": {
              "value": 32,
              "code": "mmol/L",
              "system": "http://unitsofmeasure.org"
            }
          }
        ],
        "text": {
          "status": "generated",
          "div": "<div xmlns=\"http://www.w3.org/1999/xhtml\"><table class=\"hl7__eu__lab__report\"><tr><th>Test</th><th>23-Mar-2023</th><th>Reference&#xA0;Range</th><th>Unit</th></tr><tr><td>Carbon dioxide, total [Moles/volume] in Blood</td><td>25.5</td><td>22 - 32</td><td></td><td>mmol/L</td></tr></table></div>"
        },
        "status": "final",
        "subject": {
          "reference": "urn:uuid:7ecda2a2-5b16-426b-9043-e9f34931f45c",
          "display": "Pelayo Casal"
        },
        "effectiveDateTime": "2023-03-23T05:38:59Z",
        "specimen": {
          "reference": "urn:uuid:16f12db0-abc5-45ad-a1f1-c51cc1c4875e"
        }
      }
    },
    {
      "fullUrl": "urn:uuid:c2b79539-7038-48f3-8ed6-7670d8267a74",
      "resource": {
        "resourceType": "Observation",
        "id": "c2b79539-7038-48f3-8ed6-7670d8267a74",
        "meta": {
          "profile": [
            "http://hl7.eu/fhir/laboratory/StructureDefinition/Observation-resultslab-eu-lab"
          ]
        },
        "performer": [
          {
            "display": "The Central European Lab"
          }
        ],
        "category": [
          {
            "coding": [
              {
                "system": "http://terminology.hl7.org/CodeSystem/observation-category",
                "code": "laboratory"
              }
            ]
          }
        ],
        "code": {
          "coding": [
            {
              "code": "6690-2",
              "system": "http://loinc.org",
              "display": "Leukocytes [#/volume] in Blood by Automated count"
            }
          ],
          "text": "Leukocytes [#/volume] in Blood by Automated count"
        },
        "valueQuantity": {
          "system": "http://unitsofmeasure.org",
          "value": 6.7,
          "unit": "10*3/uL",
          "code": "10*3/uL"
        },
        "referenceRange": [
          {
            "low": {
              "value": 3.6,
              "code": "10*3/uL",
              "system": "http://unitsofmeasure.org"
            }
          },
          {
            "high": {
              "value": 10.5,
              "code": "10*3/uL",
              "system": "http://unitsofmeasure.org"
            }
          }
        ],
        "text": {
          "status": "generated",
          "div": "<div xmlns=\"http://www.w3.org/1999/xhtml\"><table class=\"hl7__eu__lab__report\"><tr><th>Test</th><th>23-Mar-2023</th><th>Reference&#xA0;Range</th><th>Unit</th></tr><tr><td>Leukocytes [#/volume] in Blood by Automated count</td><td>6.7</td><td>3.6 - 10.5</td><td></td><td>10*3/uL</td></tr></table></div>"
        },
        "status": "final",
        "subject": {
          "reference": "urn:uuid:7ecda2a2-5b16-426b-9043-e9f34931f45c",
          "display": "Pelayo Casal"
        },
        "effectiveDateTime": "2023-03-23T05:38:59Z",
        "specimen": {
          "reference": "urn:uuid:16f12db0-abc5-45ad-a1f1-c51cc1c4875e"
        }
      }
    },
    {
      "fullUrl": "urn:uuid:341d511c-6010-428c-a337-ff499c13172e",
      "resource": {
        "resourceType": "Observation",
        "id": "341d511c-6010-428c-a337-ff499c13172e",
        "meta": {
          "profile": [
            "http://hl7.eu/fhir/laboratory/StructureDefinition/Observation-resultslab-eu-lab"
          ]
        },
        "performer": [
          {
            "display": "The Central European Lab"
          }
        ],
        "category": [
          {
            "coding": [
              {
                "system": "http://terminology.hl7.org/CodeSystem/observation-category",
                "code": "laboratory"
              }
            ]
          }
        ],
        "code": {
          "coding": [
            {
              "code": "789-8",
              "system": "http://loinc.org",
              "display": "Erythrocytes [#/volume] in Blood by Automated count"
            }
          ],
          "text": "Erythrocytes [#/volume] in Blood by Automated count"
        },
        "valueQuantity": {
          "system": "http://unitsofmeasure.org",
          "value": 4.5,
          "unit": "10*6/uL",
          "code": "10*6/uL"
        },
        "referenceRange": [
          {
            "low": {
              "value": 4,
              "code": "10*6/uL",
              "system": "http://unitsofmeasure.org"
            }
          },
          {
            "high": {
              "value": 5.7,
              "code": "10*6/uL",
              "system": "http://unitsofmeasure.org"
            }
          }
        ],
        "text": {
          "status": "generated",
          "div": "<div xmlns=\"http://www.w3.org/1999/xhtml\"><table class=\"hl7__eu__lab__report\"><tr><th>Test</th><th>23-Mar-2023</th><th>Reference&#xA0;Range</th><th>Unit</th></tr><tr><td>Erythrocytes [#/volume] in Blood by Automated count</td><td>4.5</td><td>4 - 5.7</td><td></td><td>10*6/uL</td></tr></table></div>"
        },
        "status": "final",
        "subject": {
          "reference": "urn:uuid:7ecda2a2-5b16-426b-9043-e9f34931f45c",
          "display": "Pelayo Casal"
        },
        "effectiveDateTime": "2023-03-23T05:38:59Z",
        "specimen": {
          "reference": "urn:uuid:16f12db0-abc5-45ad-a1f1-c51cc1c4875e"
        }
      }
    },
    {
      "fullUrl": "urn:uuid:19727a2f-636d-456c-9f6e-729a9854a8e0",
      "resource": {
        "resourceType": "Observation",
        "id": "19727a2f-636d-456c-9f6e-729a9854a8e0",
        "meta": {
          "profile": [
            "http://hl7.eu/fhir/laboratory/StructureDefinition/Observation-resultslab-eu-lab"
          ]
        },
        "performer": [
          {
            "display": "The Central European Lab"
          }
        ],
        "category": [
          {
            "coding": [
              {
                "system": "http://terminology.hl7.org/CodeSystem/observation-category",
                "code": "laboratory"
              }
            ]
          }
        ],
        "code": {
          "coding": [
            {
              "code": "718-7",
              "system": "http://loinc.org",
              "display": "Hemoglobin [Mass/volume] in Blood"
            }
          ],
          "text": "Hemoglobin [Mass/volume] in Blood"
        },
        "valueQuantity": {
          "system": "http://unitsofmeasure.org",
          "value": 12.6,
          "unit": "g/dL",
          "code": "g/dL"
        },
        "referenceRange": [
          {
            "low": {
              "value": 13.8,
              "code": "g/dL",
              "system": "http://unitsofmeasure.org"
            }
          },
          {
            "high": {
              "value": 17.5,
              "code": "g/dL",
              "system": "http://unitsofmeasure.org"
            }
          }
        ],
        "interpretation": [
          {
            "coding": [
              {
                "code": "L",
                "system": "http://terminology.hl7.org/CodeSystem/v3-ObservationInterpretation",
                "display": "Low"
              }
            ]
          }
        ],
        "text": {
          "status": "generated",
          "div": "<div xmlns=\"http://www.w3.org/1999/xhtml\"><table class=\"hl7__eu__lab__report\"><tr><th>Test</th><th>23-Mar-2023</th><th>Reference&#xA0;Range</th><th>Unit</th></tr><tr><td>Hemoglobin [Mass/volume] in Blood</td><td>12.6</td><td>13.8 - 17.5</td><td>L</td><td>g/dL</td></tr></table></div>"
        },
        "status": "final",
        "subject": {
          "reference": "urn:uuid:7ecda2a2-5b16-426b-9043-e9f34931f45c",
          "display": "Pelayo Casal"
        },
        "effectiveDateTime": "2023-03-23T05:38:59Z",
        "specimen": {
          "reference": "urn:uuid:16f12db0-abc5-45ad-a1f1-c51cc1c4875e"
        }
      }
    },
    {
      "fullUrl": "urn:uuid:f69dc2ab-aef7-479f-af64-95ff3e459e0e",
      "resource": {
        "resourceType": "Observation",
        "id": "f69dc2ab-aef7-479f-af64-95ff3e459e0e",
        "meta": {
          "profile": [
            "http://hl7.eu/fhir/laboratory/StructureDefinition/Observation-resultslab-eu-lab"
          ]
        },
        "performer": [
          {
            "display": "The Central European Lab"
          }
        ],
        "category": [
          {
            "coding": [
              {
                "system": "http://terminology.hl7.org/CodeSystem/observation-category",
                "code": "laboratory"
              }
            ]
          }
        ],
        "code": {
          "coding": [
            {
              "code": "4544-3",
              "system": "http://loinc.org",
              "display": "Hematocrit [Volume Fraction] of Blood by Automated count"
            }
          ],
          "text": "Hematocrit [Volume Fraction] of Blood by Automated count"
        },
        "valueQuantity": {
          "system": "http://unitsofmeasure.org",
          "value": 39.4,
          "unit": "%",
          "code": "%"
        },
        "referenceRange": [
          {
            "low": {
              "value": 37,
              "code": "%",
              "system": "http://unitsofmeasure.org"
            }
          },
          {
            "high": {
              "value": 52,
              "code": "%",
              "system": "http://unitsofmeasure.org"
            }
          }
        ],
        "text": {
          "status": "generated",
          "div": "<div xmlns=\"http://www.w3.org/1999/xhtml\"><table class=\"hl7__eu__lab__report\"><tr><th>Test</th><th>23-Mar-2023</th><th>Reference&#xA0;Range</th><th>Unit</th></tr><tr><td>Hematocrit [Volume Fraction] of Blood by Automated count</td><td>39.4</td><td>37 - 52</td><td></td><td>%</td></tr></table></div>"
        },
        "status": "final",
        "subject": {
          "reference": "urn:uuid:7ecda2a2-5b16-426b-9043-e9f34931f45c",
          "display": "Pelayo Casal"
        },
        "effectiveDateTime": "2023-03-23T05:38:59Z",
        "specimen": {
          "reference": "urn:uuid:16f12db0-abc5-45ad-a1f1-c51cc1c4875e"
        }
      }
    },
    {
      "fullUrl": "urn:uuid:c9d06534-9520-4d45-bae0-95ff3b4ac9f0",
      "resource": {
        "resourceType": "Observation",
        "id": "c9d06534-9520-4d45-bae0-95ff3b4ac9f0",
        "meta": {
          "profile": [
            "http://hl7.eu/fhir/laboratory/StructureDefinition/Observation-resultslab-eu-lab"
          ]
        },
        "performer": [
          {
            "display": "The Central European Lab"
          }
        ],
        "category": [
          {
            "coding": [
              {
                "system": "http://terminology.hl7.org/CodeSystem/observation-category",
                "code": "laboratory"
              }
            ]
          }
        ],
        "code": {
          "coding": [
            {
              "code": "787-2",
              "system": "http://loinc.org",
              "display": "MCV [Entitic volume] by Automated count"
            }
          ],
          "text": "MCV [Entitic volume] by Automated count"
        },
        "valueQuantity": {
          "system": "http://unitsofmeasure.org",
          "value": 83.2,
          "unit": "fL",
          "code": "fL"
        },
        "referenceRange": [
          {
            "low": {
              "value": 76,
              "code": "fL",
              "system": "http://unitsofmeasure.org"
            }
          },
          {
            "high": {
              "value": 98,
              "code": "fL",
              "system": "http://unitsofmeasure.org"
            }
          }
        ],
        "text": {
          "status": "generated",
          "div": "<div xmlns=\"http://www.w3.org/1999/xhtml\"><table class=\"hl7__eu__lab__report\"><tr><th>Test</th><th>23-Mar-2023</th><th>Reference&#xA0;Range</th><th>Unit</th></tr><tr><td>MCV [Entitic volume] by Automated count</td><td>83.2</td><td>76 - 98</td><td></td><td>fL</td></tr></table></div>"
        },
        "status": "final",
        "subject": {
          "reference": "urn:uuid:7ecda2a2-5b16-426b-9043-e9f34931f45c",
          "display": "Pelayo Casal"
        },
        "effectiveDateTime": "2023-03-23T05:38:59Z",
        "specimen": {
          "reference": "urn:uuid:16f12db0-abc5-45ad-a1f1-c51cc1c4875e"
        }
      }
    },
    {
      "fullUrl": "urn:uuid:d5ee28b1-89ce-4e81-b376-7f62618306e1",
      "resource": {
        "resourceType": "Observation",
        "id": "d5ee28b1-89ce-4e81-b376-7f62618306e1",
        "meta": {
          "profile": [
            "http://hl7.eu/fhir/laboratory/StructureDefinition/Observation-resultslab-eu-lab"
          ]
        },
        "performer": [
          {
            "display": "The Central European Lab"
          }
        ],
        "category": [
          {
            "coding": [
              {
                "system": "http://terminology.hl7.org/CodeSystem/observation-category",
                "code": "laboratory"
              }
            ]
          }
        ],
        "code": {
          "coding": [
            {
              "code": "785-6",
              "system": "http://loinc.org",
              "display": "MCH [Entitic mass] by Automated count"
            }
          ],
          "text": "MCH [Entitic mass] by Automated count"
        },
        "valueQuantity": {
          "system": "http://unitsofmeasure.org",
          "value": 28.4,
          "unit": "pg",
          "code": "pg"
        },
        "referenceRange": [
          {
            "low": {
              "value": 27,
              "code": "pg",
              "system": "http://unitsofmeasure.org"
            }
          },
          {
            "high": {
              "value": 33,
              "code": "pg",
              "system": "http://unitsofmeasure.org"
            }
          }
        ],
        "text": {
          "status": "generated",
          "div": "<div xmlns=\"http://www.w3.org/1999/xhtml\"><table class=\"hl7__eu__lab__report\"><tr><th>Test</th><th>23-Mar-2023</th><th>Reference&#xA0;Range</th><th>Unit</th></tr><tr><td>MCH [Entitic mass] by Automated count</td><td>28.4</td><td>27 - 33</td><td></td><td>pg</td></tr></table></div>"
        },
        "status": "final",
        "subject": {
          "reference": "urn:uuid:7ecda2a2-5b16-426b-9043-e9f34931f45c",
          "display": "Pelayo Casal"
        },
        "effectiveDateTime": "2023-03-23T05:38:59Z",
        "specimen": {
          "reference": "urn:uuid:16f12db0-abc5-45ad-a1f1-c51cc1c4875e"
        }
      }
    },
    {
      "fullUrl": "urn:uuid:df0cbfce-6b23-4e71-9778-64f612326a10",
      "resource": {
        "resourceType": "Observation",
        "id": "df0cbfce-6b23-4e71-9778-64f612326a10",
        "meta": {
          "profile": [
            "http://hl7.eu/fhir/laboratory/StructureDefinition/Observation-resultslab-eu-lab"
          ]
        },
        "performer": [
          {
            "display": "The Central European Lab"
          }
        ],
        "category": [
          {
            "coding": [
              {
                "system": "http://terminology.hl7.org/CodeSystem/observation-category",
                "code": "laboratory"
              }
            ]
          }
        ],
        "code": {
          "coding": [
            {
              "code": "786-4",
              "system": "http://loinc.org",
              "display": "MCHC [Mass/volume] by Automated count"
            }
          ],
          "text": "MCHC [Mass/volume] by Automated count"
        },
        "valueQuantity": {
          "system": "http://unitsofmeasure.org",
          "value": 35.3,
          "unit": "g/dL",
          "code": "g/dL"
        },
        "referenceRange": [
          {
            "low": {
              "value": 31,
              "code": "g/dL",
              "system": "http://unitsofmeasure.org"
            }
          },
          {
            "high": {
              "value": 36,
              "code": "g/dL",
              "system": "http://unitsofmeasure.org"
            }
          }
        ],
        "text": {
          "status": "generated",
          "div": "<div xmlns=\"http://www.w3.org/1999/xhtml\"><table class=\"hl7__eu__lab__report\"><tr><th>Test</th><th>23-Mar-2023</th><th>Reference&#xA0;Range</th><th>Unit</th></tr><tr><td>MCHC [Mass/volume] by Automated count</td><td>35.3</td><td>31 - 36</td><td></td><td>g/dL</td></tr></table></div>"
        },
        "status": "final",
        "subject": {
          "reference": "urn:uuid:7ecda2a2-5b16-426b-9043-e9f34931f45c",
          "display": "Pelayo Casal"
        },
        "effectiveDateTime": "2023-03-23T05:38:59Z",
        "specimen": {
          "reference": "urn:uuid:16f12db0-abc5-45ad-a1f1-c51cc1c4875e"
        }
      }
    },
    {
      "fullUrl": "urn:uuid:5c100e68-30b8-4a1d-a3bd-2b5c81fa9b26",
      "resource": {
        "resourceType": "Observation",
        "id": "5c100e68-30b8-4a1d-a3bd-2b5c81fa9b26",
        "meta": {
          "profile": [
            "http://hl7.eu/fhir/laboratory/StructureDefinition/Observation-resultslab-eu-lab"
          ]
        },
        "performer": [
          {
            "display": "The Central European Lab"
          }
        ],
        "category": [
          {
            "coding": [
              {
                "system": "http://terminology.hl7.org/CodeSystem/observation-category",
                "code": "laboratory"
              }
            ]
          }
        ],
        "code": {
          "coding": [
            {
              "code": "21000-5",
              "system": "http://loinc.org",
              "display": "Erythrocyte distribution width [Entitic volume] by Automated count"
            }
          ],
          "text": "Erythrocyte distribution width [Entitic volume] by Automated count"
        },
        "valueQuantity": {
          "system": "http://unitsofmeasure.org",
          "value": 39.8,
          "unit": "fL",
          "code": "fL"
        },
        "referenceRange": [
          {
            "low": {
              "value": 36,
              "code": "fL",
              "system": "http://unitsofmeasure.org"
            }
          },
          {
            "high": {
              "value": 55,
              "code": "fL",
              "system": "http://unitsofmeasure.org"
            }
          }
        ],
        "text": {
          "status": "generated",
          "div": "<div xmlns=\"http://www.w3.org/1999/xhtml\"><table class=\"hl7__eu__lab__report\"><tr><th>Test</th><th>23-Mar-2023</th><th>Reference&#xA0;Range</th><th>Unit</th></tr><tr><td>Erythrocyte distribution width [Entitic volume] by Automated count</td><td>39.8</td><td>36 - 55</td><td></td><td>fL</td></tr></table></div>"
        },
        "status": "final",
        "subject": {
          "reference": "urn:uuid:7ecda2a2-5b16-426b-9043-e9f34931f45c",
          "display": "Pelayo Casal"
        },
        "effectiveDateTime": "2023-03-23T05:38:59Z",
        "specimen": {
          "reference": "urn:uuid:16f12db0-abc5-45ad-a1f1-c51cc1c4875e"
        }
      }
    },
    {
      "fullUrl": "urn:uuid:28ddf5fd-8718-4bb0-ad4b-7f6f0eb5ee36",
      "resource": {
        "resourceType": "Observation",
        "id": "28ddf5fd-8718-4bb0-ad4b-7f6f0eb5ee36",
        "meta": {
          "profile": [
            "http://hl7.eu/fhir/laboratory/StructureDefinition/Observation-resultslab-eu-lab"
          ]
        },
        "performer": [
          {
            "display": "The Central European Lab"
          }
        ],
        "category": [
          {
            "coding": [
              {
                "system": "http://terminology.hl7.org/CodeSystem/observation-category",
                "code": "laboratory"
              }
            ]
          }
        ],
        "code": {
          "coding": [
            {
              "code": "777-3",
              "system": "http://loinc.org",
              "display": "Platelets [#/volume] in Blood by Automated count"
            }
          ],
          "text": "Platelets [#/volume] in Blood by Automated count"
        },
        "valueQuantity": {
          "system": "http://unitsofmeasure.org",
          "value": 434,
          "unit": "10*3/uL",
          "code": "10*3/uL"
        },
        "referenceRange": [
          {
            "low": {
              "value": 150,
              "code": "10*3/uL",
              "system": "http://unitsofmeasure.org"
            }
          },
          {
            "high": {
              "value": 450,
              "code": "10*3/uL",
              "system": "http://unitsofmeasure.org"
            }
          }
        ],
        "text": {
          "status": "generated",
          "div": "<div xmlns=\"http://www.w3.org/1999/xhtml\"><table class=\"hl7__eu__lab__report\"><tr><th>Test</th><th>23-Mar-2023</th><th>Reference&#xA0;Range</th><th>Unit</th></tr><tr><td>Platelets [#/volume] in Blood by Automated count</td><td>434.0</td><td>150 - 450</td><td></td><td>10*3/uL</td></tr></table></div>"
        },
        "status": "final",
        "subject": {
          "reference": "urn:uuid:7ecda2a2-5b16-426b-9043-e9f34931f45c",
          "display": "Pelayo Casal"
        },
        "effectiveDateTime": "2023-03-23T05:38:59Z",
        "specimen": {
          "reference": "urn:uuid:16f12db0-abc5-45ad-a1f1-c51cc1c4875e"
        }
      }
    },
    {
      "fullUrl": "urn:uuid:8762c324-8382-4771-9f66-b6866847da4f",
      "resource": {
        "resourceType": "Observation",
        "id": "8762c324-8382-4771-9f66-b6866847da4f",
        "meta": {
          "profile": [
            "http://hl7.eu/fhir/laboratory/StructureDefinition/Observation-resultslab-eu-lab"
          ]
        },
        "performer": [
          {
            "display": "The Central European Lab"
          }
        ],
        "category": [
          {
            "coding": [
              {
                "system": "http://terminology.hl7.org/CodeSystem/observation-category",
                "code": "laboratory"
              }
            ]
          }
        ],
        "code": {
          "coding": [
            {
              "code": "32207-3",
              "system": "http://loinc.org",
              "display": "Platelet distribution width [Entitic volume] in Blood by Automated count"
            }
          ],
          "text": "Platelet distribution width [Entitic volume] in Blood by Automated count"
        },
        "valueQuantity": {
          "system": "http://unitsofmeasure.org",
          "value": 246.7,
          "unit": "fL",
          "code": "fL"
        },
        "referenceRange": [
          {
            "low": {
              "value": 13.4,
              "code": "fL",
              "system": "http://unitsofmeasure.org"
            }
          },
          {
            "high": {
              "value": 17.4,
              "code": "fL",
              "system": "http://unitsofmeasure.org"
            }
          }
        ],
        "interpretation": [
          {
            "coding": [
              {
                "code": "H",
                "system": "http://terminology.hl7.org/CodeSystem/v3-ObservationInterpretation",
                "display": "High"
              }
            ]
          }
        ],
        "text": {
          "status": "generated",
          "div": "<div xmlns=\"http://www.w3.org/1999/xhtml\"><table class=\"hl7__eu__lab__report\"><tr><th>Test</th><th>23-Mar-2023</th><th>Reference&#xA0;Range</th><th>Unit</th></tr><tr><td>Platelet distribution width [Entitic volume] in Blood by Automated count</td><td>246.7</td><td>13.4 - 17.4</td><td>H</td><td>fL</td></tr></table></div>"
        },
        "status": "final",
        "subject": {
          "reference": "urn:uuid:7ecda2a2-5b16-426b-9043-e9f34931f45c",
          "display": "Pelayo Casal"
        },
        "effectiveDateTime": "2023-03-23T05:38:59Z",
        "specimen": {
          "reference": "urn:uuid:16f12db0-abc5-45ad-a1f1-c51cc1c4875e"
        }
      }
    },
    {
      "fullUrl": "urn:uuid:9684e7bd-6a80-4c34-8a92-b410c2853e55",
      "resource": {
        "resourceType": "Observation",
        "id": "9684e7bd-6a80-4c34-8a92-b410c2853e55",
        "meta": {
          "profile": [
            "http://hl7.eu/fhir/laboratory/StructureDefinition/Observation-resultslab-eu-lab"
          ]
        },
        "performer": [
          {
            "display": "The Central European Lab"
          }
        ],
        "category": [
          {
            "coding": [
              {
                "system": "http://terminology.hl7.org/CodeSystem/observation-category",
                "code": "laboratory"
              }
            ]
          }
        ],
        "code": {
          "coding": [
            {
              "code": "32623-1",
              "system": "http://loinc.org",
              "display": "Platelet mean volume [Entitic volume] in Blood by Automated count"
            }
          ],
          "text": "Platelet mean volume [Entitic volume] in Blood by Automated count"
        },
        "valueQuantity": {
          "system": "http://unitsofmeasure.org",
          "value": 10.1,
          "unit": "fL",
          "code": "fL"
        },
        "referenceRange": [
          {
            "low": {
              "value": 9.4,
              "code": "fL",
              "system": "http://unitsofmeasure.org"
            }
          },
          {
            "high": {
              "value": 14,
              "code": "fL",
              "system": "http://unitsofmeasure.org"
            }
          }
        ],
        "text": {
          "status": "generated",
          "div": "<div xmlns=\"http://www.w3.org/1999/xhtml\"><table class=\"hl7__eu__lab__report\"><tr><th>Test</th><th>23-Mar-2023</th><th>Reference&#xA0;Range</th><th>Unit</th></tr><tr><td>Platelet mean volume [Entitic volume] in Blood by Automated count</td><td>10.1</td><td>9.4 - 14</td><td></td><td>fL</td></tr></table></div>"
        },
        "status": "final",
        "subject": {
          "reference": "urn:uuid:7ecda2a2-5b16-426b-9043-e9f34931f45c",
          "display": "Pelayo Casal"
        },
        "effectiveDateTime": "2023-03-23T05:38:59Z",
        "specimen": {
          "reference": "urn:uuid:16f12db0-abc5-45ad-a1f1-c51cc1c4875e"
        }
      }
    },
    {
      "fullUrl": "urn:uuid:9c5533b4-2fa0-4a14-9b7d-e415ca1ee295",
      "resource": {
        "resourceType": "Device",
        "id": "9c5533b4-2fa0-4a14-9b7d-e415ca1ee295",
        "deviceName": [
          {
            "name": "SYNDERAI Synthetic Generator",
            "type": "manufacturer-name"
          }
        ],
        "version": [
          {
            "value": "5.0"
          }
        ],
        "text": {
          "status": "generated",
          "div": "<div xmlns=\"http://www.w3.org/1999/xhtml\">SYNDERAI Synthetic Generator v5.0</div>"
        },
        "status": "active\"",
        "distinctIdentifier": "synderai-generator-50",
        "manufacturer": "SYNDERAI Project"
      }
    },
    {
      "fullUrl": "urn:uuid:cfd0726d-576f-4b6e-8100-cb6dc57ed5b8",
      "resource": {
        "resourceType": "Provenance",
        "id": "cfd0726d-576f-4b6e-8100-cb6dc57ed5b8",
        "target": [
          {
            "reference": "Patient/7ecda2a2-5b16-426b-9043-e9f34931f45c"
          },
          {
            "reference": "Bundle/8dda1de6-09dd-4903-b78a-e2767879039b"
          },
          {
            "reference": "Composition/003f611a-e593-4784-a411-93675ffd0eb1"
          },
          {
            "reference": "PractitionerRole/5f3fe248-a55b-481d-9555-d57b49e08b0c"
          },
          {
            "reference": "Practitioner/c25e65d3-6ae3-4394-83ab-5d3cc2a4d173"
          },
          {
            "reference": "PractitionerRole/dc9adfae-40cb-4c0e-9ae6-c9fc9ae13c4a"
          },
          {
            "reference": "Organization/34d29f12-012a-4896-a57e-fa871074611c"
          }
        ],
        "activity": {
          "text": "Synthetic Example Data Generation"
        },
        "policy": [
          "https://synderai.net/synderai-synthetic-data-policy"
        ],
        "agent": [
          {
            "type": {
              "text": "author"
            },
            "who": {
              "reference": "Device/9c5533b4-2fa0-4a14-9b7d-e415ca1ee295"
            }
          }
        ],
        "reason": [
          {
            "text": "Interoperability Testing and Training (non-clinical use)"
          }
        ],
        "text": {
          "status": "generated",
          "div": "<div xmlns=\"http://www.w3.org/1999/xhtml\">Provenance for SYNDERAI Synthetic Example Data Resource</div>"
        },
        "recorded": "2023-03-23T06:38:59Z"
      }
    },
    {
      "fullUrl": "urn:uuid:5f3fe248-a55b-481d-9555-d57b49e08b0c",
      "resource": {
        "resourceType": "PractitionerRole",
        "id": "5f3fe248-a55b-481d-9555-d57b49e08b0c",
        "meta": {
          "profile": [
            "http://hl7.eu/fhir/base/StructureDefinition/practitionerRole-eu"
          ]
        },
        "text": {
          "status": "generated",
          "div": "<div xmlns=\"http://www.w3.org/1999/xhtml\">Laboratory Role Id: 5f3fe248-a55b-481d-9555-d57b49e08b0c</div>"
        },
        "practitioner": {
          "reference": "urn:uuid:c25e65d3-6ae3-4394-83ab-5d3cc2a4d173"
        }
      }
    },
    {
      "fullUrl": "urn:uuid:c25e65d3-6ae3-4394-83ab-5d3cc2a4d173",
      "resource": {
        "resourceType": "Practitioner",
        "id": "c25e65d3-6ae3-4394-83ab-5d3cc2a4d173",
        "meta": {
          "profile": [
            "http://hl7.eu/fhir/base/StructureDefinition/practitioner-eu"
          ]
        },
        "identifier": [
          {
            "assigner": {
              "display": "HL7 Europe"
            },
            "system": "urn:oid:2.16.840.1.113883.2.51.999",
            "value": "d094bdce-14b7-4217-ad85-b8ea79c3814a"
          }
        ],
        "name": [
          {
            "prefix": [
              "dr"
            ],
            "given": [
              "Ex"
            ],
            "family": "Ample"
          }
        ],
        "address": [
          {
            "line": [
              "Laboratoire Central Européenne",
              "Boulevard du Jardin Botanique 32"
            ],
            "postalCode": "1000",
            "city": "Brussels",
            "country": "Belgium"
          }
        ],
        "text": {
          "status": "generated",
          "div": "<div xmlns=\"http://www.w3.org/1999/xhtml\">Laboratory: Laboratoire Central Européenne, 1000 Brussels, Belgium</div>"
        }
      }
    }
  ],
  "type": "document",
  "timestamp": "2023-03-23T06:38:59Z"
}
