{
  "resourceType": "Bundle",
  "id": "52517a35-b8ce-422a-abae-3739ce641f1f",
  "meta": {
    "profile": [
      "http://hl7.eu/fhir/laboratory/StructureDefinition/Bundle-eu-lab"
    ]
  },
  "identifier": {
    "assigner": {
      "display": "HL7 Europe"
    },
    "system": "urn:oid:2.16.840.1.113883.2.51.999",
    "value": "95740745-b519-49b6-920d-16da86769adc"
  },
  "entry": [
    {
      "fullUrl": "urn:uuid:6469a3d6-cf9e-46cd-8fa9-9dcd633140a9",
      "resource": {
        "resourceType": "Composition",
        "id": "6469a3d6-cf9e-46cd-8fa9-9dcd633140a9",
        "meta": {
          "profile": [
            "http://hl7.eu/fhir/laboratory/StructureDefinition/Composition-eu-lab"
          ]
        },
        "identifier": {
          "assigner": {
            "display": "HL7 Europe"
          },
          "system": "urn:oid:2.16.840.1.113883.2.51.999",
          "value": "75e63393-c42d-4499-a05f-5110739e36f3"
        },
        "author": [
          {
            "reference": "urn:uuid:1d0213ca-dbd4-47d6-a030-ebce52e3f058"
          }
        ],
        "category": [
          {
            "coding": [
              {
                "code": "26436-6",
                "system": "http://loinc.org",
                "display": "Laboratory studies (set)"
              }
            ]
          }
        ],
        "type": {
          "coding": [
            {
              "code": "11502-2",
              "system": "http://loinc.org",
              "display": "Laboratory report"
            }
          ],
          "text": "Laboratory Report"
        },
        "section": [
          {
            "code": {
              "coding": [
                {
                  "code": "26436-6",
                  "system": "http://loinc.org",
                  "display": "Laboratory studies (set)"
                }
              ],
              "text": "Laboratory studies"
            },
            "section": [
              {
                "code": {
                  "coding": [
                    {
                      "code": "$18719-5",
                      "system": "http://loinc.org",
                      "display": "Chemistry studies (set)"
                    }
                  ],
                  "text": "Chemistry"
                },
                "entry": [
                  {
                    "reference": "urn:uuid:43f451c9-52d6-4251-94eb-adc7abb8b12a"
                  },
                  {
                    "reference": "urn:uuid:5a99ff2e-2a0f-4888-ad98-52ec9002866a"
                  },
                  {
                    "reference": "urn:uuid:98257c01-8a0c-46c3-b736-73baca702e58"
                  },
                  {
                    "reference": "urn:uuid:f4a3baf2-c5b7-4dd4-8fb7-9b1824c63c22"
                  },
                  {
                    "reference": "urn:uuid:1b84c21c-8932-4221-8a22-c96fb7abef09"
                  },
                  {
                    "reference": "urn:uuid:f7f7f697-7616-4503-bbf5-b710b2f0a2c6"
                  },
                  {
                    "reference": "urn:uuid:324a105a-c4ea-45e5-8bf1-1efcf72053b5"
                  },
                  {
                    "reference": "urn:uuid:4302aeb7-ab75-4e20-8e72-842c412bebb3"
                  },
                  {
                    "reference": "urn:uuid:a8056e38-6a78-406f-a5ec-968df3607a84"
                  },
                  {
                    "reference": "urn:uuid:818e549b-9d47-4fa1-a35c-7eff981f482e"
                  },
                  {
                    "reference": "urn:uuid:b1fa36f3-cb18-40c3-b859-60ad33fe87cf"
                  },
                  {
                    "reference": "urn:uuid:b80ab682-73c4-4541-810c-ef5853d4d9e2"
                  },
                  {
                    "reference": "urn:uuid:81381284-258c-4df5-9804-75f27076e09b"
                  }
                ],
                "text": {
                  "status": "generated",
                  "div": "<div xmlns=\"http://www.w3.org/1999/xhtml\"><h3>Chemistry</h3><table class=\"hl7__eu__lab__report\"><thead><tr><th>Test</th><th>16-JAN-2016</th><th>Reference&#xA0;Range</th><th>Unit</th></tr></thead><tbody><tr><td>Hemoglobin A1c/Hemoglobin.total in Blood</td><td><strong>6.1 H</strong></td><td>4 - 6</td><td>%</td></tr><tr><td>Glucose [Mass/volume] in Blood</td><td><strong>65.5 L</strong></td><td>70 - 140</td><td>mg/dL</td></tr><tr><td>Urea nitrogen [Mass/volume] in Blood</td><td>7.7</td><td>7 - 45</td><td>mg/dL</td></tr><tr><td>Creatinine [Mass/volume] in Blood</td><td>0.9</td><td>0.6 - 1.1</td><td>mg/dL</td></tr><tr><td>Calcium [Mass/volume] in Blood</td><td>9.3</td><td>8.5 - 10.5</td><td>mg/dL</td></tr><tr><td>Sodium [Moles/volume] in Blood</td><td>138.8</td><td>135 - 145</td><td>mmol/L</td></tr><tr><td>Potassium [Moles/volume] in Blood</td><td>3.8</td><td>3.5 - 5.1</td><td>mmol/L</td></tr><tr><td>Chloride [Moles/volume] in Blood</td><td>101.4</td><td>98 - 107</td><td>mmol/L</td></tr><tr><td>Carbon dioxide, total [Moles/volume] in Blood</td><td>23.3</td><td>22 - 32</td><td>mmol/L</td></tr><tr><td>Cholesterol [Mass/volume] in Serum or Plasma</td><td>140.9</td><td>125 - 200</td><td>mg/dL</td></tr><tr><td>Triglyceride [Mass/volume] in Serum or Plasma</td><td>120.5</td><td>0 - 150</td><td>mg/dL</td></tr><tr><td>Cholesterol in LDL [Mass/volume] in Serum or Plasma by Direct assay</td><td>55.9</td><td>0 - 130</td><td>mg/dL</td></tr><tr><td>Cholesterol in HDL [Mass/volume] in Serum or Plasma</td><td><strong>60.9 H</strong></td><td>40 - 60</td><td>mg/dL</td></tr></tbody></table></div>"
                },
                "title": "Chemistry"
              }
            ],
            "title": "Laboratory Report"
          },
          {
            "text": {
              "status": "generated",
              "div": "<div xmlns=\"http://www.w3.org/1999/xhtml\"><h3>Annotation</h3><table class=\"hl7__eu__lab__report\"><tr><th>Conclusion and Recommendations based on this report and previous findings known to us</th></tr><tr><td>The patient shows mildly elevated HbA1c, suggesting impaired glucose regulation or early diabetes, despite a low fasting glucose. Lipid profile is within normal limits, with a slightly high HDL, which is generally protective. Renal function, electrolytes, and other parameters are normal. Recommend clinical correlation for possible prediabetes and monitoring of glucose metabolism.</td></tr></table></div>"
            },
            "code": {
              "coding": [
                {
                  "system": "http://loinc.org",
                  "code": "48767-8",
                  "display": "Annotation comment"
                }
              ]
            },
            "title": "Annotation comment"
          }
        ],
        "status": "final",
        "subject": {
          "reference": "urn:uuid:03297aa1-cdb4-4852-906c-853b3da5fd99",
          "display": "Lydia Ward"
        },
        "date": "2016-01-16T00:08:09Z",
        "title": "Laboratory Report",
        "confidentiality": "N"
      }
    },
    {
      "fullUrl": "urn:uuid:fb37e725-1535-4842-ba32-df088b4ba55d",
      "resource": {
        "resourceType": "DiagnosticReport",
        "id": "fb37e725-1535-4842-ba32-df088b4ba55d",
        "meta": {
          "profile": [
            "http://hl7.eu/fhir/laboratory/StructureDefinition/DiagnosticReport-eu-lab"
          ]
        },
        "identifier": [
          {
            "assigner": {
              "display": "HL7 Europe"
            },
            "system": "urn:oid:2.16.840.1.113883.2.51.999",
            "value": "f5a6d5d0-6a43-458f-884e-de893c0dc395"
          }
        ],
        "extension": [
          {
            "url": "http://hl7.org/fhir/5.0/StructureDefinition/extension-DiagnosticReport.composition",
            "valueReference": {
              "reference": "urn:uuid:75e63393-c42d-4499-a05f-5110739e36f3"
            }
          }
        ],
        "category": [
          {
            "coding": [
              {
                "code": "26436-6",
                "system": "http://loinc.org",
                "display": "Laboratory studies (set)"
              }
            ]
          }
        ],
        "specimen": [
          {
            "reference": "urn:uuid:908a78f7-d7c7-4304-ad41-f087909cfcd8"
          },
          {
            "reference": "urn:uuid:77e3da57-57f7-4d44-9a7a-a33bd49702e7"
          }
        ],
        "result": [
          {
            "reference": "urn:uuid:43f451c9-52d6-4251-94eb-adc7abb8b12a"
          },
          {
            "reference": "urn:uuid:5a99ff2e-2a0f-4888-ad98-52ec9002866a"
          },
          {
            "reference": "urn:uuid:98257c01-8a0c-46c3-b736-73baca702e58"
          },
          {
            "reference": "urn:uuid:f4a3baf2-c5b7-4dd4-8fb7-9b1824c63c22"
          },
          {
            "reference": "urn:uuid:1b84c21c-8932-4221-8a22-c96fb7abef09"
          },
          {
            "reference": "urn:uuid:f7f7f697-7616-4503-bbf5-b710b2f0a2c6"
          },
          {
            "reference": "urn:uuid:324a105a-c4ea-45e5-8bf1-1efcf72053b5"
          },
          {
            "reference": "urn:uuid:4302aeb7-ab75-4e20-8e72-842c412bebb3"
          },
          {
            "reference": "urn:uuid:a8056e38-6a78-406f-a5ec-968df3607a84"
          },
          {
            "reference": "urn:uuid:818e549b-9d47-4fa1-a35c-7eff981f482e"
          },
          {
            "reference": "urn:uuid:b1fa36f3-cb18-40c3-b859-60ad33fe87cf"
          },
          {
            "reference": "urn:uuid:b80ab682-73c4-4541-810c-ef5853d4d9e2"
          },
          {
            "reference": "urn:uuid:81381284-258c-4df5-9804-75f27076e09b"
          }
        ],
        "status": "registered",
        "code": {
          "coding": [
            {
              "code": "11502-2",
              "system": "http://loinc.org",
              "display": "Laboratory report"
            }
          ]
        },
        "subject": {
          "reference": "urn:uuid:03297aa1-cdb4-4852-906c-853b3da5fd99",
          "display": "Lydia Ward"
        }
      }
    },
    {
      "fullUrl": "urn:uuid:03297aa1-cdb4-4852-906c-853b3da5fd99",
      "resource": {
        "resourceType": "Patient",
        "id": "03297aa1-cdb4-4852-906c-853b3da5fd99",
        "meta": {
          "security": [
            {
              "system": "http://terminology.hl7.org/CodeSystem/v3-ActReason",
              "code": "HTEST"
            },
            {
              "system": "http://terminology.hl7.org/CodeSystem/v3-ActReason",
              "code": "TRAIN"
            }
          ],
          "tag": [
            {
              "system": "https://synderai.net/fhir/CodeSystem/tags",
              "code": "synthetic",
              "display": "SYNDERAI Synthetic data"
            }
          ],
          "profile": [
            "http://hl7.eu/fhir/base/StructureDefinition/patient-eu-core"
          ]
        },
        "identifier": [
          {
            "type": {
              "coding": [
                {
                  "code": "PT",
                  "system": "http://terminology.hl7.org/CodeSystem/v2-0203"
                }
              ]
            },
            "system": "http://ec.europa.eu/identifier/eci",
            "value": "8944-364030-8"
          },
          {
            "type": {
              "coding": [
                {
                  "code": "MR",
                  "system": "http://terminology.hl7.org/CodeSystem/v2-0203"
                }
              ]
            },
            "system": "http://local.setting.eu/identifier",
            "value": "9edf6b8d-b276-7218-98c6-ccf8d15f2a01"
          }
        ],
        "name": [
          {
            "family": "Ward"
          },
          {
            "given": [
              "Lydia"
            ]
          },
          {
            "text": "Lydia Ward"
          }
        ],
        "address": [
          {
            "line": [
              "6 Hunt radial"
            ],
            "use": "home",
            "type": "physical",
            "postalCode": "EH33",
            "city": "South Rosieside",
            "country": "United Kingdom"
          }
        ],
        "telecom": [
          {
            "system": "phone",
            "value": "01144960349"
          }
        ],
        "extension": [
          {
            "url": "http://hl7.org/fhir/StructureDefinition/patient-nationality",
            "valueCodeableConcept": {
              "coding": [
                {
                  "code": "GB",
                  "system": "http://hl7.org/fhir/ValueSet/country"
                }
              ]
            }
          }
        ],
        "text": {
          "status": "generated",
          "div": "<div xmlns=\"http://www.w3.org/1999/xhtml\"><table class=\"hl7__ips\"><tr><td>Lydia Ward</td><td>female</td><td>27-Dec-1968</td></tr></table></div>"
        },
        "gender": "female",
        "birthDate": "1968-12-27"
      }
    },
    {
      "fullUrl": "urn:uuid:166664f8-b003-4485-bfad-a188d872aba7",
      "resource": {
        "resourceType": "ServiceRequest",
        "id": "166664f8-b003-4485-bfad-a188d872aba7",
        "meta": {
          "profile": [
            "http://hl7.eu/fhir/laboratory/StructureDefinition/ServiceRequest-eu-lab"
          ]
        },
        "identifier": [
          {
            "system": "http://example.org",
            "value": "6792af2c-48c1-4045-aeac-db37e7407c1e"
          }
        ],
        "specimen": [
          {
            "reference": "urn:uuid:908a78f7-d7c7-4304-ad41-f087909cfcd8"
          },
          {
            "reference": "urn:uuid:77e3da57-57f7-4d44-9a7a-a33bd49702e7"
          }
        ],
        "reasonCode": [
          {
            "coding": [
              {
                "code": "271737000",
                "system": "http://snomed.info/sct",
                "display": "Anemia"
              }
            ]
          },
          {
            "coding": [
              {
                "code": "15777000",
                "system": "http://snomed.info/sct",
                "display": "Prediabetes"
              }
            ]
          }
        ],
        "status": "active",
        "intent": "order",
        "code": {
          "coding": [
            {
              "code": "108252007",
              "system": "http://snomed.info/sct",
              "display": "Laboratory procedure"
            }
          ]
        },
        "subject": {
          "reference": "urn:uuid:03297aa1-cdb4-4852-906c-853b3da5fd99",
          "display": "Lydia Ward"
        },
        "requester": {
          "reference": "urn:uuid:a6ac0e0a-538d-4989-b393-1d5847bb26ed"
        }
      }
    },
    {
      "fullUrl": "urn:uuid:a6ac0e0a-538d-4989-b393-1d5847bb26ed",
      "resource": {
        "resourceType": "PractitionerRole",
        "id": "a6ac0e0a-538d-4989-b393-1d5847bb26ed",
        "meta": {
          "profile": [
            "http://hl7.eu/fhir/base/StructureDefinition/practitionerRole-eu"
          ]
        },
        "text": {
          "status": "generated",
          "div": "<div xmlns=\"http://www.w3.org/1999/xhtml\">Provider Role Id: a6ac0e0a-538d-4989-b393-1d5847bb26ed</div>"
        },
        "organization": {
          "reference": "urn:uuid:23c51302-d686-4f30-a832-2c6051a726fc"
        }
      }
    },
    {
      "fullUrl": "urn:uuid:23c51302-d686-4f30-a832-2c6051a726fc",
      "resource": {
        "resourceType": "Organization",
        "id": "23c51302-d686-4f30-a832-2c6051a726fc",
        "meta": {
          "profile": [
            "http://hl7.eu/fhir/base/StructureDefinition/organization-eu"
          ]
        },
        "identifier": [
          {
            "assigner": {
              "display": "HL7 Europe"
            },
            "system": "urn:oid:2.16.840.1.113883.2.51.999",
            "value": "e2c4c532-7f5c-4160-a029-9ae2377fa3c1"
          }
        ],
        "address": [
          {
            "city": "Edinburgh",
            "postalCode": "EH9 2",
            "country": "United Kingdom"
          }
        ],
        "text": {
          "status": "generated",
          "div": "<div xmlns=\"http://www.w3.org/1999/xhtml\">Provider Organization: Royal Hospital for Sick Children</div>"
        },
        "name": "Royal Hospital for Sick Children"
      }
    },
    {
      "fullUrl": "urn:uuid:908a78f7-d7c7-4304-ad41-f087909cfcd8",
      "resource": {
        "resourceType": "Specimen",
        "id": "908a78f7-d7c7-4304-ad41-f087909cfcd8",
        "meta": {
          "profile": [
            "http://hl7.eu/fhir/laboratory/StructureDefinition/Specimen-eu-lab"
          ]
        },
        "collection": {
          "collectedDateTime": "2016-01-15"
        },
        "text": {
          "status": "generated",
          "div": "<div xmlns=\"http://www.w3.org/1999/xhtml\"><table class=\"hl7__eu__lab__report\"><tr><th>Specimen</th><th>Collection Date</th></tr><tr><td>Whole blood specimen (specimen)</td><td><span class=\"nb\">15-Jan-2016</span></td></tr></table></div>"
        },
        "type": {
          "coding": [
            {
              "code": "258580003",
              "system": "http://snomed.info/sct",
              "display": "Whole blood specimen (specimen)"
            }
          ]
        }
      }
    },
    {
      "fullUrl": "urn:uuid:77e3da57-57f7-4d44-9a7a-a33bd49702e7",
      "resource": {
        "resourceType": "Specimen",
        "id": "77e3da57-57f7-4d44-9a7a-a33bd49702e7",
        "meta": {
          "profile": [
            "http://hl7.eu/fhir/laboratory/StructureDefinition/Specimen-eu-lab"
          ]
        },
        "collection": {
          "collectedDateTime": "2016-01-15"
        },
        "text": {
          "status": "generated",
          "div": "<div xmlns=\"http://www.w3.org/1999/xhtml\"><table class=\"hl7__eu__lab__report\"><tr><th>Specimen</th><th>Collection Date</th></tr><tr><td>Acellular blood (serum or plasma) specimen</td><td><span class=\"nb\">15-Jan-2016</span></td></tr></table></div>"
        },
        "type": {
          "coding": [
            {
              "code": "122592007",
              "system": "http://snomed.info/sct",
              "display": "Acellular blood (serum or plasma) specimen"
            }
          ]
        }
      }
    },
    {
      "fullUrl": "urn:uuid:43f451c9-52d6-4251-94eb-adc7abb8b12a",
      "resource": {
        "resourceType": "Observation",
        "id": "43f451c9-52d6-4251-94eb-adc7abb8b12a",
        "meta": {
          "profile": [
            "http://hl7.eu/fhir/laboratory/StructureDefinition/Observation-resultslab-eu-lab"
          ]
        },
        "performer": [
          {
            "display": "The Central European Lab"
          }
        ],
        "category": [
          {
            "coding": [
              {
                "system": "http://terminology.hl7.org/CodeSystem/observation-category",
                "code": "laboratory"
              }
            ]
          }
        ],
        "code": {
          "coding": [
            {
              "code": "4548-4",
              "system": "http://loinc.org",
              "display": "Hemoglobin A1c/Hemoglobin.total in Blood"
            }
          ],
          "text": "Hemoglobin A1c/Hemoglobin.total in Blood"
        },
        "valueQuantity": {
          "system": "http://unitsofmeasure.org",
          "value": 6.1,
          "unit": "%",
          "code": "%"
        },
        "referenceRange": [
          {
            "low": {
              "value": 4,
              "code": "%",
              "system": "http://unitsofmeasure.org"
            }
          },
          {
            "high": {
              "value": 6,
              "code": "%",
              "system": "http://unitsofmeasure.org"
            }
          }
        ],
        "interpretation": [
          {
            "coding": [
              {
                "code": "H",
                "system": "http://terminology.hl7.org/CodeSystem/v3-ObservationInterpretation",
                "display": "High"
              }
            ]
          }
        ],
        "text": {
          "status": "generated",
          "div": "<div xmlns=\"http://www.w3.org/1999/xhtml\"><table class=\"hl7__eu__lab__report\"><tr><th>Test</th><th>16-Jan-2016</th><th>Reference&#xA0;Range</th><th>Unit</th></tr><tr><td>Hemoglobin A1c/Hemoglobin.total in Blood</td><td>6.1</td><td>4 - 6</td><td>H</td><td>%</td></tr></table></div>"
        },
        "status": "final",
        "subject": {
          "reference": "urn:uuid:03297aa1-cdb4-4852-906c-853b3da5fd99",
          "display": "Lydia Ward"
        },
        "effectiveDateTime": "2016-01-15T23:08:09Z",
        "specimen": {
          "reference": "urn:uuid:908a78f7-d7c7-4304-ad41-f087909cfcd8"
        }
      }
    },
    {
      "fullUrl": "urn:uuid:5a99ff2e-2a0f-4888-ad98-52ec9002866a",
      "resource": {
        "resourceType": "Observation",
        "id": "5a99ff2e-2a0f-4888-ad98-52ec9002866a",
        "meta": {
          "profile": [
            "http://hl7.eu/fhir/laboratory/StructureDefinition/Observation-resultslab-eu-lab"
          ]
        },
        "performer": [
          {
            "display": "The Central European Lab"
          }
        ],
        "category": [
          {
            "coding": [
              {
                "system": "http://terminology.hl7.org/CodeSystem/observation-category",
                "code": "laboratory"
              }
            ]
          }
        ],
        "code": {
          "coding": [
            {
              "code": "2339-0",
              "system": "http://loinc.org",
              "display": "Glucose [Mass/volume] in Blood"
            }
          ],
          "text": "Glucose [Mass/volume] in Blood"
        },
        "valueQuantity": {
          "system": "http://unitsofmeasure.org",
          "value": 65.5,
          "unit": "mg/dL",
          "code": "mg/dL"
        },
        "referenceRange": [
          {
            "low": {
              "value": 70,
              "code": "mg/dL",
              "system": "http://unitsofmeasure.org"
            }
          },
          {
            "high": {
              "value": 140,
              "code": "mg/dL",
              "system": "http://unitsofmeasure.org"
            }
          }
        ],
        "interpretation": [
          {
            "coding": [
              {
                "code": "L",
                "system": "http://terminology.hl7.org/CodeSystem/v3-ObservationInterpretation",
                "display": "Low"
              }
            ]
          }
        ],
        "text": {
          "status": "generated",
          "div": "<div xmlns=\"http://www.w3.org/1999/xhtml\"><table class=\"hl7__eu__lab__report\"><tr><th>Test</th><th>16-Jan-2016</th><th>Reference&#xA0;Range</th><th>Unit</th></tr><tr><td>Glucose [Mass/volume] in Blood</td><td>65.5</td><td>70 - 140</td><td>L</td><td>mg/dL</td></tr></table></div>"
        },
        "status": "final",
        "subject": {
          "reference": "urn:uuid:03297aa1-cdb4-4852-906c-853b3da5fd99",
          "display": "Lydia Ward"
        },
        "effectiveDateTime": "2016-01-15T23:08:09Z",
        "specimen": {
          "reference": "urn:uuid:908a78f7-d7c7-4304-ad41-f087909cfcd8"
        }
      }
    },
    {
      "fullUrl": "urn:uuid:98257c01-8a0c-46c3-b736-73baca702e58",
      "resource": {
        "resourceType": "Observation",
        "id": "98257c01-8a0c-46c3-b736-73baca702e58",
        "meta": {
          "profile": [
            "http://hl7.eu/fhir/laboratory/StructureDefinition/Observation-resultslab-eu-lab"
          ]
        },
        "performer": [
          {
            "display": "The Central European Lab"
          }
        ],
        "category": [
          {
            "coding": [
              {
                "system": "http://terminology.hl7.org/CodeSystem/observation-category",
                "code": "laboratory"
              }
            ]
          }
        ],
        "code": {
          "coding": [
            {
              "code": "6299-2",
              "system": "http://loinc.org",
              "display": "Urea nitrogen [Mass/volume] in Blood"
            }
          ],
          "text": "Urea nitrogen [Mass/volume] in Blood"
        },
        "valueQuantity": {
          "system": "http://unitsofmeasure.org",
          "value": 7.7,
          "unit": "mg/dL",
          "code": "mg/dL"
        },
        "referenceRange": [
          {
            "low": {
              "value": 7,
              "code": "mg/dL",
              "system": "http://unitsofmeasure.org"
            }
          },
          {
            "high": {
              "value": 45,
              "code": "mg/dL",
              "system": "http://unitsofmeasure.org"
            }
          }
        ],
        "text": {
          "status": "generated",
          "div": "<div xmlns=\"http://www.w3.org/1999/xhtml\"><table class=\"hl7__eu__lab__report\"><tr><th>Test</th><th>16-Jan-2016</th><th>Reference&#xA0;Range</th><th>Unit</th></tr><tr><td>Urea nitrogen [Mass/volume] in Blood</td><td>7.7</td><td>7 - 45</td><td></td><td>mg/dL</td></tr></table></div>"
        },
        "status": "final",
        "subject": {
          "reference": "urn:uuid:03297aa1-cdb4-4852-906c-853b3da5fd99",
          "display": "Lydia Ward"
        },
        "effectiveDateTime": "2016-01-15T23:08:09Z",
        "specimen": {
          "reference": "urn:uuid:908a78f7-d7c7-4304-ad41-f087909cfcd8"
        }
      }
    },
    {
      "fullUrl": "urn:uuid:f4a3baf2-c5b7-4dd4-8fb7-9b1824c63c22",
      "resource": {
        "resourceType": "Observation",
        "id": "f4a3baf2-c5b7-4dd4-8fb7-9b1824c63c22",
        "meta": {
          "profile": [
            "http://hl7.eu/fhir/laboratory/StructureDefinition/Observation-resultslab-eu-lab"
          ]
        },
        "performer": [
          {
            "display": "The Central European Lab"
          }
        ],
        "category": [
          {
            "coding": [
              {
                "system": "http://terminology.hl7.org/CodeSystem/observation-category",
                "code": "laboratory"
              }
            ]
          }
        ],
        "code": {
          "coding": [
            {
              "code": "38483-4",
              "system": "http://loinc.org",
              "display": "Creatinine [Mass/volume] in Blood"
            }
          ],
          "text": "Creatinine [Mass/volume] in Blood"
        },
        "valueQuantity": {
          "system": "http://unitsofmeasure.org",
          "value": 0.9,
          "unit": "mg/dL",
          "code": "mg/dL"
        },
        "referenceRange": [
          {
            "low": {
              "value": 0.6,
              "code": "mg/dL",
              "system": "http://unitsofmeasure.org"
            }
          },
          {
            "high": {
              "value": 1.1,
              "code": "mg/dL",
              "system": "http://unitsofmeasure.org"
            }
          }
        ],
        "text": {
          "status": "generated",
          "div": "<div xmlns=\"http://www.w3.org/1999/xhtml\"><table class=\"hl7__eu__lab__report\"><tr><th>Test</th><th>16-Jan-2016</th><th>Reference&#xA0;Range</th><th>Unit</th></tr><tr><td>Creatinine [Mass/volume] in Blood</td><td>0.9</td><td>0.6 - 1.1</td><td></td><td>mg/dL</td></tr></table></div>"
        },
        "status": "final",
        "subject": {
          "reference": "urn:uuid:03297aa1-cdb4-4852-906c-853b3da5fd99",
          "display": "Lydia Ward"
        },
        "effectiveDateTime": "2016-01-15T23:08:09Z",
        "specimen": {
          "reference": "urn:uuid:908a78f7-d7c7-4304-ad41-f087909cfcd8"
        }
      }
    },
    {
      "fullUrl": "urn:uuid:1b84c21c-8932-4221-8a22-c96fb7abef09",
      "resource": {
        "resourceType": "Observation",
        "id": "1b84c21c-8932-4221-8a22-c96fb7abef09",
        "meta": {
          "profile": [
            "http://hl7.eu/fhir/laboratory/StructureDefinition/Observation-resultslab-eu-lab"
          ]
        },
        "performer": [
          {
            "display": "The Central European Lab"
          }
        ],
        "category": [
          {
            "coding": [
              {
                "system": "http://terminology.hl7.org/CodeSystem/observation-category",
                "code": "laboratory"
              }
            ]
          }
        ],
        "code": {
          "coding": [
            {
              "code": "49765-1",
              "system": "http://loinc.org",
              "display": "Calcium [Mass/volume] in Blood"
            }
          ],
          "text": "Calcium [Mass/volume] in Blood"
        },
        "valueQuantity": {
          "system": "http://unitsofmeasure.org",
          "value": 9.3,
          "unit": "mg/dL",
          "code": "mg/dL"
        },
        "referenceRange": [
          {
            "low": {
              "value": 8.5,
              "code": "mg/dL",
              "system": "http://unitsofmeasure.org"
            }
          },
          {
            "high": {
              "value": 10.5,
              "code": "mg/dL",
              "system": "http://unitsofmeasure.org"
            }
          }
        ],
        "text": {
          "status": "generated",
          "div": "<div xmlns=\"http://www.w3.org/1999/xhtml\"><table class=\"hl7__eu__lab__report\"><tr><th>Test</th><th>16-Jan-2016</th><th>Reference&#xA0;Range</th><th>Unit</th></tr><tr><td>Calcium [Mass/volume] in Blood</td><td>9.3</td><td>8.5 - 10.5</td><td></td><td>mg/dL</td></tr></table></div>"
        },
        "status": "final",
        "subject": {
          "reference": "urn:uuid:03297aa1-cdb4-4852-906c-853b3da5fd99",
          "display": "Lydia Ward"
        },
        "effectiveDateTime": "2016-01-15T23:08:09Z",
        "specimen": {
          "reference": "urn:uuid:908a78f7-d7c7-4304-ad41-f087909cfcd8"
        }
      }
    },
    {
      "fullUrl": "urn:uuid:f7f7f697-7616-4503-bbf5-b710b2f0a2c6",
      "resource": {
        "resourceType": "Observation",
        "id": "f7f7f697-7616-4503-bbf5-b710b2f0a2c6",
        "meta": {
          "profile": [
            "http://hl7.eu/fhir/laboratory/StructureDefinition/Observation-resultslab-eu-lab"
          ]
        },
        "performer": [
          {
            "display": "The Central European Lab"
          }
        ],
        "category": [
          {
            "coding": [
              {
                "system": "http://terminology.hl7.org/CodeSystem/observation-category",
                "code": "laboratory"
              }
            ]
          }
        ],
        "code": {
          "coding": [
            {
              "code": "2947-0",
              "system": "http://loinc.org",
              "display": "Sodium [Moles/volume] in Blood"
            }
          ],
          "text": "Sodium [Moles/volume] in Blood"
        },
        "valueQuantity": {
          "system": "http://unitsofmeasure.org",
          "value": 138.8,
          "unit": "mmol/L",
          "code": "mmol/L"
        },
        "referenceRange": [
          {
            "low": {
              "value": 135,
              "code": "mmol/L",
              "system": "http://unitsofmeasure.org"
            }
          },
          {
            "high": {
              "value": 145,
              "code": "mmol/L",
              "system": "http://unitsofmeasure.org"
            }
          }
        ],
        "text": {
          "status": "generated",
          "div": "<div xmlns=\"http://www.w3.org/1999/xhtml\"><table class=\"hl7__eu__lab__report\"><tr><th>Test</th><th>16-Jan-2016</th><th>Reference&#xA0;Range</th><th>Unit</th></tr><tr><td>Sodium [Moles/volume] in Blood</td><td>138.8</td><td>135 - 145</td><td></td><td>mmol/L</td></tr></table></div>"
        },
        "status": "final",
        "subject": {
          "reference": "urn:uuid:03297aa1-cdb4-4852-906c-853b3da5fd99",
          "display": "Lydia Ward"
        },
        "effectiveDateTime": "2016-01-15T23:08:09Z",
        "specimen": {
          "reference": "urn:uuid:908a78f7-d7c7-4304-ad41-f087909cfcd8"
        }
      }
    },
    {
      "fullUrl": "urn:uuid:324a105a-c4ea-45e5-8bf1-1efcf72053b5",
      "resource": {
        "resourceType": "Observation",
        "id": "324a105a-c4ea-45e5-8bf1-1efcf72053b5",
        "meta": {
          "profile": [
            "http://hl7.eu/fhir/laboratory/StructureDefinition/Observation-resultslab-eu-lab"
          ]
        },
        "performer": [
          {
            "display": "The Central European Lab"
          }
        ],
        "category": [
          {
            "coding": [
              {
                "system": "http://terminology.hl7.org/CodeSystem/observation-category",
                "code": "laboratory"
              }
            ]
          }
        ],
        "code": {
          "coding": [
            {
              "code": "6298-4",
              "system": "http://loinc.org",
              "display": "Potassium [Moles/volume] in Blood"
            }
          ],
          "text": "Potassium [Moles/volume] in Blood"
        },
        "valueQuantity": {
          "system": "http://unitsofmeasure.org",
          "value": 3.8,
          "unit": "mmol/L",
          "code": "mmol/L"
        },
        "referenceRange": [
          {
            "low": {
              "value": 3.5,
              "code": "mmol/L",
              "system": "http://unitsofmeasure.org"
            }
          },
          {
            "high": {
              "value": 5.1,
              "code": "mmol/L",
              "system": "http://unitsofmeasure.org"
            }
          }
        ],
        "text": {
          "status": "generated",
          "div": "<div xmlns=\"http://www.w3.org/1999/xhtml\"><table class=\"hl7__eu__lab__report\"><tr><th>Test</th><th>16-Jan-2016</th><th>Reference&#xA0;Range</th><th>Unit</th></tr><tr><td>Potassium [Moles/volume] in Blood</td><td>3.8</td><td>3.5 - 5.1</td><td></td><td>mmol/L</td></tr></table></div>"
        },
        "status": "final",
        "subject": {
          "reference": "urn:uuid:03297aa1-cdb4-4852-906c-853b3da5fd99",
          "display": "Lydia Ward"
        },
        "effectiveDateTime": "2016-01-15T23:08:09Z",
        "specimen": {
          "reference": "urn:uuid:908a78f7-d7c7-4304-ad41-f087909cfcd8"
        }
      }
    },
    {
      "fullUrl": "urn:uuid:4302aeb7-ab75-4e20-8e72-842c412bebb3",
      "resource": {
        "resourceType": "Observation",
        "id": "4302aeb7-ab75-4e20-8e72-842c412bebb3",
        "meta": {
          "profile": [
            "http://hl7.eu/fhir/laboratory/StructureDefinition/Observation-resultslab-eu-lab"
          ]
        },
        "performer": [
          {
            "display": "The Central European Lab"
          }
        ],
        "category": [
          {
            "coding": [
              {
                "system": "http://terminology.hl7.org/CodeSystem/observation-category",
                "code": "laboratory"
              }
            ]
          }
        ],
        "code": {
          "coding": [
            {
              "code": "2069-3",
              "system": "http://loinc.org",
              "display": "Chloride [Moles/volume] in Blood"
            }
          ],
          "text": "Chloride [Moles/volume] in Blood"
        },
        "valueQuantity": {
          "system": "http://unitsofmeasure.org",
          "value": 101.4,
          "unit": "mmol/L",
          "code": "mmol/L"
        },
        "referenceRange": [
          {
            "low": {
              "value": 98,
              "code": "mmol/L",
              "system": "http://unitsofmeasure.org"
            }
          },
          {
            "high": {
              "value": 107,
              "code": "mmol/L",
              "system": "http://unitsofmeasure.org"
            }
          }
        ],
        "text": {
          "status": "generated",
          "div": "<div xmlns=\"http://www.w3.org/1999/xhtml\"><table class=\"hl7__eu__lab__report\"><tr><th>Test</th><th>16-Jan-2016</th><th>Reference&#xA0;Range</th><th>Unit</th></tr><tr><td>Chloride [Moles/volume] in Blood</td><td>101.4</td><td>98 - 107</td><td></td><td>mmol/L</td></tr></table></div>"
        },
        "status": "final",
        "subject": {
          "reference": "urn:uuid:03297aa1-cdb4-4852-906c-853b3da5fd99",
          "display": "Lydia Ward"
        },
        "effectiveDateTime": "2016-01-15T23:08:09Z",
        "specimen": {
          "reference": "urn:uuid:908a78f7-d7c7-4304-ad41-f087909cfcd8"
        }
      }
    },
    {
      "fullUrl": "urn:uuid:a8056e38-6a78-406f-a5ec-968df3607a84",
      "resource": {
        "resourceType": "Observation",
        "id": "a8056e38-6a78-406f-a5ec-968df3607a84",
        "meta": {
          "profile": [
            "http://hl7.eu/fhir/laboratory/StructureDefinition/Observation-resultslab-eu-lab"
          ]
        },
        "performer": [
          {
            "display": "The Central European Lab"
          }
        ],
        "category": [
          {
            "coding": [
              {
                "system": "http://terminology.hl7.org/CodeSystem/observation-category",
                "code": "laboratory"
              }
            ]
          }
        ],
        "code": {
          "coding": [
            {
              "code": "20565-8",
              "system": "http://loinc.org",
              "display": "Carbon dioxide, total [Moles/volume] in Blood"
            }
          ],
          "text": "Carbon dioxide, total [Moles/volume] in Blood"
        },
        "valueQuantity": {
          "system": "http://unitsofmeasure.org",
          "value": 23.3,
          "unit": "mmol/L",
          "code": "mmol/L"
        },
        "referenceRange": [
          {
            "low": {
              "value": 22,
              "code": "mmol/L",
              "system": "http://unitsofmeasure.org"
            }
          },
          {
            "high": {
              "value": 32,
              "code": "mmol/L",
              "system": "http://unitsofmeasure.org"
            }
          }
        ],
        "text": {
          "status": "generated",
          "div": "<div xmlns=\"http://www.w3.org/1999/xhtml\"><table class=\"hl7__eu__lab__report\"><tr><th>Test</th><th>16-Jan-2016</th><th>Reference&#xA0;Range</th><th>Unit</th></tr><tr><td>Carbon dioxide, total [Moles/volume] in Blood</td><td>23.3</td><td>22 - 32</td><td></td><td>mmol/L</td></tr></table></div>"
        },
        "status": "final",
        "subject": {
          "reference": "urn:uuid:03297aa1-cdb4-4852-906c-853b3da5fd99",
          "display": "Lydia Ward"
        },
        "effectiveDateTime": "2016-01-15T23:08:09Z",
        "specimen": {
          "reference": "urn:uuid:908a78f7-d7c7-4304-ad41-f087909cfcd8"
        }
      }
    },
    {
      "fullUrl": "urn:uuid:818e549b-9d47-4fa1-a35c-7eff981f482e",
      "resource": {
        "resourceType": "Observation",
        "id": "818e549b-9d47-4fa1-a35c-7eff981f482e",
        "meta": {
          "profile": [
            "http://hl7.eu/fhir/laboratory/StructureDefinition/Observation-resultslab-eu-lab"
          ]
        },
        "performer": [
          {
            "display": "The Central European Lab"
          }
        ],
        "category": [
          {
            "coding": [
              {
                "system": "http://terminology.hl7.org/CodeSystem/observation-category",
                "code": "laboratory"
              }
            ]
          }
        ],
        "code": {
          "coding": [
            {
              "code": "2093-3",
              "system": "http://loinc.org",
              "display": "Cholesterol [Mass/volume] in Serum or Plasma"
            }
          ],
          "text": "Cholesterol [Mass/volume] in Serum or Plasma"
        },
        "valueQuantity": {
          "system": "http://unitsofmeasure.org",
          "value": 140.9,
          "unit": "mg/dL",
          "code": "mg/dL"
        },
        "referenceRange": [
          {
            "low": {
              "value": 125,
              "code": "mg/dL",
              "system": "http://unitsofmeasure.org"
            }
          },
          {
            "high": {
              "value": 200,
              "code": "mg/dL",
              "system": "http://unitsofmeasure.org"
            }
          }
        ],
        "text": {
          "status": "generated",
          "div": "<div xmlns=\"http://www.w3.org/1999/xhtml\"><table class=\"hl7__eu__lab__report\"><tr><th>Test</th><th>16-Jan-2016</th><th>Reference&#xA0;Range</th><th>Unit</th></tr><tr><td>Cholesterol [Mass/volume] in Serum or Plasma</td><td>140.9</td><td>125 - 200</td><td></td><td>mg/dL</td></tr></table></div>"
        },
        "status": "final",
        "subject": {
          "reference": "urn:uuid:03297aa1-cdb4-4852-906c-853b3da5fd99",
          "display": "Lydia Ward"
        },
        "effectiveDateTime": "2016-01-15T23:08:09Z",
        "specimen": {
          "reference": "urn:uuid:77e3da57-57f7-4d44-9a7a-a33bd49702e7"
        }
      }
    },
    {
      "fullUrl": "urn:uuid:b1fa36f3-cb18-40c3-b859-60ad33fe87cf",
      "resource": {
        "resourceType": "Observation",
        "id": "b1fa36f3-cb18-40c3-b859-60ad33fe87cf",
        "meta": {
          "profile": [
            "http://hl7.eu/fhir/laboratory/StructureDefinition/Observation-resultslab-eu-lab"
          ]
        },
        "performer": [
          {
            "display": "The Central European Lab"
          }
        ],
        "category": [
          {
            "coding": [
              {
                "system": "http://terminology.hl7.org/CodeSystem/observation-category",
                "code": "laboratory"
              }
            ]
          }
        ],
        "code": {
          "coding": [
            {
              "code": "2571-8",
              "system": "http://loinc.org",
              "display": "Triglyceride [Mass/volume] in Serum or Plasma"
            }
          ],
          "text": "Triglyceride [Mass/volume] in Serum or Plasma"
        },
        "valueQuantity": {
          "system": "http://unitsofmeasure.org",
          "value": 120.5,
          "unit": "mg/dL",
          "code": "mg/dL"
        },
        "referenceRange": [
          {
            "low": {
              "value": 0,
              "code": "mg/dL",
              "system": "http://unitsofmeasure.org"
            }
          },
          {
            "high": {
              "value": 150,
              "code": "mg/dL",
              "system": "http://unitsofmeasure.org"
            }
          }
        ],
        "text": {
          "status": "generated",
          "div": "<div xmlns=\"http://www.w3.org/1999/xhtml\"><table class=\"hl7__eu__lab__report\"><tr><th>Test</th><th>16-Jan-2016</th><th>Reference&#xA0;Range</th><th>Unit</th></tr><tr><td>Triglyceride [Mass/volume] in Serum or Plasma</td><td>120.5</td><td>0 - 150</td><td></td><td>mg/dL</td></tr></table></div>"
        },
        "status": "final",
        "subject": {
          "reference": "urn:uuid:03297aa1-cdb4-4852-906c-853b3da5fd99",
          "display": "Lydia Ward"
        },
        "effectiveDateTime": "2016-01-15T23:08:09Z",
        "specimen": {
          "reference": "urn:uuid:77e3da57-57f7-4d44-9a7a-a33bd49702e7"
        }
      }
    },
    {
      "fullUrl": "urn:uuid:b80ab682-73c4-4541-810c-ef5853d4d9e2",
      "resource": {
        "resourceType": "Observation",
        "id": "b80ab682-73c4-4541-810c-ef5853d4d9e2",
        "meta": {
          "profile": [
            "http://hl7.eu/fhir/laboratory/StructureDefinition/Observation-resultslab-eu-lab"
          ]
        },
        "performer": [
          {
            "display": "The Central European Lab"
          }
        ],
        "category": [
          {
            "coding": [
              {
                "system": "http://terminology.hl7.org/CodeSystem/observation-category",
                "code": "laboratory"
              }
            ]
          }
        ],
        "code": {
          "coding": [
            {
              "code": "18262-6",
              "system": "http://loinc.org",
              "display": "Cholesterol in LDL [Mass/volume] in Serum or Plasma by Direct assay"
            }
          ],
          "text": "Cholesterol in LDL [Mass/volume] in Serum or Plasma by Direct assay"
        },
        "valueQuantity": {
          "system": "http://unitsofmeasure.org",
          "value": 55.9,
          "unit": "mg/dL",
          "code": "mg/dL"
        },
        "referenceRange": [
          {
            "low": {
              "value": 0,
              "code": "mg/dL",
              "system": "http://unitsofmeasure.org"
            }
          },
          {
            "high": {
              "value": 130,
              "code": "mg/dL",
              "system": "http://unitsofmeasure.org"
            }
          }
        ],
        "text": {
          "status": "generated",
          "div": "<div xmlns=\"http://www.w3.org/1999/xhtml\"><table class=\"hl7__eu__lab__report\"><tr><th>Test</th><th>16-Jan-2016</th><th>Reference&#xA0;Range</th><th>Unit</th></tr><tr><td>Cholesterol in LDL [Mass/volume] in Serum or Plasma by Direct assay</td><td>55.9</td><td>0 - 130</td><td></td><td>mg/dL</td></tr></table></div>"
        },
        "status": "final",
        "subject": {
          "reference": "urn:uuid:03297aa1-cdb4-4852-906c-853b3da5fd99",
          "display": "Lydia Ward"
        },
        "effectiveDateTime": "2016-01-15T23:08:09Z",
        "specimen": {
          "reference": "urn:uuid:77e3da57-57f7-4d44-9a7a-a33bd49702e7"
        }
      }
    },
    {
      "fullUrl": "urn:uuid:81381284-258c-4df5-9804-75f27076e09b",
      "resource": {
        "resourceType": "Observation",
        "id": "81381284-258c-4df5-9804-75f27076e09b",
        "meta": {
          "profile": [
            "http://hl7.eu/fhir/laboratory/StructureDefinition/Observation-resultslab-eu-lab"
          ]
        },
        "performer": [
          {
            "display": "The Central European Lab"
          }
        ],
        "category": [
          {
            "coding": [
              {
                "system": "http://terminology.hl7.org/CodeSystem/observation-category",
                "code": "laboratory"
              }
            ]
          }
        ],
        "code": {
          "coding": [
            {
              "code": "2085-9",
              "system": "http://loinc.org",
              "display": "Cholesterol in HDL [Mass/volume] in Serum or Plasma"
            }
          ],
          "text": "Cholesterol in HDL [Mass/volume] in Serum or Plasma"
        },
        "valueQuantity": {
          "system": "http://unitsofmeasure.org",
          "value": 60.9,
          "unit": "mg/dL",
          "code": "mg/dL"
        },
        "referenceRange": [
          {
            "low": {
              "value": 40,
              "code": "mg/dL",
              "system": "http://unitsofmeasure.org"
            }
          },
          {
            "high": {
              "value": 60,
              "code": "mg/dL",
              "system": "http://unitsofmeasure.org"
            }
          }
        ],
        "interpretation": [
          {
            "coding": [
              {
                "code": "H",
                "system": "http://terminology.hl7.org/CodeSystem/v3-ObservationInterpretation",
                "display": "High"
              }
            ]
          }
        ],
        "text": {
          "status": "generated",
          "div": "<div xmlns=\"http://www.w3.org/1999/xhtml\"><table class=\"hl7__eu__lab__report\"><tr><th>Test</th><th>16-Jan-2016</th><th>Reference&#xA0;Range</th><th>Unit</th></tr><tr><td>Cholesterol in HDL [Mass/volume] in Serum or Plasma</td><td>60.9</td><td>40 - 60</td><td>H</td><td>mg/dL</td></tr></table></div>"
        },
        "status": "final",
        "subject": {
          "reference": "urn:uuid:03297aa1-cdb4-4852-906c-853b3da5fd99",
          "display": "Lydia Ward"
        },
        "effectiveDateTime": "2016-01-15T23:08:09Z",
        "specimen": {
          "reference": "urn:uuid:77e3da57-57f7-4d44-9a7a-a33bd49702e7"
        }
      }
    },
    {
      "fullUrl": "urn:uuid:e0380505-85c6-4c62-aae0-5104d0486f5b",
      "resource": {
        "resourceType": "Device",
        "id": "e0380505-85c6-4c62-aae0-5104d0486f5b",
        "deviceName": [
          {
            "name": "SYNDERAI Synthetic Generator",
            "type": "manufacturer-name"
          }
        ],
        "version": [
          {
            "value": "5.0"
          }
        ],
        "text": {
          "status": "generated",
          "div": "<div xmlns=\"http://www.w3.org/1999/xhtml\">SYNDERAI Synthetic Generator v5.0</div>"
        },
        "status": "active\"",
        "distinctIdentifier": "synderai-generator-50",
        "manufacturer": "SYNDERAI Project"
      }
    },
    {
      "fullUrl": "urn:uuid:2ee9b47f-7fc3-40f8-816a-1653bd2d36ec",
      "resource": {
        "resourceType": "Provenance",
        "id": "2ee9b47f-7fc3-40f8-816a-1653bd2d36ec",
        "target": [
          {
            "reference": "Patient/03297aa1-cdb4-4852-906c-853b3da5fd99"
          },
          {
            "reference": "Bundle/52517a35-b8ce-422a-abae-3739ce641f1f"
          },
          {
            "reference": "Composition/6469a3d6-cf9e-46cd-8fa9-9dcd633140a9"
          },
          {
            "reference": "PractitionerRole/1d0213ca-dbd4-47d6-a030-ebce52e3f058"
          },
          {
            "reference": "Practitioner/68a6850d-0e5d-4ff2-9962-66c6b20d4a2d"
          },
          {
            "reference": "PractitionerRole/a6ac0e0a-538d-4989-b393-1d5847bb26ed"
          },
          {
            "reference": "Organization/23c51302-d686-4f30-a832-2c6051a726fc"
          }
        ],
        "activity": {
          "text": "Synthetic Example Data Generation"
        },
        "policy": [
          "https://synderai.net/synderai-synthetic-data-policy"
        ],
        "agent": [
          {
            "type": {
              "text": "author"
            },
            "who": {
              "reference": "Device/e0380505-85c6-4c62-aae0-5104d0486f5b"
            }
          }
        ],
        "reason": [
          {
            "text": "Interoperability Testing and Training (non-clinical use)"
          }
        ],
        "text": {
          "status": "generated",
          "div": "<div xmlns=\"http://www.w3.org/1999/xhtml\">Provenance for SYNDERAI Synthetic Example Data Resource</div>"
        },
        "recorded": "2016-01-16T00:08:09Z"
      }
    },
    {
      "fullUrl": "urn:uuid:1d0213ca-dbd4-47d6-a030-ebce52e3f058",
      "resource": {
        "resourceType": "PractitionerRole",
        "id": "1d0213ca-dbd4-47d6-a030-ebce52e3f058",
        "meta": {
          "profile": [
            "http://hl7.eu/fhir/base/StructureDefinition/practitionerRole-eu"
          ]
        },
        "text": {
          "status": "generated",
          "div": "<div xmlns=\"http://www.w3.org/1999/xhtml\">Laboratory Role Id: 1d0213ca-dbd4-47d6-a030-ebce52e3f058</div>"
        },
        "practitioner": {
          "reference": "urn:uuid:68a6850d-0e5d-4ff2-9962-66c6b20d4a2d"
        }
      }
    },
    {
      "fullUrl": "urn:uuid:68a6850d-0e5d-4ff2-9962-66c6b20d4a2d",
      "resource": {
        "resourceType": "Practitioner",
        "id": "68a6850d-0e5d-4ff2-9962-66c6b20d4a2d",
        "meta": {
          "profile": [
            "http://hl7.eu/fhir/base/StructureDefinition/practitioner-eu"
          ]
        },
        "identifier": [
          {
            "assigner": {
              "display": "HL7 Europe"
            },
            "system": "urn:oid:2.16.840.1.113883.2.51.999",
            "value": "e832b013-5fd9-40b5-b40b-ba2f9807f952"
          }
        ],
        "name": [
          {
            "prefix": [
              "dr"
            ],
            "given": [
              "Ex"
            ],
            "family": "Ample"
          }
        ],
        "address": [
          {
            "line": [
              "Laboratoire Central Européenne",
              "Boulevard du Jardin Botanique 32"
            ],
            "postalCode": "1000",
            "city": "Brussels",
            "country": "Belgium"
          }
        ],
        "text": {
          "status": "generated",
          "div": "<div xmlns=\"http://www.w3.org/1999/xhtml\">Laboratory: Laboratoire Central Européenne, 1000 Brussels, Belgium</div>"
        }
      }
    }
  ],
  "type": "document",
  "timestamp": "2016-01-16T00:08:09Z"
}
