{
  "resourceType": "Bundle",
  "id": "1123d2b1-b362-4963-b38b-68c015596cc2",
  "meta": {
    "profile": [
      "http://hl7.eu/fhir/laboratory/StructureDefinition/Bundle-eu-lab"
    ]
  },
  "identifier": {
    "assigner": {
      "display": "HL7 Europe"
    },
    "system": "urn:oid:2.16.840.1.113883.2.51.999",
    "value": "8976cab0-fe5c-4077-9689-ba70f7fa92b8"
  },
  "entry": [
    {
      "fullUrl": "urn:uuid:233bde5e-1798-430e-ac7f-36c1d90d1bf6",
      "resource": {
        "resourceType": "Composition",
        "id": "233bde5e-1798-430e-ac7f-36c1d90d1bf6",
        "meta": {
          "profile": [
            "http://hl7.eu/fhir/laboratory/StructureDefinition/Composition-eu-lab"
          ]
        },
        "identifier": {
          "assigner": {
            "display": "HL7 Europe"
          },
          "system": "urn:oid:2.16.840.1.113883.2.51.999",
          "value": "7ba173c7-cf34-4093-8b1b-24d973edf40d"
        },
        "author": [
          {
            "reference": "urn:uuid:d6106857-7fc6-4ef2-9f52-b6d3c0d687ad"
          }
        ],
        "category": [
          {
            "coding": [
              {
                "code": "26436-6",
                "system": "http://loinc.org",
                "display": "Laboratory studies (set)"
              }
            ]
          }
        ],
        "type": {
          "coding": [
            {
              "code": "11502-2",
              "system": "http://loinc.org",
              "display": "Laboratory report"
            }
          ],
          "text": "Laboratory Report"
        },
        "section": [
          {
            "code": {
              "coding": [
                {
                  "code": "26436-6",
                  "system": "http://loinc.org",
                  "display": "Laboratory studies (set)"
                }
              ],
              "text": "Laboratory studies"
            },
            "section": [
              {
                "code": {
                  "coding": [
                    {
                      "code": "$18719-5",
                      "system": "http://loinc.org",
                      "display": "Chemistry studies (set)"
                    }
                  ],
                  "text": "Chemistry"
                },
                "entry": [
                  {
                    "reference": "urn:uuid:851d18c9-c3bc-4fe1-91cd-a549e1847bbd"
                  },
                  {
                    "reference": "urn:uuid:0234e830-05ca-4106-b432-1e016d990283"
                  },
                  {
                    "reference": "urn:uuid:d51ab127-a83e-4f79-891b-c4f37b684349"
                  },
                  {
                    "reference": "urn:uuid:282f177c-5298-4560-b9f8-3dc8fedf0237"
                  },
                  {
                    "reference": "urn:uuid:53431f4a-523d-4f8c-8c40-a76176fb0be9"
                  },
                  {
                    "reference": "urn:uuid:06c94fdd-97b8-4659-8524-15fd43176be4"
                  },
                  {
                    "reference": "urn:uuid:42d79b3d-2680-4723-bd77-4e4e326bca8f"
                  },
                  {
                    "reference": "urn:uuid:eebb3412-26d8-46ea-a7c3-687c47e8f6e5"
                  },
                  {
                    "reference": "urn:uuid:959d10b0-7a3e-496b-af55-022fad005869"
                  }
                ],
                "text": {
                  "status": "generated",
                  "div": "<div xmlns=\"http://www.w3.org/1999/xhtml\"><h3>Chemistry</h3><table class=\"hl7__eu__lab__report\"><thead><tr><th>Test</th><th>24-JAN-2018</th><th>Reference&#xA0;Range</th><th>Unit</th></tr></thead><tbody><tr><td>Hemoglobin A1c/Hemoglobin.total in Blood</td><td>5.9</td><td>4 - 6</td><td>%</td></tr><tr><td>Glucose [Mass/volume] in Blood</td><td><strong>67.3 L</strong></td><td>70 - 140</td><td>mg/dL</td></tr><tr><td>Urea nitrogen [Mass/volume] in Blood</td><td>12.5</td><td>7 - 50</td><td>mg/dL</td></tr><tr><td>Creatinine [Mass/volume] in Blood</td><td>0.7</td><td>0.5 - 1.3</td><td>mg/dL</td></tr><tr><td>Calcium [Mass/volume] in Blood</td><td>8.9</td><td>8.5 - 10.4</td><td>mg/dL</td></tr><tr><td>Sodium [Moles/volume] in Blood</td><td>142.8</td><td>135 - 145</td><td>mmol/L</td></tr><tr><td>Potassium [Moles/volume] in Blood</td><td>4.5</td><td>3.5 - 5.3</td><td>mmol/L</td></tr><tr><td>Chloride [Moles/volume] in Blood</td><td>107.0</td><td>98 - 110</td><td>mmol/L</td></tr><tr><td>Carbon dioxide, total [Moles/volume] in Blood</td><td><strong>20.3 L</strong></td><td>22 - 32</td><td>mmol/L</td></tr></tbody></table></div>"
                },
                "title": "Chemistry"
              }
            ],
            "title": "Laboratory Report"
          },
          {
            "text": {
              "status": "generated",
              "div": "<div xmlns=\"http://www.w3.org/1999/xhtml\"><h3>Annotation</h3><table class=\"hl7__eu__lab__report\"><tr><th>Conclusion and Recommendations based on this report and previous findings known to us</th></tr><tr><td>The results show mildly decreased fasting glucose and low total CO₂, which may suggest mild hypoglycemia and possible metabolic acidosis or compensated respiratory alkalosis. Renal function, electrolytes, and calcium are within normal limits. HbA1c is at the upper end of normal, indicating good long-term glycemic control. Clinical correlation is recommended.</td></tr></table></div>"
            },
            "code": {
              "coding": [
                {
                  "system": "http://loinc.org",
                  "code": "48767-8",
                  "display": "Annotation comment"
                }
              ]
            },
            "title": "Annotation comment"
          }
        ],
        "status": "final",
        "subject": {
          "reference": "urn:uuid:b9162d81-fbeb-43e3-b111-2775887dd605",
          "display": "Jele Jurković"
        },
        "date": "2018-01-24T19:07:38Z",
        "title": "Laboratory Report",
        "confidentiality": "N"
      }
    },
    {
      "fullUrl": "urn:uuid:eac8538b-7b92-44bc-af61-7e63e1ab7001",
      "resource": {
        "resourceType": "DiagnosticReport",
        "id": "eac8538b-7b92-44bc-af61-7e63e1ab7001",
        "meta": {
          "profile": [
            "http://hl7.eu/fhir/laboratory/StructureDefinition/DiagnosticReport-eu-lab"
          ]
        },
        "identifier": [
          {
            "assigner": {
              "display": "HL7 Europe"
            },
            "system": "urn:oid:2.16.840.1.113883.2.51.999",
            "value": "eb1fb896-82ae-42f6-b6cb-7a9824ad7b31"
          }
        ],
        "extension": [
          {
            "url": "http://hl7.org/fhir/5.0/StructureDefinition/extension-DiagnosticReport.composition",
            "valueReference": {
              "reference": "urn:uuid:7ba173c7-cf34-4093-8b1b-24d973edf40d"
            }
          }
        ],
        "category": [
          {
            "coding": [
              {
                "code": "26436-6",
                "system": "http://loinc.org",
                "display": "Laboratory studies (set)"
              }
            ]
          }
        ],
        "specimen": [
          {
            "reference": "urn:uuid:9d9a2a78-160f-4703-91db-e07732ba040a"
          }
        ],
        "result": [
          {
            "reference": "urn:uuid:851d18c9-c3bc-4fe1-91cd-a549e1847bbd"
          },
          {
            "reference": "urn:uuid:0234e830-05ca-4106-b432-1e016d990283"
          },
          {
            "reference": "urn:uuid:d51ab127-a83e-4f79-891b-c4f37b684349"
          },
          {
            "reference": "urn:uuid:282f177c-5298-4560-b9f8-3dc8fedf0237"
          },
          {
            "reference": "urn:uuid:53431f4a-523d-4f8c-8c40-a76176fb0be9"
          },
          {
            "reference": "urn:uuid:06c94fdd-97b8-4659-8524-15fd43176be4"
          },
          {
            "reference": "urn:uuid:42d79b3d-2680-4723-bd77-4e4e326bca8f"
          },
          {
            "reference": "urn:uuid:eebb3412-26d8-46ea-a7c3-687c47e8f6e5"
          },
          {
            "reference": "urn:uuid:959d10b0-7a3e-496b-af55-022fad005869"
          }
        ],
        "status": "registered",
        "code": {
          "coding": [
            {
              "code": "11502-2",
              "system": "http://loinc.org",
              "display": "Laboratory report"
            }
          ]
        },
        "subject": {
          "reference": "urn:uuid:b9162d81-fbeb-43e3-b111-2775887dd605",
          "display": "Jele Jurković"
        }
      }
    },
    {
      "fullUrl": "urn:uuid:b9162d81-fbeb-43e3-b111-2775887dd605",
      "resource": {
        "resourceType": "Patient",
        "id": "b9162d81-fbeb-43e3-b111-2775887dd605",
        "meta": {
          "security": [
            {
              "system": "http://terminology.hl7.org/CodeSystem/v3-ActReason",
              "code": "HTEST"
            },
            {
              "system": "http://terminology.hl7.org/CodeSystem/v3-ActReason",
              "code": "TRAIN"
            }
          ],
          "tag": [
            {
              "system": "https://synderai.net/fhir/CodeSystem/tags",
              "code": "synthetic",
              "display": "SYNDERAI Synthetic data"
            }
          ],
          "profile": [
            "http://hl7.eu/fhir/base/StructureDefinition/patient-eu-core"
          ]
        },
        "identifier": [
          {
            "type": {
              "coding": [
                {
                  "code": "PT",
                  "system": "http://terminology.hl7.org/CodeSystem/v2-0203"
                }
              ]
            },
            "system": "http://ec.europa.eu/identifier/eci",
            "value": "3583-291434-1"
          },
          {
            "type": {
              "coding": [
                {
                  "code": "MR",
                  "system": "http://terminology.hl7.org/CodeSystem/v2-0203"
                }
              ]
            },
            "system": "http://local.setting.eu/identifier",
            "value": "9d4fea2d-eece-b99f-3e16-832f0f5813f5"
          }
        ],
        "name": [
          {
            "family": "Jurković"
          },
          {
            "given": [
              "Jele"
            ]
          },
          {
            "text": "Jele Jurković"
          }
        ],
        "address": [
          {
            "line": [
              "Klesarski put 7b/8"
            ],
            "use": "home",
            "type": "physical",
            "postalCode": "34310",
            "city": "Pleternica",
            "country": "Croatia"
          }
        ],
        "telecom": [
          {
            "system": "phone",
            "value": "021 083 354"
          }
        ],
        "extension": [
          {
            "url": "http://hl7.org/fhir/StructureDefinition/patient-nationality",
            "valueCodeableConcept": {
              "coding": [
                {
                  "code": "HR",
                  "system": "http://hl7.org/fhir/ValueSet/country"
                }
              ]
            }
          }
        ],
        "text": {
          "status": "generated",
          "div": "<div xmlns=\"http://www.w3.org/1999/xhtml\"><table class=\"hl7__ips\"><tr><td>Jele Jurković</td><td>female</td><td>07-Jan-1953</td></tr></table></div>"
        },
        "gender": "female",
        "birthDate": "1953-01-07"
      }
    },
    {
      "fullUrl": "urn:uuid:59600e34-5503-4b75-8eb1-62c3d1461ebb",
      "resource": {
        "resourceType": "ServiceRequest",
        "id": "59600e34-5503-4b75-8eb1-62c3d1461ebb",
        "meta": {
          "profile": [
            "http://hl7.eu/fhir/laboratory/StructureDefinition/ServiceRequest-eu-lab"
          ]
        },
        "identifier": [
          {
            "system": "http://example.org",
            "value": "52406f14-b2ec-464c-8fda-f36cccf4eba6"
          }
        ],
        "specimen": [
          {
            "reference": "urn:uuid:9d9a2a78-160f-4703-91db-e07732ba040a"
          }
        ],
        "reasonCode": [
          {
            "coding": [
              {
                "code": "64859006",
                "system": "http://snomed.info/sct",
                "display": "Osteoporosis"
              }
            ]
          },
          {
            "coding": [
              {
                "code": "6525002",
                "system": "http://snomed.info/sct",
                "display": "Dependent drug abuse"
              }
            ]
          },
          {
            "coding": [
              {
                "code": "15777000",
                "system": "http://snomed.info/sct",
                "display": "Prediabetes"
              }
            ]
          }
        ],
        "status": "active",
        "intent": "order",
        "code": {
          "coding": [
            {
              "code": "108252007",
              "system": "http://snomed.info/sct",
              "display": "Laboratory procedure"
            }
          ]
        },
        "subject": {
          "reference": "urn:uuid:b9162d81-fbeb-43e3-b111-2775887dd605",
          "display": "Jele Jurković"
        },
        "requester": {
          "reference": "urn:uuid:32e61c2a-061d-4898-a238-4599cd055552"
        }
      }
    },
    {
      "fullUrl": "urn:uuid:32e61c2a-061d-4898-a238-4599cd055552",
      "resource": {
        "resourceType": "PractitionerRole",
        "id": "32e61c2a-061d-4898-a238-4599cd055552",
        "meta": {
          "profile": [
            "http://hl7.eu/fhir/base/StructureDefinition/practitionerRole-eu"
          ]
        },
        "text": {
          "status": "generated",
          "div": "<div xmlns=\"http://www.w3.org/1999/xhtml\">Provider Role Id: 32e61c2a-061d-4898-a238-4599cd055552</div>"
        },
        "organization": {
          "reference": "urn:uuid:206358b4-8c37-4e81-b7a4-cbc351bdfaa4"
        }
      }
    },
    {
      "fullUrl": "urn:uuid:206358b4-8c37-4e81-b7a4-cbc351bdfaa4",
      "resource": {
        "resourceType": "Organization",
        "id": "206358b4-8c37-4e81-b7a4-cbc351bdfaa4",
        "meta": {
          "profile": [
            "http://hl7.eu/fhir/base/StructureDefinition/organization-eu"
          ]
        },
        "identifier": [
          {
            "assigner": {
              "display": "HL7 Europe"
            },
            "system": "urn:oid:2.16.840.1.113883.2.51.999",
            "value": "43b7d82a-d86d-484c-b345-1fa8df96ac80"
          }
        ],
        "address": [
          {
            "line": [
              "Osječka ulica 107"
            ],
            "city": "Požega",
            "postalCode": "34000",
            "country": "Croatia"
          }
        ],
        "text": {
          "status": "generated",
          "div": "<div xmlns=\"http://www.w3.org/1999/xhtml\">Provider Organization: Opća županijska bolnica Požega</div>"
        },
        "name": "Opća županijska bolnica Požega"
      }
    },
    {
      "fullUrl": "urn:uuid:9d9a2a78-160f-4703-91db-e07732ba040a",
      "resource": {
        "resourceType": "Specimen",
        "id": "9d9a2a78-160f-4703-91db-e07732ba040a",
        "meta": {
          "profile": [
            "http://hl7.eu/fhir/laboratory/StructureDefinition/Specimen-eu-lab"
          ]
        },
        "collection": {
          "collectedDateTime": "2018-01-24"
        },
        "text": {
          "status": "generated",
          "div": "<div xmlns=\"http://www.w3.org/1999/xhtml\"><table class=\"hl7__eu__lab__report\"><tr><th>Specimen</th><th>Collection Date</th></tr><tr><td>Whole blood specimen (specimen)</td><td><span class=\"nb\">24-Jan-2018</span></td></tr></table></div>"
        },
        "type": {
          "coding": [
            {
              "code": "258580003",
              "system": "http://snomed.info/sct",
              "display": "Whole blood specimen (specimen)"
            }
          ]
        }
      }
    },
    {
      "fullUrl": "urn:uuid:851d18c9-c3bc-4fe1-91cd-a549e1847bbd",
      "resource": {
        "resourceType": "Observation",
        "id": "851d18c9-c3bc-4fe1-91cd-a549e1847bbd",
        "meta": {
          "profile": [
            "http://hl7.eu/fhir/laboratory/StructureDefinition/Observation-resultslab-eu-lab"
          ]
        },
        "performer": [
          {
            "display": "The Central European Lab"
          }
        ],
        "category": [
          {
            "coding": [
              {
                "system": "http://terminology.hl7.org/CodeSystem/observation-category",
                "code": "laboratory"
              }
            ]
          }
        ],
        "code": {
          "coding": [
            {
              "code": "4548-4",
              "system": "http://loinc.org",
              "display": "Hemoglobin A1c/Hemoglobin.total in Blood"
            }
          ],
          "text": "Hemoglobin A1c/Hemoglobin.total in Blood"
        },
        "valueQuantity": {
          "system": "http://unitsofmeasure.org",
          "value": 5.9,
          "unit": "%",
          "code": "%"
        },
        "referenceRange": [
          {
            "low": {
              "value": 4,
              "code": "%",
              "system": "http://unitsofmeasure.org"
            }
          },
          {
            "high": {
              "value": 6,
              "code": "%",
              "system": "http://unitsofmeasure.org"
            }
          }
        ],
        "text": {
          "status": "generated",
          "div": "<div xmlns=\"http://www.w3.org/1999/xhtml\"><table class=\"hl7__eu__lab__report\"><tr><th>Test</th><th>24-Jan-2018</th><th>Reference&#xA0;Range</th><th>Unit</th></tr><tr><td>Hemoglobin A1c/Hemoglobin.total in Blood</td><td>5.9</td><td>4 - 6</td><td></td><td>%</td></tr></table></div>"
        },
        "status": "final",
        "subject": {
          "reference": "urn:uuid:b9162d81-fbeb-43e3-b111-2775887dd605",
          "display": "Jele Jurković"
        },
        "effectiveDateTime": "2018-01-24T18:07:38Z",
        "specimen": {
          "reference": "urn:uuid:9d9a2a78-160f-4703-91db-e07732ba040a"
        }
      }
    },
    {
      "fullUrl": "urn:uuid:0234e830-05ca-4106-b432-1e016d990283",
      "resource": {
        "resourceType": "Observation",
        "id": "0234e830-05ca-4106-b432-1e016d990283",
        "meta": {
          "profile": [
            "http://hl7.eu/fhir/laboratory/StructureDefinition/Observation-resultslab-eu-lab"
          ]
        },
        "performer": [
          {
            "display": "The Central European Lab"
          }
        ],
        "category": [
          {
            "coding": [
              {
                "system": "http://terminology.hl7.org/CodeSystem/observation-category",
                "code": "laboratory"
              }
            ]
          }
        ],
        "code": {
          "coding": [
            {
              "code": "2339-0",
              "system": "http://loinc.org",
              "display": "Glucose [Mass/volume] in Blood"
            }
          ],
          "text": "Glucose [Mass/volume] in Blood"
        },
        "valueQuantity": {
          "system": "http://unitsofmeasure.org",
          "value": 67.3,
          "unit": "mg/dL",
          "code": "mg/dL"
        },
        "referenceRange": [
          {
            "low": {
              "value": 70,
              "code": "mg/dL",
              "system": "http://unitsofmeasure.org"
            }
          },
          {
            "high": {
              "value": 140,
              "code": "mg/dL",
              "system": "http://unitsofmeasure.org"
            }
          }
        ],
        "interpretation": [
          {
            "coding": [
              {
                "code": "L",
                "system": "http://terminology.hl7.org/CodeSystem/v3-ObservationInterpretation",
                "display": "Low"
              }
            ]
          }
        ],
        "text": {
          "status": "generated",
          "div": "<div xmlns=\"http://www.w3.org/1999/xhtml\"><table class=\"hl7__eu__lab__report\"><tr><th>Test</th><th>24-Jan-2018</th><th>Reference&#xA0;Range</th><th>Unit</th></tr><tr><td>Glucose [Mass/volume] in Blood</td><td>67.3</td><td>70 - 140</td><td>L</td><td>mg/dL</td></tr></table></div>"
        },
        "status": "final",
        "subject": {
          "reference": "urn:uuid:b9162d81-fbeb-43e3-b111-2775887dd605",
          "display": "Jele Jurković"
        },
        "effectiveDateTime": "2018-01-24T18:07:38Z",
        "specimen": {
          "reference": "urn:uuid:9d9a2a78-160f-4703-91db-e07732ba040a"
        }
      }
    },
    {
      "fullUrl": "urn:uuid:d51ab127-a83e-4f79-891b-c4f37b684349",
      "resource": {
        "resourceType": "Observation",
        "id": "d51ab127-a83e-4f79-891b-c4f37b684349",
        "meta": {
          "profile": [
            "http://hl7.eu/fhir/laboratory/StructureDefinition/Observation-resultslab-eu-lab"
          ]
        },
        "performer": [
          {
            "display": "The Central European Lab"
          }
        ],
        "category": [
          {
            "coding": [
              {
                "system": "http://terminology.hl7.org/CodeSystem/observation-category",
                "code": "laboratory"
              }
            ]
          }
        ],
        "code": {
          "coding": [
            {
              "code": "6299-2",
              "system": "http://loinc.org",
              "display": "Urea nitrogen [Mass/volume] in Blood"
            }
          ],
          "text": "Urea nitrogen [Mass/volume] in Blood"
        },
        "valueQuantity": {
          "system": "http://unitsofmeasure.org",
          "value": 12.5,
          "unit": "mg/dL",
          "code": "mg/dL"
        },
        "referenceRange": [
          {
            "low": {
              "value": 7,
              "code": "mg/dL",
              "system": "http://unitsofmeasure.org"
            }
          },
          {
            "high": {
              "value": 50,
              "code": "mg/dL",
              "system": "http://unitsofmeasure.org"
            }
          }
        ],
        "text": {
          "status": "generated",
          "div": "<div xmlns=\"http://www.w3.org/1999/xhtml\"><table class=\"hl7__eu__lab__report\"><tr><th>Test</th><th>24-Jan-2018</th><th>Reference&#xA0;Range</th><th>Unit</th></tr><tr><td>Urea nitrogen [Mass/volume] in Blood</td><td>12.5</td><td>7 - 50</td><td></td><td>mg/dL</td></tr></table></div>"
        },
        "status": "final",
        "subject": {
          "reference": "urn:uuid:b9162d81-fbeb-43e3-b111-2775887dd605",
          "display": "Jele Jurković"
        },
        "effectiveDateTime": "2018-01-24T18:07:38Z",
        "specimen": {
          "reference": "urn:uuid:9d9a2a78-160f-4703-91db-e07732ba040a"
        }
      }
    },
    {
      "fullUrl": "urn:uuid:282f177c-5298-4560-b9f8-3dc8fedf0237",
      "resource": {
        "resourceType": "Observation",
        "id": "282f177c-5298-4560-b9f8-3dc8fedf0237",
        "meta": {
          "profile": [
            "http://hl7.eu/fhir/laboratory/StructureDefinition/Observation-resultslab-eu-lab"
          ]
        },
        "performer": [
          {
            "display": "The Central European Lab"
          }
        ],
        "category": [
          {
            "coding": [
              {
                "system": "http://terminology.hl7.org/CodeSystem/observation-category",
                "code": "laboratory"
              }
            ]
          }
        ],
        "code": {
          "coding": [
            {
              "code": "38483-4",
              "system": "http://loinc.org",
              "display": "Creatinine [Mass/volume] in Blood"
            }
          ],
          "text": "Creatinine [Mass/volume] in Blood"
        },
        "valueQuantity": {
          "system": "http://unitsofmeasure.org",
          "value": 0.7,
          "unit": "mg/dL",
          "code": "mg/dL"
        },
        "referenceRange": [
          {
            "low": {
              "value": 0.5,
              "code": "mg/dL",
              "system": "http://unitsofmeasure.org"
            }
          },
          {
            "high": {
              "value": 1.3,
              "code": "mg/dL",
              "system": "http://unitsofmeasure.org"
            }
          }
        ],
        "text": {
          "status": "generated",
          "div": "<div xmlns=\"http://www.w3.org/1999/xhtml\"><table class=\"hl7__eu__lab__report\"><tr><th>Test</th><th>24-Jan-2018</th><th>Reference&#xA0;Range</th><th>Unit</th></tr><tr><td>Creatinine [Mass/volume] in Blood</td><td>0.7</td><td>0.5 - 1.3</td><td></td><td>mg/dL</td></tr></table></div>"
        },
        "status": "final",
        "subject": {
          "reference": "urn:uuid:b9162d81-fbeb-43e3-b111-2775887dd605",
          "display": "Jele Jurković"
        },
        "effectiveDateTime": "2018-01-24T18:07:38Z",
        "specimen": {
          "reference": "urn:uuid:9d9a2a78-160f-4703-91db-e07732ba040a"
        }
      }
    },
    {
      "fullUrl": "urn:uuid:53431f4a-523d-4f8c-8c40-a76176fb0be9",
      "resource": {
        "resourceType": "Observation",
        "id": "53431f4a-523d-4f8c-8c40-a76176fb0be9",
        "meta": {
          "profile": [
            "http://hl7.eu/fhir/laboratory/StructureDefinition/Observation-resultslab-eu-lab"
          ]
        },
        "performer": [
          {
            "display": "The Central European Lab"
          }
        ],
        "category": [
          {
            "coding": [
              {
                "system": "http://terminology.hl7.org/CodeSystem/observation-category",
                "code": "laboratory"
              }
            ]
          }
        ],
        "code": {
          "coding": [
            {
              "code": "49765-1",
              "system": "http://loinc.org",
              "display": "Calcium [Mass/volume] in Blood"
            }
          ],
          "text": "Calcium [Mass/volume] in Blood"
        },
        "valueQuantity": {
          "system": "http://unitsofmeasure.org",
          "value": 8.9,
          "unit": "mg/dL",
          "code": "mg/dL"
        },
        "referenceRange": [
          {
            "low": {
              "value": 8.5,
              "code": "mg/dL",
              "system": "http://unitsofmeasure.org"
            }
          },
          {
            "high": {
              "value": 10.4,
              "code": "mg/dL",
              "system": "http://unitsofmeasure.org"
            }
          }
        ],
        "text": {
          "status": "generated",
          "div": "<div xmlns=\"http://www.w3.org/1999/xhtml\"><table class=\"hl7__eu__lab__report\"><tr><th>Test</th><th>24-Jan-2018</th><th>Reference&#xA0;Range</th><th>Unit</th></tr><tr><td>Calcium [Mass/volume] in Blood</td><td>8.9</td><td>8.5 - 10.4</td><td></td><td>mg/dL</td></tr></table></div>"
        },
        "status": "final",
        "subject": {
          "reference": "urn:uuid:b9162d81-fbeb-43e3-b111-2775887dd605",
          "display": "Jele Jurković"
        },
        "effectiveDateTime": "2018-01-24T18:07:38Z",
        "specimen": {
          "reference": "urn:uuid:9d9a2a78-160f-4703-91db-e07732ba040a"
        }
      }
    },
    {
      "fullUrl": "urn:uuid:06c94fdd-97b8-4659-8524-15fd43176be4",
      "resource": {
        "resourceType": "Observation",
        "id": "06c94fdd-97b8-4659-8524-15fd43176be4",
        "meta": {
          "profile": [
            "http://hl7.eu/fhir/laboratory/StructureDefinition/Observation-resultslab-eu-lab"
          ]
        },
        "performer": [
          {
            "display": "The Central European Lab"
          }
        ],
        "category": [
          {
            "coding": [
              {
                "system": "http://terminology.hl7.org/CodeSystem/observation-category",
                "code": "laboratory"
              }
            ]
          }
        ],
        "code": {
          "coding": [
            {
              "code": "2947-0",
              "system": "http://loinc.org",
              "display": "Sodium [Moles/volume] in Blood"
            }
          ],
          "text": "Sodium [Moles/volume] in Blood"
        },
        "valueQuantity": {
          "system": "http://unitsofmeasure.org",
          "value": 142.8,
          "unit": "mmol/L",
          "code": "mmol/L"
        },
        "referenceRange": [
          {
            "low": {
              "value": 135,
              "code": "mmol/L",
              "system": "http://unitsofmeasure.org"
            }
          },
          {
            "high": {
              "value": 145,
              "code": "mmol/L",
              "system": "http://unitsofmeasure.org"
            }
          }
        ],
        "text": {
          "status": "generated",
          "div": "<div xmlns=\"http://www.w3.org/1999/xhtml\"><table class=\"hl7__eu__lab__report\"><tr><th>Test</th><th>24-Jan-2018</th><th>Reference&#xA0;Range</th><th>Unit</th></tr><tr><td>Sodium [Moles/volume] in Blood</td><td>142.8</td><td>135 - 145</td><td></td><td>mmol/L</td></tr></table></div>"
        },
        "status": "final",
        "subject": {
          "reference": "urn:uuid:b9162d81-fbeb-43e3-b111-2775887dd605",
          "display": "Jele Jurković"
        },
        "effectiveDateTime": "2018-01-24T18:07:38Z",
        "specimen": {
          "reference": "urn:uuid:9d9a2a78-160f-4703-91db-e07732ba040a"
        }
      }
    },
    {
      "fullUrl": "urn:uuid:42d79b3d-2680-4723-bd77-4e4e326bca8f",
      "resource": {
        "resourceType": "Observation",
        "id": "42d79b3d-2680-4723-bd77-4e4e326bca8f",
        "meta": {
          "profile": [
            "http://hl7.eu/fhir/laboratory/StructureDefinition/Observation-resultslab-eu-lab"
          ]
        },
        "performer": [
          {
            "display": "The Central European Lab"
          }
        ],
        "category": [
          {
            "coding": [
              {
                "system": "http://terminology.hl7.org/CodeSystem/observation-category",
                "code": "laboratory"
              }
            ]
          }
        ],
        "code": {
          "coding": [
            {
              "code": "6298-4",
              "system": "http://loinc.org",
              "display": "Potassium [Moles/volume] in Blood"
            }
          ],
          "text": "Potassium [Moles/volume] in Blood"
        },
        "valueQuantity": {
          "system": "http://unitsofmeasure.org",
          "value": 4.5,
          "unit": "mmol/L",
          "code": "mmol/L"
        },
        "referenceRange": [
          {
            "low": {
              "value": 3.5,
              "code": "mmol/L",
              "system": "http://unitsofmeasure.org"
            }
          },
          {
            "high": {
              "value": 5.3,
              "code": "mmol/L",
              "system": "http://unitsofmeasure.org"
            }
          }
        ],
        "text": {
          "status": "generated",
          "div": "<div xmlns=\"http://www.w3.org/1999/xhtml\"><table class=\"hl7__eu__lab__report\"><tr><th>Test</th><th>24-Jan-2018</th><th>Reference&#xA0;Range</th><th>Unit</th></tr><tr><td>Potassium [Moles/volume] in Blood</td><td>4.5</td><td>3.5 - 5.3</td><td></td><td>mmol/L</td></tr></table></div>"
        },
        "status": "final",
        "subject": {
          "reference": "urn:uuid:b9162d81-fbeb-43e3-b111-2775887dd605",
          "display": "Jele Jurković"
        },
        "effectiveDateTime": "2018-01-24T18:07:38Z",
        "specimen": {
          "reference": "urn:uuid:9d9a2a78-160f-4703-91db-e07732ba040a"
        }
      }
    },
    {
      "fullUrl": "urn:uuid:eebb3412-26d8-46ea-a7c3-687c47e8f6e5",
      "resource": {
        "resourceType": "Observation",
        "id": "eebb3412-26d8-46ea-a7c3-687c47e8f6e5",
        "meta": {
          "profile": [
            "http://hl7.eu/fhir/laboratory/StructureDefinition/Observation-resultslab-eu-lab"
          ]
        },
        "performer": [
          {
            "display": "The Central European Lab"
          }
        ],
        "category": [
          {
            "coding": [
              {
                "system": "http://terminology.hl7.org/CodeSystem/observation-category",
                "code": "laboratory"
              }
            ]
          }
        ],
        "code": {
          "coding": [
            {
              "code": "2069-3",
              "system": "http://loinc.org",
              "display": "Chloride [Moles/volume] in Blood"
            }
          ],
          "text": "Chloride [Moles/volume] in Blood"
        },
        "valueQuantity": {
          "system": "http://unitsofmeasure.org",
          "value": 107,
          "unit": "mmol/L",
          "code": "mmol/L"
        },
        "referenceRange": [
          {
            "low": {
              "value": 98,
              "code": "mmol/L",
              "system": "http://unitsofmeasure.org"
            }
          },
          {
            "high": {
              "value": 110,
              "code": "mmol/L",
              "system": "http://unitsofmeasure.org"
            }
          }
        ],
        "text": {
          "status": "generated",
          "div": "<div xmlns=\"http://www.w3.org/1999/xhtml\"><table class=\"hl7__eu__lab__report\"><tr><th>Test</th><th>24-Jan-2018</th><th>Reference&#xA0;Range</th><th>Unit</th></tr><tr><td>Chloride [Moles/volume] in Blood</td><td>107.0</td><td>98 - 110</td><td></td><td>mmol/L</td></tr></table></div>"
        },
        "status": "final",
        "subject": {
          "reference": "urn:uuid:b9162d81-fbeb-43e3-b111-2775887dd605",
          "display": "Jele Jurković"
        },
        "effectiveDateTime": "2018-01-24T18:07:38Z",
        "specimen": {
          "reference": "urn:uuid:9d9a2a78-160f-4703-91db-e07732ba040a"
        }
      }
    },
    {
      "fullUrl": "urn:uuid:959d10b0-7a3e-496b-af55-022fad005869",
      "resource": {
        "resourceType": "Observation",
        "id": "959d10b0-7a3e-496b-af55-022fad005869",
        "meta": {
          "profile": [
            "http://hl7.eu/fhir/laboratory/StructureDefinition/Observation-resultslab-eu-lab"
          ]
        },
        "performer": [
          {
            "display": "The Central European Lab"
          }
        ],
        "category": [
          {
            "coding": [
              {
                "system": "http://terminology.hl7.org/CodeSystem/observation-category",
                "code": "laboratory"
              }
            ]
          }
        ],
        "code": {
          "coding": [
            {
              "code": "20565-8",
              "system": "http://loinc.org",
              "display": "Carbon dioxide, total [Moles/volume] in Blood"
            }
          ],
          "text": "Carbon dioxide, total [Moles/volume] in Blood"
        },
        "valueQuantity": {
          "system": "http://unitsofmeasure.org",
          "value": 20.3,
          "unit": "mmol/L",
          "code": "mmol/L"
        },
        "referenceRange": [
          {
            "low": {
              "value": 22,
              "code": "mmol/L",
              "system": "http://unitsofmeasure.org"
            }
          },
          {
            "high": {
              "value": 32,
              "code": "mmol/L",
              "system": "http://unitsofmeasure.org"
            }
          }
        ],
        "interpretation": [
          {
            "coding": [
              {
                "code": "L",
                "system": "http://terminology.hl7.org/CodeSystem/v3-ObservationInterpretation",
                "display": "Low"
              }
            ]
          }
        ],
        "text": {
          "status": "generated",
          "div": "<div xmlns=\"http://www.w3.org/1999/xhtml\"><table class=\"hl7__eu__lab__report\"><tr><th>Test</th><th>24-Jan-2018</th><th>Reference&#xA0;Range</th><th>Unit</th></tr><tr><td>Carbon dioxide, total [Moles/volume] in Blood</td><td>20.3</td><td>22 - 32</td><td>L</td><td>mmol/L</td></tr></table></div>"
        },
        "status": "final",
        "subject": {
          "reference": "urn:uuid:b9162d81-fbeb-43e3-b111-2775887dd605",
          "display": "Jele Jurković"
        },
        "effectiveDateTime": "2018-01-24T18:07:38Z",
        "specimen": {
          "reference": "urn:uuid:9d9a2a78-160f-4703-91db-e07732ba040a"
        }
      }
    },
    {
      "fullUrl": "urn:uuid:2182fb28-5f39-4c92-bea4-4b0b01e5c019",
      "resource": {
        "resourceType": "Device",
        "id": "2182fb28-5f39-4c92-bea4-4b0b01e5c019",
        "deviceName": [
          {
            "name": "SYNDERAI Synthetic Generator",
            "type": "manufacturer-name"
          }
        ],
        "version": [
          {
            "value": "5.0"
          }
        ],
        "text": {
          "status": "generated",
          "div": "<div xmlns=\"http://www.w3.org/1999/xhtml\">SYNDERAI Synthetic Generator v5.0</div>"
        },
        "status": "active\"",
        "distinctIdentifier": "synderai-generator-50",
        "manufacturer": "SYNDERAI Project"
      }
    },
    {
      "fullUrl": "urn:uuid:38871905-30a2-4e2f-b054-8ca5214f53d5",
      "resource": {
        "resourceType": "Provenance",
        "id": "38871905-30a2-4e2f-b054-8ca5214f53d5",
        "target": [
          {
            "reference": "Patient/b9162d81-fbeb-43e3-b111-2775887dd605"
          },
          {
            "reference": "Bundle/1123d2b1-b362-4963-b38b-68c015596cc2"
          },
          {
            "reference": "Composition/233bde5e-1798-430e-ac7f-36c1d90d1bf6"
          },
          {
            "reference": "PractitionerRole/d6106857-7fc6-4ef2-9f52-b6d3c0d687ad"
          },
          {
            "reference": "Practitioner/0c675257-a925-4b21-87b2-d1547223cb86"
          },
          {
            "reference": "PractitionerRole/32e61c2a-061d-4898-a238-4599cd055552"
          },
          {
            "reference": "Organization/206358b4-8c37-4e81-b7a4-cbc351bdfaa4"
          }
        ],
        "activity": {
          "text": "Synthetic Example Data Generation"
        },
        "policy": [
          "https://synderai.net/synderai-synthetic-data-policy"
        ],
        "agent": [
          {
            "type": {
              "text": "author"
            },
            "who": {
              "reference": "Device/2182fb28-5f39-4c92-bea4-4b0b01e5c019"
            }
          }
        ],
        "reason": [
          {
            "text": "Interoperability Testing and Training (non-clinical use)"
          }
        ],
        "text": {
          "status": "generated",
          "div": "<div xmlns=\"http://www.w3.org/1999/xhtml\">Provenance for SYNDERAI Synthetic Example Data Resource</div>"
        },
        "recorded": "2018-01-24T19:07:38Z"
      }
    },
    {
      "fullUrl": "urn:uuid:d6106857-7fc6-4ef2-9f52-b6d3c0d687ad",
      "resource": {
        "resourceType": "PractitionerRole",
        "id": "d6106857-7fc6-4ef2-9f52-b6d3c0d687ad",
        "meta": {
          "profile": [
            "http://hl7.eu/fhir/base/StructureDefinition/practitionerRole-eu"
          ]
        },
        "text": {
          "status": "generated",
          "div": "<div xmlns=\"http://www.w3.org/1999/xhtml\">Laboratory Role Id: d6106857-7fc6-4ef2-9f52-b6d3c0d687ad</div>"
        },
        "practitioner": {
          "reference": "urn:uuid:0c675257-a925-4b21-87b2-d1547223cb86"
        }
      }
    },
    {
      "fullUrl": "urn:uuid:0c675257-a925-4b21-87b2-d1547223cb86",
      "resource": {
        "resourceType": "Practitioner",
        "id": "0c675257-a925-4b21-87b2-d1547223cb86",
        "meta": {
          "profile": [
            "http://hl7.eu/fhir/base/StructureDefinition/practitioner-eu"
          ]
        },
        "identifier": [
          {
            "assigner": {
              "display": "HL7 Europe"
            },
            "system": "urn:oid:2.16.840.1.113883.2.51.999",
            "value": "f7198ce2-4faf-400d-b750-fe56f127a7a3"
          }
        ],
        "name": [
          {
            "prefix": [
              "dr"
            ],
            "given": [
              "Ex"
            ],
            "family": "Ample"
          }
        ],
        "address": [
          {
            "line": [
              "Laboratoire Central Européenne",
              "Boulevard du Jardin Botanique 32"
            ],
            "postalCode": "1000",
            "city": "Brussels",
            "country": "Belgium"
          }
        ],
        "text": {
          "status": "generated",
          "div": "<div xmlns=\"http://www.w3.org/1999/xhtml\">Laboratory: Laboratoire Central Européenne, 1000 Brussels, Belgium</div>"
        }
      }
    }
  ],
  "type": "document",
  "timestamp": "2018-01-24T19:07:38Z"
}
