{
  "resourceType": "Bundle",
  "id": "d71a5db1-aaf5-4f94-b768-3f5a2c406360",
  "meta": {
    "profile": [
      "http://hl7.eu/fhir/laboratory/StructureDefinition/Bundle-eu-lab"
    ]
  },
  "identifier": {
    "assigner": {
      "display": "HL7 Europe"
    },
    "system": "urn:oid:2.16.840.1.113883.2.51.999",
    "value": "a2e3d57b-3174-431f-86e5-f41448d1880f"
  },
  "entry": [
    {
      "fullUrl": "urn:uuid:ad552278-9409-4ab2-b0c4-92eb89e63699",
      "resource": {
        "resourceType": "Composition",
        "id": "ad552278-9409-4ab2-b0c4-92eb89e63699",
        "meta": {
          "profile": [
            "http://hl7.eu/fhir/laboratory/StructureDefinition/Composition-eu-lab"
          ]
        },
        "identifier": {
          "assigner": {
            "display": "HL7 Europe"
          },
          "system": "urn:oid:2.16.840.1.113883.2.51.999",
          "value": "fc59a18b-f14a-4f5e-824e-55d85cce90d0"
        },
        "author": [
          {
            "reference": "urn:uuid:19462b28-1960-4a6a-b8f5-86e1300d06ff"
          }
        ],
        "category": [
          {
            "coding": [
              {
                "code": "26436-6",
                "system": "http://loinc.org",
                "display": "Laboratory studies (set)"
              }
            ]
          }
        ],
        "type": {
          "coding": [
            {
              "code": "11502-2",
              "system": "http://loinc.org",
              "display": "Laboratory report"
            }
          ],
          "text": "Laboratory Report"
        },
        "section": [
          {
            "code": {
              "coding": [
                {
                  "code": "26436-6",
                  "system": "http://loinc.org",
                  "display": "Laboratory studies (set)"
                }
              ],
              "text": "Laboratory studies"
            },
            "section": [
              {
                "code": {
                  "coding": [
                    {
                      "code": "$18719-5",
                      "system": "http://loinc.org",
                      "display": "Chemistry studies (set)"
                    }
                  ],
                  "text": "Chemistry"
                },
                "entry": [
                  {
                    "reference": "urn:uuid:cc8ebcda-8383-481e-9589-f2420307c085"
                  },
                  {
                    "reference": "urn:uuid:6e8da045-15fc-4418-818a-5c8527c52673"
                  },
                  {
                    "reference": "urn:uuid:d156f98a-cf73-45cc-ba71-e2777f46295c"
                  },
                  {
                    "reference": "urn:uuid:859c907d-f531-4391-b62f-ef861eee9ebd"
                  },
                  {
                    "reference": "urn:uuid:d049196d-2af7-4246-86be-f2adc046b3e6"
                  },
                  {
                    "reference": "urn:uuid:92fbc49b-6b6e-41c1-8655-eec4a6604f03"
                  },
                  {
                    "reference": "urn:uuid:3a51a57c-9b35-4615-acde-6414eb5b918a"
                  },
                  {
                    "reference": "urn:uuid:c3b7c2b4-f79d-428c-af85-f2d2523f9691"
                  },
                  {
                    "reference": "urn:uuid:e83b12e9-f587-41d3-831e-c2a04c9889c7"
                  }
                ],
                "text": {
                  "status": "generated",
                  "div": "<div xmlns=\"http://www.w3.org/1999/xhtml\"><h3>Chemistry</h3><table class=\"hl7__eu__lab__report\"><thead><tr><th>Test</th><th>09-APR-2023</th><th>Reference&#xA0;Range</th><th>Unit</th></tr></thead><tbody><tr><td>Hemoglobin A1c/Hemoglobin.total in Blood</td><td><strong>6.3 H</strong></td><td>4.8 - 5.7</td><td>%</td></tr><tr><td>Glucose [Mass/volume] in Blood</td><td>92.2</td><td>70 - 140</td><td>mg/dL</td></tr><tr><td>Urea nitrogen [Mass/volume] in Blood</td><td>16.9</td><td>7 - 20</td><td>mg/dL</td></tr><tr><td>Creatinine [Mass/volume] in Blood</td><td>1.2</td><td>0.6 - 1.2</td><td>mg/dL</td></tr><tr><td>Calcium [Mass/volume] in Blood</td><td>8.8</td><td>8.5 - 10.4</td><td>mg/dL</td></tr><tr><td>Sodium [Moles/volume] in Blood</td><td>141.7</td><td>135 - 145</td><td>mmol/L</td></tr><tr><td>Potassium [Moles/volume] in Blood</td><td>5.1</td><td>3.5 - 5.1</td><td>mmol/L</td></tr><tr><td>Chloride [Moles/volume] in Blood</td><td>105.0</td><td>98 - 107</td><td>mmol/L</td></tr><tr><td>Carbon dioxide, total [Moles/volume] in Blood</td><td>23.2</td><td>22 - 29</td><td>mmol/L</td></tr></tbody></table></div>"
                },
                "title": "Chemistry"
              }
            ],
            "title": "Laboratory Report"
          },
          {
            "text": {
              "status": "generated",
              "div": "<div xmlns=\"http://www.w3.org/1999/xhtml\"><h3>Annotation</h3><table class=\"hl7__eu__lab__report\"><tr><th>Conclusion and Recommendations based on this report and previous findings known to us</th></tr><tr><td>The only abnormal finding is a mildly elevated HbA1c (6.3%), indicating impaired glucose metabolism or possible prediabetes/early diabetes, despite a normal fasting glucose. Renal function, electrolytes, and other parameters are within normal limits. Recommend clinical correlation and consideration of further evaluation for glycemic control.</td></tr></table></div>"
            },
            "code": {
              "coding": [
                {
                  "system": "http://loinc.org",
                  "code": "48767-8",
                  "display": "Annotation comment"
                }
              ]
            },
            "title": "Annotation comment"
          }
        ],
        "status": "final",
        "subject": {
          "reference": "urn:uuid:b28fa40e-5d7b-4361-b35e-d6d67d379b33",
          "display": "Katy Johnston"
        },
        "date": "2023-04-09T11:58:49Z",
        "title": "Laboratory Report",
        "confidentiality": "N"
      }
    },
    {
      "fullUrl": "urn:uuid:5b4a9069-3117-43b7-b097-9aa703af0441",
      "resource": {
        "resourceType": "DiagnosticReport",
        "id": "5b4a9069-3117-43b7-b097-9aa703af0441",
        "meta": {
          "profile": [
            "http://hl7.eu/fhir/laboratory/StructureDefinition/DiagnosticReport-eu-lab"
          ]
        },
        "identifier": [
          {
            "assigner": {
              "display": "HL7 Europe"
            },
            "system": "urn:oid:2.16.840.1.113883.2.51.999",
            "value": "13f60bc3-5a4b-43b3-8409-c311d5f4cb0e"
          }
        ],
        "extension": [
          {
            "url": "http://hl7.org/fhir/5.0/StructureDefinition/extension-DiagnosticReport.composition",
            "valueReference": {
              "reference": "urn:uuid:fc59a18b-f14a-4f5e-824e-55d85cce90d0"
            }
          }
        ],
        "category": [
          {
            "coding": [
              {
                "code": "26436-6",
                "system": "http://loinc.org",
                "display": "Laboratory studies (set)"
              }
            ]
          }
        ],
        "specimen": [
          {
            "reference": "urn:uuid:bc0ba909-cc0e-4eb0-8cd7-d0293d2131de"
          }
        ],
        "result": [
          {
            "reference": "urn:uuid:cc8ebcda-8383-481e-9589-f2420307c085"
          },
          {
            "reference": "urn:uuid:6e8da045-15fc-4418-818a-5c8527c52673"
          },
          {
            "reference": "urn:uuid:d156f98a-cf73-45cc-ba71-e2777f46295c"
          },
          {
            "reference": "urn:uuid:859c907d-f531-4391-b62f-ef861eee9ebd"
          },
          {
            "reference": "urn:uuid:d049196d-2af7-4246-86be-f2adc046b3e6"
          },
          {
            "reference": "urn:uuid:92fbc49b-6b6e-41c1-8655-eec4a6604f03"
          },
          {
            "reference": "urn:uuid:3a51a57c-9b35-4615-acde-6414eb5b918a"
          },
          {
            "reference": "urn:uuid:c3b7c2b4-f79d-428c-af85-f2d2523f9691"
          },
          {
            "reference": "urn:uuid:e83b12e9-f587-41d3-831e-c2a04c9889c7"
          }
        ],
        "status": "registered",
        "code": {
          "coding": [
            {
              "code": "11502-2",
              "system": "http://loinc.org",
              "display": "Laboratory report"
            }
          ]
        },
        "subject": {
          "reference": "urn:uuid:b28fa40e-5d7b-4361-b35e-d6d67d379b33",
          "display": "Katy Johnston"
        }
      }
    },
    {
      "fullUrl": "urn:uuid:b28fa40e-5d7b-4361-b35e-d6d67d379b33",
      "resource": {
        "resourceType": "Patient",
        "id": "b28fa40e-5d7b-4361-b35e-d6d67d379b33",
        "meta": {
          "security": [
            {
              "system": "http://terminology.hl7.org/CodeSystem/v3-ActReason",
              "code": "HTEST"
            },
            {
              "system": "http://terminology.hl7.org/CodeSystem/v3-ActReason",
              "code": "TRAIN"
            }
          ],
          "tag": [
            {
              "system": "https://synderai.net/fhir/CodeSystem/tags",
              "code": "synthetic",
              "display": "SYNDERAI Synthetic data"
            }
          ],
          "profile": [
            "http://hl7.eu/fhir/base/StructureDefinition/patient-eu-core"
          ]
        },
        "identifier": [
          {
            "type": {
              "coding": [
                {
                  "code": "PT",
                  "system": "http://terminology.hl7.org/CodeSystem/v2-0203"
                }
              ]
            },
            "system": "http://ec.europa.eu/identifier/eci",
            "value": "1854-452946-6"
          },
          {
            "type": {
              "coding": [
                {
                  "code": "MR",
                  "system": "http://terminology.hl7.org/CodeSystem/v2-0203"
                }
              ]
            },
            "system": "http://local.setting.eu/identifier",
            "value": "f94741cf-8405-9657-1aec-b3bd1788b46e"
          }
        ],
        "name": [
          {
            "family": "Johnston"
          },
          {
            "given": [
              "Katy"
            ]
          },
          {
            "text": "Katy Johnston"
          }
        ],
        "address": [
          {
            "line": [
              "Flat 16f",
              "Stokes roads"
            ],
            "use": "home",
            "type": "physical",
            "postalCode": "E1",
            "city": "London",
            "country": "United Kingdom"
          }
        ],
        "telecom": [
          {
            "system": "phone",
            "value": "+44808 1570256"
          }
        ],
        "extension": [
          {
            "url": "http://hl7.org/fhir/StructureDefinition/patient-nationality",
            "valueCodeableConcept": {
              "coding": [
                {
                  "code": "GB",
                  "system": "http://hl7.org/fhir/ValueSet/country"
                }
              ]
            }
          }
        ],
        "text": {
          "status": "generated",
          "div": "<div xmlns=\"http://www.w3.org/1999/xhtml\"><table class=\"hl7__ips\"><tr><td>Katy Johnston</td><td>female</td><td>19-Sep-1988</td></tr></table></div>"
        },
        "gender": "female",
        "birthDate": "1988-09-19"
      }
    },
    {
      "fullUrl": "urn:uuid:8a181ea5-34c2-43d5-a360-6f12c59aeb01",
      "resource": {
        "resourceType": "ServiceRequest",
        "id": "8a181ea5-34c2-43d5-a360-6f12c59aeb01",
        "meta": {
          "profile": [
            "http://hl7.eu/fhir/laboratory/StructureDefinition/ServiceRequest-eu-lab"
          ]
        },
        "identifier": [
          {
            "system": "http://example.org",
            "value": "916e93c5-9609-44e6-99d4-8b552ef1b7e3"
          }
        ],
        "specimen": [
          {
            "reference": "urn:uuid:bc0ba909-cc0e-4eb0-8cd7-d0293d2131de"
          }
        ],
        "reasonCode": [
          {
            "coding": [
              {
                "code": "284549007",
                "system": "http://snomed.info/sct",
                "display": "Laceration of hand"
              }
            ]
          },
          {
            "coding": [
              {
                "code": "312608009",
                "system": "http://snomed.info/sct",
                "display": "Laceration - injury"
              }
            ]
          },
          {
            "coding": [
              {
                "code": "15777000",
                "system": "http://snomed.info/sct",
                "display": "Prediabetes"
              }
            ]
          },
          {
            "coding": [
              {
                "code": "271737000",
                "system": "http://snomed.info/sct",
                "display": "Anemia"
              }
            ]
          },
          {
            "coding": [
              {
                "code": "203082005",
                "system": "http://snomed.info/sct",
                "display": "Fibromyalgia"
              }
            ]
          },
          {
            "coding": [
              {
                "code": "6525002",
                "system": "http://snomed.info/sct",
                "display": "Dependent drug abuse"
              }
            ]
          },
          {
            "coding": [
              {
                "code": "124171000119105",
                "system": "http://snomed.info/sct",
                "display": "Chronic intractable migraine without aura"
              }
            ]
          },
          {
            "coding": [
              {
                "code": "196416002",
                "system": "http://snomed.info/sct",
                "display": "Impacted molars"
              }
            ]
          }
        ],
        "status": "active",
        "intent": "order",
        "code": {
          "coding": [
            {
              "code": "108252007",
              "system": "http://snomed.info/sct",
              "display": "Laboratory procedure"
            }
          ]
        },
        "subject": {
          "reference": "urn:uuid:b28fa40e-5d7b-4361-b35e-d6d67d379b33",
          "display": "Katy Johnston"
        },
        "requester": {
          "reference": "urn:uuid:bc16a029-7f70-49d3-ab90-bc34dee0c44c"
        }
      }
    },
    {
      "fullUrl": "urn:uuid:bc16a029-7f70-49d3-ab90-bc34dee0c44c",
      "resource": {
        "resourceType": "PractitionerRole",
        "id": "bc16a029-7f70-49d3-ab90-bc34dee0c44c",
        "meta": {
          "profile": [
            "http://hl7.eu/fhir/base/StructureDefinition/practitionerRole-eu"
          ]
        },
        "text": {
          "status": "generated",
          "div": "<div xmlns=\"http://www.w3.org/1999/xhtml\">Provider Role Id: bc16a029-7f70-49d3-ab90-bc34dee0c44c</div>"
        },
        "organization": {
          "reference": "urn:uuid:bac6b331-228e-484f-afab-6ce31ba79693"
        }
      }
    },
    {
      "fullUrl": "urn:uuid:bac6b331-228e-484f-afab-6ce31ba79693",
      "resource": {
        "resourceType": "Organization",
        "id": "bac6b331-228e-484f-afab-6ce31ba79693",
        "meta": {
          "profile": [
            "http://hl7.eu/fhir/base/StructureDefinition/organization-eu"
          ]
        },
        "identifier": [
          {
            "assigner": {
              "display": "HL7 Europe"
            },
            "system": "urn:oid:2.16.840.1.113883.2.51.999",
            "value": "fd51d755-cdfa-4a22-85a0-7091266f2e22"
          }
        ],
        "address": [
          {
            "city": "London",
            "postalCode": "SE1 7",
            "country": "United Kingdom"
          }
        ],
        "text": {
          "status": "generated",
          "div": "<div xmlns=\"http://www.w3.org/1999/xhtml\">Provider Organization: Evelina Children&#039;s Hospital</div>"
        },
        "name": "Evelina Children&#039;s Hospital"
      }
    },
    {
      "fullUrl": "urn:uuid:bc0ba909-cc0e-4eb0-8cd7-d0293d2131de",
      "resource": {
        "resourceType": "Specimen",
        "id": "bc0ba909-cc0e-4eb0-8cd7-d0293d2131de",
        "meta": {
          "profile": [
            "http://hl7.eu/fhir/laboratory/StructureDefinition/Specimen-eu-lab"
          ]
        },
        "collection": {
          "collectedDateTime": "2023-04-09"
        },
        "text": {
          "status": "generated",
          "div": "<div xmlns=\"http://www.w3.org/1999/xhtml\"><table class=\"hl7__eu__lab__report\"><tr><th>Specimen</th><th>Collection Date</th></tr><tr><td>Whole blood specimen (specimen)</td><td><span class=\"nb\">09-Apr-2023</span></td></tr></table></div>"
        },
        "type": {
          "coding": [
            {
              "code": "258580003",
              "system": "http://snomed.info/sct",
              "display": "Whole blood specimen (specimen)"
            }
          ]
        }
      }
    },
    {
      "fullUrl": "urn:uuid:cc8ebcda-8383-481e-9589-f2420307c085",
      "resource": {
        "resourceType": "Observation",
        "id": "cc8ebcda-8383-481e-9589-f2420307c085",
        "meta": {
          "profile": [
            "http://hl7.eu/fhir/laboratory/StructureDefinition/Observation-resultslab-eu-lab"
          ]
        },
        "performer": [
          {
            "display": "The Central European Lab"
          }
        ],
        "category": [
          {
            "coding": [
              {
                "system": "http://terminology.hl7.org/CodeSystem/observation-category",
                "code": "laboratory"
              }
            ]
          }
        ],
        "code": {
          "coding": [
            {
              "code": "4548-4",
              "system": "http://loinc.org",
              "display": "Hemoglobin A1c/Hemoglobin.total in Blood"
            }
          ],
          "text": "Hemoglobin A1c/Hemoglobin.total in Blood"
        },
        "valueQuantity": {
          "system": "http://unitsofmeasure.org",
          "value": 6.3,
          "unit": "%",
          "code": "%"
        },
        "referenceRange": [
          {
            "low": {
              "value": 4.8,
              "code": "%",
              "system": "http://unitsofmeasure.org"
            }
          },
          {
            "high": {
              "value": 5.7,
              "code": "%",
              "system": "http://unitsofmeasure.org"
            }
          }
        ],
        "interpretation": [
          {
            "coding": [
              {
                "code": "H",
                "system": "http://terminology.hl7.org/CodeSystem/v3-ObservationInterpretation",
                "display": "High"
              }
            ]
          }
        ],
        "text": {
          "status": "generated",
          "div": "<div xmlns=\"http://www.w3.org/1999/xhtml\"><table class=\"hl7__eu__lab__report\"><tr><th>Test</th><th>09-Apr-2023</th><th>Reference&#xA0;Range</th><th>Unit</th></tr><tr><td>Hemoglobin A1c/Hemoglobin.total in Blood</td><td>6.3</td><td>4.8 - 5.7</td><td>H</td><td>%</td></tr></table></div>"
        },
        "status": "final",
        "subject": {
          "reference": "urn:uuid:b28fa40e-5d7b-4361-b35e-d6d67d379b33",
          "display": "Katy Johnston"
        },
        "effectiveDateTime": "2023-04-09T09:58:49Z",
        "specimen": {
          "reference": "urn:uuid:bc0ba909-cc0e-4eb0-8cd7-d0293d2131de"
        }
      }
    },
    {
      "fullUrl": "urn:uuid:6e8da045-15fc-4418-818a-5c8527c52673",
      "resource": {
        "resourceType": "Observation",
        "id": "6e8da045-15fc-4418-818a-5c8527c52673",
        "meta": {
          "profile": [
            "http://hl7.eu/fhir/laboratory/StructureDefinition/Observation-resultslab-eu-lab"
          ]
        },
        "performer": [
          {
            "display": "The Central European Lab"
          }
        ],
        "category": [
          {
            "coding": [
              {
                "system": "http://terminology.hl7.org/CodeSystem/observation-category",
                "code": "laboratory"
              }
            ]
          }
        ],
        "code": {
          "coding": [
            {
              "code": "2339-0",
              "system": "http://loinc.org",
              "display": "Glucose [Mass/volume] in Blood"
            }
          ],
          "text": "Glucose [Mass/volume] in Blood"
        },
        "valueQuantity": {
          "system": "http://unitsofmeasure.org",
          "value": 92.2,
          "unit": "mg/dL",
          "code": "mg/dL"
        },
        "referenceRange": [
          {
            "low": {
              "value": 70,
              "code": "mg/dL",
              "system": "http://unitsofmeasure.org"
            }
          },
          {
            "high": {
              "value": 140,
              "code": "mg/dL",
              "system": "http://unitsofmeasure.org"
            }
          }
        ],
        "text": {
          "status": "generated",
          "div": "<div xmlns=\"http://www.w3.org/1999/xhtml\"><table class=\"hl7__eu__lab__report\"><tr><th>Test</th><th>09-Apr-2023</th><th>Reference&#xA0;Range</th><th>Unit</th></tr><tr><td>Glucose [Mass/volume] in Blood</td><td>92.2</td><td>70 - 140</td><td></td><td>mg/dL</td></tr></table></div>"
        },
        "status": "final",
        "subject": {
          "reference": "urn:uuid:b28fa40e-5d7b-4361-b35e-d6d67d379b33",
          "display": "Katy Johnston"
        },
        "effectiveDateTime": "2023-04-09T09:58:49Z",
        "specimen": {
          "reference": "urn:uuid:bc0ba909-cc0e-4eb0-8cd7-d0293d2131de"
        }
      }
    },
    {
      "fullUrl": "urn:uuid:d156f98a-cf73-45cc-ba71-e2777f46295c",
      "resource": {
        "resourceType": "Observation",
        "id": "d156f98a-cf73-45cc-ba71-e2777f46295c",
        "meta": {
          "profile": [
            "http://hl7.eu/fhir/laboratory/StructureDefinition/Observation-resultslab-eu-lab"
          ]
        },
        "performer": [
          {
            "display": "The Central European Lab"
          }
        ],
        "category": [
          {
            "coding": [
              {
                "system": "http://terminology.hl7.org/CodeSystem/observation-category",
                "code": "laboratory"
              }
            ]
          }
        ],
        "code": {
          "coding": [
            {
              "code": "6299-2",
              "system": "http://loinc.org",
              "display": "Urea nitrogen [Mass/volume] in Blood"
            }
          ],
          "text": "Urea nitrogen [Mass/volume] in Blood"
        },
        "valueQuantity": {
          "system": "http://unitsofmeasure.org",
          "value": 16.9,
          "unit": "mg/dL",
          "code": "mg/dL"
        },
        "referenceRange": [
          {
            "low": {
              "value": 7,
              "code": "mg/dL",
              "system": "http://unitsofmeasure.org"
            }
          },
          {
            "high": {
              "value": 20,
              "code": "mg/dL",
              "system": "http://unitsofmeasure.org"
            }
          }
        ],
        "text": {
          "status": "generated",
          "div": "<div xmlns=\"http://www.w3.org/1999/xhtml\"><table class=\"hl7__eu__lab__report\"><tr><th>Test</th><th>09-Apr-2023</th><th>Reference&#xA0;Range</th><th>Unit</th></tr><tr><td>Urea nitrogen [Mass/volume] in Blood</td><td>16.9</td><td>7 - 20</td><td></td><td>mg/dL</td></tr></table></div>"
        },
        "status": "final",
        "subject": {
          "reference": "urn:uuid:b28fa40e-5d7b-4361-b35e-d6d67d379b33",
          "display": "Katy Johnston"
        },
        "effectiveDateTime": "2023-04-09T09:58:49Z",
        "specimen": {
          "reference": "urn:uuid:bc0ba909-cc0e-4eb0-8cd7-d0293d2131de"
        }
      }
    },
    {
      "fullUrl": "urn:uuid:859c907d-f531-4391-b62f-ef861eee9ebd",
      "resource": {
        "resourceType": "Observation",
        "id": "859c907d-f531-4391-b62f-ef861eee9ebd",
        "meta": {
          "profile": [
            "http://hl7.eu/fhir/laboratory/StructureDefinition/Observation-resultslab-eu-lab"
          ]
        },
        "performer": [
          {
            "display": "The Central European Lab"
          }
        ],
        "category": [
          {
            "coding": [
              {
                "system": "http://terminology.hl7.org/CodeSystem/observation-category",
                "code": "laboratory"
              }
            ]
          }
        ],
        "code": {
          "coding": [
            {
              "code": "38483-4",
              "system": "http://loinc.org",
              "display": "Creatinine [Mass/volume] in Blood"
            }
          ],
          "text": "Creatinine [Mass/volume] in Blood"
        },
        "valueQuantity": {
          "system": "http://unitsofmeasure.org",
          "value": 1.2,
          "unit": "mg/dL",
          "code": "mg/dL"
        },
        "referenceRange": [
          {
            "low": {
              "value": 0.6,
              "code": "mg/dL",
              "system": "http://unitsofmeasure.org"
            }
          },
          {
            "high": {
              "value": 1.2,
              "code": "mg/dL",
              "system": "http://unitsofmeasure.org"
            }
          }
        ],
        "text": {
          "status": "generated",
          "div": "<div xmlns=\"http://www.w3.org/1999/xhtml\"><table class=\"hl7__eu__lab__report\"><tr><th>Test</th><th>09-Apr-2023</th><th>Reference&#xA0;Range</th><th>Unit</th></tr><tr><td>Creatinine [Mass/volume] in Blood</td><td>1.2</td><td>0.6 - 1.2</td><td></td><td>mg/dL</td></tr></table></div>"
        },
        "status": "final",
        "subject": {
          "reference": "urn:uuid:b28fa40e-5d7b-4361-b35e-d6d67d379b33",
          "display": "Katy Johnston"
        },
        "effectiveDateTime": "2023-04-09T09:58:49Z",
        "specimen": {
          "reference": "urn:uuid:bc0ba909-cc0e-4eb0-8cd7-d0293d2131de"
        }
      }
    },
    {
      "fullUrl": "urn:uuid:d049196d-2af7-4246-86be-f2adc046b3e6",
      "resource": {
        "resourceType": "Observation",
        "id": "d049196d-2af7-4246-86be-f2adc046b3e6",
        "meta": {
          "profile": [
            "http://hl7.eu/fhir/laboratory/StructureDefinition/Observation-resultslab-eu-lab"
          ]
        },
        "performer": [
          {
            "display": "The Central European Lab"
          }
        ],
        "category": [
          {
            "coding": [
              {
                "system": "http://terminology.hl7.org/CodeSystem/observation-category",
                "code": "laboratory"
              }
            ]
          }
        ],
        "code": {
          "coding": [
            {
              "code": "49765-1",
              "system": "http://loinc.org",
              "display": "Calcium [Mass/volume] in Blood"
            }
          ],
          "text": "Calcium [Mass/volume] in Blood"
        },
        "valueQuantity": {
          "system": "http://unitsofmeasure.org",
          "value": 8.8,
          "unit": "mg/dL",
          "code": "mg/dL"
        },
        "referenceRange": [
          {
            "low": {
              "value": 8.5,
              "code": "mg/dL",
              "system": "http://unitsofmeasure.org"
            }
          },
          {
            "high": {
              "value": 10.4,
              "code": "mg/dL",
              "system": "http://unitsofmeasure.org"
            }
          }
        ],
        "text": {
          "status": "generated",
          "div": "<div xmlns=\"http://www.w3.org/1999/xhtml\"><table class=\"hl7__eu__lab__report\"><tr><th>Test</th><th>09-Apr-2023</th><th>Reference&#xA0;Range</th><th>Unit</th></tr><tr><td>Calcium [Mass/volume] in Blood</td><td>8.8</td><td>8.5 - 10.4</td><td></td><td>mg/dL</td></tr></table></div>"
        },
        "status": "final",
        "subject": {
          "reference": "urn:uuid:b28fa40e-5d7b-4361-b35e-d6d67d379b33",
          "display": "Katy Johnston"
        },
        "effectiveDateTime": "2023-04-09T09:58:49Z",
        "specimen": {
          "reference": "urn:uuid:bc0ba909-cc0e-4eb0-8cd7-d0293d2131de"
        }
      }
    },
    {
      "fullUrl": "urn:uuid:92fbc49b-6b6e-41c1-8655-eec4a6604f03",
      "resource": {
        "resourceType": "Observation",
        "id": "92fbc49b-6b6e-41c1-8655-eec4a6604f03",
        "meta": {
          "profile": [
            "http://hl7.eu/fhir/laboratory/StructureDefinition/Observation-resultslab-eu-lab"
          ]
        },
        "performer": [
          {
            "display": "The Central European Lab"
          }
        ],
        "category": [
          {
            "coding": [
              {
                "system": "http://terminology.hl7.org/CodeSystem/observation-category",
                "code": "laboratory"
              }
            ]
          }
        ],
        "code": {
          "coding": [
            {
              "code": "2947-0",
              "system": "http://loinc.org",
              "display": "Sodium [Moles/volume] in Blood"
            }
          ],
          "text": "Sodium [Moles/volume] in Blood"
        },
        "valueQuantity": {
          "system": "http://unitsofmeasure.org",
          "value": 141.7,
          "unit": "mmol/L",
          "code": "mmol/L"
        },
        "referenceRange": [
          {
            "low": {
              "value": 135,
              "code": "mmol/L",
              "system": "http://unitsofmeasure.org"
            }
          },
          {
            "high": {
              "value": 145,
              "code": "mmol/L",
              "system": "http://unitsofmeasure.org"
            }
          }
        ],
        "text": {
          "status": "generated",
          "div": "<div xmlns=\"http://www.w3.org/1999/xhtml\"><table class=\"hl7__eu__lab__report\"><tr><th>Test</th><th>09-Apr-2023</th><th>Reference&#xA0;Range</th><th>Unit</th></tr><tr><td>Sodium [Moles/volume] in Blood</td><td>141.7</td><td>135 - 145</td><td></td><td>mmol/L</td></tr></table></div>"
        },
        "status": "final",
        "subject": {
          "reference": "urn:uuid:b28fa40e-5d7b-4361-b35e-d6d67d379b33",
          "display": "Katy Johnston"
        },
        "effectiveDateTime": "2023-04-09T09:58:49Z",
        "specimen": {
          "reference": "urn:uuid:bc0ba909-cc0e-4eb0-8cd7-d0293d2131de"
        }
      }
    },
    {
      "fullUrl": "urn:uuid:3a51a57c-9b35-4615-acde-6414eb5b918a",
      "resource": {
        "resourceType": "Observation",
        "id": "3a51a57c-9b35-4615-acde-6414eb5b918a",
        "meta": {
          "profile": [
            "http://hl7.eu/fhir/laboratory/StructureDefinition/Observation-resultslab-eu-lab"
          ]
        },
        "performer": [
          {
            "display": "The Central European Lab"
          }
        ],
        "category": [
          {
            "coding": [
              {
                "system": "http://terminology.hl7.org/CodeSystem/observation-category",
                "code": "laboratory"
              }
            ]
          }
        ],
        "code": {
          "coding": [
            {
              "code": "6298-4",
              "system": "http://loinc.org",
              "display": "Potassium [Moles/volume] in Blood"
            }
          ],
          "text": "Potassium [Moles/volume] in Blood"
        },
        "valueQuantity": {
          "system": "http://unitsofmeasure.org",
          "value": 5.1,
          "unit": "mmol/L",
          "code": "mmol/L"
        },
        "referenceRange": [
          {
            "low": {
              "value": 3.5,
              "code": "mmol/L",
              "system": "http://unitsofmeasure.org"
            }
          },
          {
            "high": {
              "value": 5.1,
              "code": "mmol/L",
              "system": "http://unitsofmeasure.org"
            }
          }
        ],
        "text": {
          "status": "generated",
          "div": "<div xmlns=\"http://www.w3.org/1999/xhtml\"><table class=\"hl7__eu__lab__report\"><tr><th>Test</th><th>09-Apr-2023</th><th>Reference&#xA0;Range</th><th>Unit</th></tr><tr><td>Potassium [Moles/volume] in Blood</td><td>5.1</td><td>3.5 - 5.1</td><td></td><td>mmol/L</td></tr></table></div>"
        },
        "status": "final",
        "subject": {
          "reference": "urn:uuid:b28fa40e-5d7b-4361-b35e-d6d67d379b33",
          "display": "Katy Johnston"
        },
        "effectiveDateTime": "2023-04-09T09:58:49Z",
        "specimen": {
          "reference": "urn:uuid:bc0ba909-cc0e-4eb0-8cd7-d0293d2131de"
        }
      }
    },
    {
      "fullUrl": "urn:uuid:c3b7c2b4-f79d-428c-af85-f2d2523f9691",
      "resource": {
        "resourceType": "Observation",
        "id": "c3b7c2b4-f79d-428c-af85-f2d2523f9691",
        "meta": {
          "profile": [
            "http://hl7.eu/fhir/laboratory/StructureDefinition/Observation-resultslab-eu-lab"
          ]
        },
        "performer": [
          {
            "display": "The Central European Lab"
          }
        ],
        "category": [
          {
            "coding": [
              {
                "system": "http://terminology.hl7.org/CodeSystem/observation-category",
                "code": "laboratory"
              }
            ]
          }
        ],
        "code": {
          "coding": [
            {
              "code": "2069-3",
              "system": "http://loinc.org",
              "display": "Chloride [Moles/volume] in Blood"
            }
          ],
          "text": "Chloride [Moles/volume] in Blood"
        },
        "valueQuantity": {
          "system": "http://unitsofmeasure.org",
          "value": 105,
          "unit": "mmol/L",
          "code": "mmol/L"
        },
        "referenceRange": [
          {
            "low": {
              "value": 98,
              "code": "mmol/L",
              "system": "http://unitsofmeasure.org"
            }
          },
          {
            "high": {
              "value": 107,
              "code": "mmol/L",
              "system": "http://unitsofmeasure.org"
            }
          }
        ],
        "text": {
          "status": "generated",
          "div": "<div xmlns=\"http://www.w3.org/1999/xhtml\"><table class=\"hl7__eu__lab__report\"><tr><th>Test</th><th>09-Apr-2023</th><th>Reference&#xA0;Range</th><th>Unit</th></tr><tr><td>Chloride [Moles/volume] in Blood</td><td>105.0</td><td>98 - 107</td><td></td><td>mmol/L</td></tr></table></div>"
        },
        "status": "final",
        "subject": {
          "reference": "urn:uuid:b28fa40e-5d7b-4361-b35e-d6d67d379b33",
          "display": "Katy Johnston"
        },
        "effectiveDateTime": "2023-04-09T09:58:49Z",
        "specimen": {
          "reference": "urn:uuid:bc0ba909-cc0e-4eb0-8cd7-d0293d2131de"
        }
      }
    },
    {
      "fullUrl": "urn:uuid:e83b12e9-f587-41d3-831e-c2a04c9889c7",
      "resource": {
        "resourceType": "Observation",
        "id": "e83b12e9-f587-41d3-831e-c2a04c9889c7",
        "meta": {
          "profile": [
            "http://hl7.eu/fhir/laboratory/StructureDefinition/Observation-resultslab-eu-lab"
          ]
        },
        "performer": [
          {
            "display": "The Central European Lab"
          }
        ],
        "category": [
          {
            "coding": [
              {
                "system": "http://terminology.hl7.org/CodeSystem/observation-category",
                "code": "laboratory"
              }
            ]
          }
        ],
        "code": {
          "coding": [
            {
              "code": "20565-8",
              "system": "http://loinc.org",
              "display": "Carbon dioxide, total [Moles/volume] in Blood"
            }
          ],
          "text": "Carbon dioxide, total [Moles/volume] in Blood"
        },
        "valueQuantity": {
          "system": "http://unitsofmeasure.org",
          "value": 23.2,
          "unit": "mmol/L",
          "code": "mmol/L"
        },
        "referenceRange": [
          {
            "low": {
              "value": 22,
              "code": "mmol/L",
              "system": "http://unitsofmeasure.org"
            }
          },
          {
            "high": {
              "value": 29,
              "code": "mmol/L",
              "system": "http://unitsofmeasure.org"
            }
          }
        ],
        "text": {
          "status": "generated",
          "div": "<div xmlns=\"http://www.w3.org/1999/xhtml\"><table class=\"hl7__eu__lab__report\"><tr><th>Test</th><th>09-Apr-2023</th><th>Reference&#xA0;Range</th><th>Unit</th></tr><tr><td>Carbon dioxide, total [Moles/volume] in Blood</td><td>23.2</td><td>22 - 29</td><td></td><td>mmol/L</td></tr></table></div>"
        },
        "status": "final",
        "subject": {
          "reference": "urn:uuid:b28fa40e-5d7b-4361-b35e-d6d67d379b33",
          "display": "Katy Johnston"
        },
        "effectiveDateTime": "2023-04-09T09:58:49Z",
        "specimen": {
          "reference": "urn:uuid:bc0ba909-cc0e-4eb0-8cd7-d0293d2131de"
        }
      }
    },
    {
      "fullUrl": "urn:uuid:0f3ae487-4233-43f7-a345-c7c865802e50",
      "resource": {
        "resourceType": "Device",
        "id": "0f3ae487-4233-43f7-a345-c7c865802e50",
        "deviceName": [
          {
            "name": "SYNDERAI Synthetic Generator",
            "type": "manufacturer-name"
          }
        ],
        "version": [
          {
            "value": "5.0"
          }
        ],
        "text": {
          "status": "generated",
          "div": "<div xmlns=\"http://www.w3.org/1999/xhtml\">SYNDERAI Synthetic Generator v5.0</div>"
        },
        "status": "active\"",
        "distinctIdentifier": "synderai-generator-50",
        "manufacturer": "SYNDERAI Project"
      }
    },
    {
      "fullUrl": "urn:uuid:feab0bc5-2ca7-44c6-b6ee-1e4d3e1a1c43",
      "resource": {
        "resourceType": "Provenance",
        "id": "feab0bc5-2ca7-44c6-b6ee-1e4d3e1a1c43",
        "target": [
          {
            "reference": "Patient/b28fa40e-5d7b-4361-b35e-d6d67d379b33"
          },
          {
            "reference": "Bundle/d71a5db1-aaf5-4f94-b768-3f5a2c406360"
          },
          {
            "reference": "Composition/ad552278-9409-4ab2-b0c4-92eb89e63699"
          },
          {
            "reference": "PractitionerRole/19462b28-1960-4a6a-b8f5-86e1300d06ff"
          },
          {
            "reference": "Practitioner/ab05c6f3-86a1-43b9-b542-ac4640a4678b"
          },
          {
            "reference": "PractitionerRole/bc16a029-7f70-49d3-ab90-bc34dee0c44c"
          },
          {
            "reference": "Organization/bac6b331-228e-484f-afab-6ce31ba79693"
          }
        ],
        "activity": {
          "text": "Synthetic Example Data Generation"
        },
        "policy": [
          "https://synderai.net/synderai-synthetic-data-policy"
        ],
        "agent": [
          {
            "type": {
              "text": "author"
            },
            "who": {
              "reference": "Device/0f3ae487-4233-43f7-a345-c7c865802e50"
            }
          }
        ],
        "reason": [
          {
            "text": "Interoperability Testing and Training (non-clinical use)"
          }
        ],
        "text": {
          "status": "generated",
          "div": "<div xmlns=\"http://www.w3.org/1999/xhtml\">Provenance for SYNDERAI Synthetic Example Data Resource</div>"
        },
        "recorded": "2023-04-09T11:58:49Z"
      }
    },
    {
      "fullUrl": "urn:uuid:19462b28-1960-4a6a-b8f5-86e1300d06ff",
      "resource": {
        "resourceType": "PractitionerRole",
        "id": "19462b28-1960-4a6a-b8f5-86e1300d06ff",
        "meta": {
          "profile": [
            "http://hl7.eu/fhir/base/StructureDefinition/practitionerRole-eu"
          ]
        },
        "text": {
          "status": "generated",
          "div": "<div xmlns=\"http://www.w3.org/1999/xhtml\">Laboratory Role Id: 19462b28-1960-4a6a-b8f5-86e1300d06ff</div>"
        },
        "practitioner": {
          "reference": "urn:uuid:ab05c6f3-86a1-43b9-b542-ac4640a4678b"
        }
      }
    },
    {
      "fullUrl": "urn:uuid:ab05c6f3-86a1-43b9-b542-ac4640a4678b",
      "resource": {
        "resourceType": "Practitioner",
        "id": "ab05c6f3-86a1-43b9-b542-ac4640a4678b",
        "meta": {
          "profile": [
            "http://hl7.eu/fhir/base/StructureDefinition/practitioner-eu"
          ]
        },
        "identifier": [
          {
            "assigner": {
              "display": "HL7 Europe"
            },
            "system": "urn:oid:2.16.840.1.113883.2.51.999",
            "value": "ae9e5b67-0ada-40fd-bd22-63d75ae590b0"
          }
        ],
        "name": [
          {
            "prefix": [
              "dr"
            ],
            "given": [
              "Ex"
            ],
            "family": "Ample"
          }
        ],
        "address": [
          {
            "line": [
              "Laboratoire Central Européenne",
              "Boulevard du Jardin Botanique 32"
            ],
            "postalCode": "1000",
            "city": "Brussels",
            "country": "Belgium"
          }
        ],
        "text": {
          "status": "generated",
          "div": "<div xmlns=\"http://www.w3.org/1999/xhtml\">Laboratory: Laboratoire Central Européenne, 1000 Brussels, Belgium</div>"
        }
      }
    }
  ],
  "type": "document",
  "timestamp": "2023-04-09T11:58:49Z"
}
