{
  "resourceType": "Bundle",
  "id": "a591fe3e-d67e-4124-b33f-59c44d2b11dc",
  "meta": {
    "profile": [
      "http://hl7.eu/fhir/laboratory/StructureDefinition/Bundle-eu-lab"
    ]
  },
  "identifier": {
    "assigner": {
      "display": "HL7 Europe"
    },
    "system": "urn:oid:2.16.840.1.113883.2.51.999",
    "value": "4d6c8d76-3a7b-41b0-acb6-f3bdfc09168a"
  },
  "entry": [
    {
      "fullUrl": "urn:uuid:ba173bc0-93bf-408f-b04f-1ce91edc004b",
      "resource": {
        "resourceType": "Composition",
        "id": "ba173bc0-93bf-408f-b04f-1ce91edc004b",
        "meta": {
          "profile": [
            "http://hl7.eu/fhir/laboratory/StructureDefinition/Composition-eu-lab"
          ]
        },
        "identifier": {
          "assigner": {
            "display": "HL7 Europe"
          },
          "system": "urn:oid:2.16.840.1.113883.2.51.999",
          "value": "bb984347-e235-4f8b-8b42-16752ca88f59"
        },
        "author": [
          {
            "reference": "urn:uuid:ab14c0e4-f386-498d-8316-8f5bac67062e"
          }
        ],
        "category": [
          {
            "coding": [
              {
                "code": "26436-6",
                "system": "http://loinc.org",
                "display": "Laboratory studies (set)"
              }
            ]
          }
        ],
        "type": {
          "coding": [
            {
              "code": "11502-2",
              "system": "http://loinc.org",
              "display": "Laboratory report"
            }
          ],
          "text": "Laboratory Report"
        },
        "section": [
          {
            "code": {
              "coding": [
                {
                  "code": "26436-6",
                  "system": "http://loinc.org",
                  "display": "Laboratory studies (set)"
                }
              ],
              "text": "Laboratory studies"
            },
            "section": [
              {
                "code": {
                  "coding": [
                    {
                      "code": "$18719-5",
                      "system": "http://loinc.org",
                      "display": "Chemistry studies (set)"
                    }
                  ],
                  "text": "Chemistry"
                },
                "entry": [
                  {
                    "reference": "urn:uuid:83f1fa4a-bb55-4132-ba1b-038baf94056a"
                  },
                  {
                    "reference": "urn:uuid:8e7357cc-7528-487e-859f-fbb96054f08f"
                  },
                  {
                    "reference": "urn:uuid:f17e8698-14ae-462d-ac05-f33ca94f9deb"
                  },
                  {
                    "reference": "urn:uuid:f6dc570a-d339-4af4-a8a3-de78acde229d"
                  },
                  {
                    "reference": "urn:uuid:f1b7ebf4-9672-4783-b030-321af47aedf3"
                  },
                  {
                    "reference": "urn:uuid:40c3e408-9bf0-4910-84bb-a4ec7f36d021"
                  },
                  {
                    "reference": "urn:uuid:e69dc26c-9636-4823-99ab-d8aff1e75778"
                  },
                  {
                    "reference": "urn:uuid:f2b8c0c3-ec53-407f-9e59-efd79b1762bc"
                  },
                  {
                    "reference": "urn:uuid:a0e7624f-1648-4a7d-a2ca-ea1b9a103631"
                  },
                  {
                    "reference": "urn:uuid:6be17d63-2422-4816-bea0-8fe91db6f469"
                  },
                  {
                    "reference": "urn:uuid:3a01a5ca-30a0-4cab-8972-c9af01e645de"
                  },
                  {
                    "reference": "urn:uuid:64eeb4af-4ba9-4917-9322-2b1c1c6dd684"
                  },
                  {
                    "reference": "urn:uuid:2fcb325c-b8c3-43c8-a540-d9743db98d9f"
                  },
                  {
                    "reference": "urn:uuid:1ed68de8-7cc2-4863-a990-62cb981e6b0f"
                  },
                  {
                    "reference": "urn:uuid:fcfc7e1d-ced9-4849-81e2-148686197dfa"
                  },
                  {
                    "reference": "urn:uuid:46f2e256-ac8a-445f-b85c-7c9ac3485de9"
                  },
                  {
                    "reference": "urn:uuid:554337f4-f8c3-42ec-88d2-1e811e76431f"
                  },
                  {
                    "reference": "urn:uuid:87981bd4-494f-418d-b0b3-c64d872d160a"
                  }
                ],
                "text": {
                  "status": "generated",
                  "div": "<div xmlns=\"http://www.w3.org/1999/xhtml\"><h3>Chemistry</h3><table class=\"hl7__eu__lab__report\"><thead><tr><th>Test</th><th>08-SEP-2015</th><th>Reference&#xA0;Range</th><th>Unit</th></tr></thead><tbody><tr><td>Glucose [Mass/volume] in Serum or Plasma</td><td><strong>67.8 L</strong></td><td>70 - 99</td><td>mg/dL</td></tr><tr><td>Urea nitrogen [Mass/volume] in Serum or Plasma</td><td>19.3</td><td>7 - 50</td><td>mg/dL</td></tr><tr><td>Creatinine [Mass/volume] in Serum or Plasma</td><td><strong>2.1 H</strong></td><td>0.6 - 1.1</td><td>mg/dL</td></tr><tr><td>Calcium [Mass/volume] in Serum or Plasma</td><td>8.8</td><td>8.6 - 10.4</td><td>mg/dL</td></tr><tr><td>Sodium [Moles/volume] in Serum or Plasma</td><td>141.3</td><td>135 - 145</td><td>mmol/L</td></tr><tr><td>Potassium [Moles/volume] in Serum or Plasma</td><td>4.3</td><td>3.5 - 5.1</td><td>mmol/L</td></tr><tr><td>Chloride [Moles/volume] in Serum or Plasma</td><td>102.5</td><td>98 - 108</td><td>mmol/L</td></tr><tr><td>Carbon dioxide, total [Moles/volume] in Serum or Plasma</td><td>28.4</td><td>22 - 32</td><td>mmol/L</td></tr><tr><td>Ketones [Presence] in Urine by Test strip</td><td>Urine ketone test = +</td><td></td><td></td></tr><tr><td>Hemoglobin A1c/Hemoglobin.total in Blood</td><td><strong>3.4 L</strong></td><td>4 - 6.4</td><td>%</td></tr><tr><td>Glucose [Mass/volume] in Blood</td><td><strong>67.8 L</strong></td><td>70 - 100</td><td>mg/dL</td></tr><tr><td>Urea nitrogen [Mass/volume] in Blood</td><td>19.3</td><td>7 - 43</td><td>mg/dL</td></tr><tr><td>Creatinine [Mass/volume] in Blood</td><td><strong>1.6 H</strong></td><td>0.6 - 1.1</td><td>mg/dL</td></tr><tr><td>Calcium [Mass/volume] in Blood</td><td>8.8</td><td>8.5 - 10.5</td><td>mg/dL</td></tr><tr><td>Sodium [Moles/volume] in Blood</td><td>141.3</td><td>135 - 145</td><td>mmol/L</td></tr><tr><td>Potassium [Moles/volume] in Blood</td><td>4.3</td><td>3.5 - 5.1</td><td>mmol/L</td></tr><tr><td>Chloride [Moles/volume] in Blood</td><td>102.5</td><td>98 - 108</td><td>mmol/L</td></tr><tr><td>Carbon dioxide, total [Moles/volume] in Blood</td><td>28.4</td><td>22 - 29</td><td>mmol/L</td></tr></tbody></table></div>"
                },
                "title": "Chemistry"
              },
              {
                "code": {
                  "coding": [
                    {
                      "code": "$18729-4",
                      "system": "http://loinc.org",
                      "display": "Urinalysis studies (set)"
                    }
                  ],
                  "text": "Urinalysis"
                },
                "entry": [
                  {
                    "reference": "urn:uuid:218464f6-508d-4d1a-8464-af2e3b20cfa2"
                  },
                  {
                    "reference": "urn:uuid:92a4de56-e5f0-4063-85a6-ccee4d082e15"
                  },
                  {
                    "reference": "urn:uuid:045358a5-1a0c-4e1c-abf2-d1b7851d19bc"
                  },
                  {
                    "reference": "urn:uuid:85e6853c-643e-43f9-8ffa-ad2bc83d34a8"
                  },
                  {
                    "reference": "urn:uuid:aac19dea-e702-4f66-b0a1-6c5ea2d5362d"
                  },
                  {
                    "reference": "urn:uuid:d9a0f214-f437-4b32-91bc-085092e870ca"
                  },
                  {
                    "reference": "urn:uuid:4bf3a299-dc55-4659-b92c-756cb1c09026"
                  },
                  {
                    "reference": "urn:uuid:c864cd8f-ef31-4add-a55e-cc9e5ec04168"
                  },
                  {
                    "reference": "urn:uuid:1a288631-3fd5-47e7-afb5-d1826a72bf6e"
                  },
                  {
                    "reference": "urn:uuid:c2c4b74f-be60-4d45-9825-b6c6f593aecc"
                  },
                  {
                    "reference": "urn:uuid:4457be60-d3aa-4573-8c1b-3ec92afca342"
                  },
                  {
                    "reference": "urn:uuid:fccb349f-6d61-49b3-8f46-542f0974f913"
                  }
                ],
                "text": {
                  "status": "generated",
                  "div": "<div xmlns=\"http://www.w3.org/1999/xhtml\"><h3>Urinalysis</h3><table class=\"hl7__eu__lab__report\"><thead><tr><th>Test</th><th>08-SEP-2015</th><th>Reference&#xA0;Range</th><th>Unit</th></tr></thead><tbody><tr><td>Glucose [Mass/volume] in Urine by Test strip</td><td><strong>1.9 H</strong></td><td>0.8 - 0</td><td>mg/dL</td></tr><tr><td>Glucose [Presence] in Urine by Test strip</td><td>++</td><td></td><td></td></tr><tr><td>Bilirubin.total [Mass/volume] in Urine by Test strip</td><td>0.8</td><td>0 - 1</td><td>mg/dL</td></tr><tr><td>Bilirubin.total [Presence] in Urine by Test strip</td><td>Finding of bilirubin in urine</td><td></td><td></td></tr><tr><td>Ketones [Mass/volume] in Urine by Test strip</td><td><strong>6.1 H</strong></td><td>0 - 4</td><td>mg/dL</td></tr><tr><td>Specific gravity of Urine by Test strip</td><td><strong>1.0 L</strong></td><td>1.005 - 1.03</td><td>{nominal}</td></tr><tr><td>pH of Urine by Test strip</td><td>6.5</td><td>4.6 - 7</td><td>pH</td></tr><tr><td>Protein [Mass/volume] in Urine by Test strip</td><td><strong>227.1 H</strong></td><td>0 - 14</td><td>mg/dL</td></tr><tr><td>Protein [Presence] in Urine by Test strip</td><td>Urine protein test = ++</td><td></td><td></td></tr><tr><td>Nitrite [Presence] in Urine by Test strip</td><td>Urine nitrite negative</td><td></td><td></td></tr><tr><td>Hemoglobin [Presence] in Urine by Test strip</td><td>Urine blood test = negative</td><td></td><td></td></tr><tr><td>Leukocyte esterase [Presence] in Urine by Test strip</td><td>Urine leukocyte test negative</td><td></td><td></td></tr></tbody></table></div>"
                },
                "title": "Urinalysis"
              },
              {
                "code": {
                  "coding": [
                    {
                      "code": "$LP7846-1",
                      "system": "http://loinc.org",
                      "display": "Specimen information"
                    }
                  ],
                  "text": "Specimen information"
                },
                "entry": [
                  {
                    "reference": "urn:uuid:743dfa2c-631b-4ce5-8c66-d08a95ddc50c"
                  },
                  {
                    "reference": "urn:uuid:bff2ee63-70db-4d73-8b9c-7fd7ebf11c93"
                  },
                  {
                    "reference": "urn:uuid:1b35845a-e867-4549-a552-207e1a83ed3b"
                  },
                  {
                    "reference": "urn:uuid:322e4e00-c7e5-45d4-8b82-12bbbd3b38fe"
                  }
                ],
                "text": {
                  "status": "generated",
                  "div": "<div xmlns=\"http://www.w3.org/1999/xhtml\"><h3>Specimen information</h3><table class=\"hl7__eu__lab__report\"><thead><tr><th>Test</th><th>08-SEP-2015</th><th>Specimen</th><th></th></tr></thead><tbody><tr><td>Appearance of Urine</td><td>Cloudy urine</td><td>Urine</td><td></td></tr><tr><td>Odor of Urine</td><td>Urine smell ammoniacal</td><td>Urine</td><td></td></tr><tr><td>Clarity of Urine</td><td>Translucent</td><td>Urine</td><td></td></tr><tr><td>Color of Urine</td><td>Brown color</td><td>Urine</td><td></td></tr></tbody></table></div>"
                },
                "title": "Specimen information"
              }
            ],
            "title": "Laboratory Report"
          },
          {
            "text": {
              "status": "generated",
              "div": "<div xmlns=\"http://www.w3.org/1999/xhtml\"><h3>Annotation</h3><table class=\"hl7__eu__lab__report\"><tr><th>Conclusion and Recommendations based on this report and previous findings known to us</th></tr><tr><td>The patient shows mild hypoglycemia and low HbA1c, with elevated creatinine suggesting impaired renal function. Urinalysis reveals significant proteinuria, glycosuria, ketonuria, and abnormal urine appearance (cloudy, brown, ammoniacal), but no evidence of infection. These findings are consistent with possible diabetic nephropathy and renal impairment, despite low blood glucose. Further clinical correlation and nephrology evaluation are recommended.</td></tr></table></div>"
            },
            "code": {
              "coding": [
                {
                  "system": "http://loinc.org",
                  "code": "48767-8",
                  "display": "Annotation comment"
                }
              ]
            },
            "title": "Annotation comment"
          }
        ],
        "status": "final",
        "subject": {
          "reference": "urn:uuid:06e38df0-8ae0-40b0-9bdd-f126d1d311f9",
          "display": "Meaghan Neary"
        },
        "date": "2015-09-08T00:11:04Z",
        "title": "Laboratory Report",
        "confidentiality": "N"
      }
    },
    {
      "fullUrl": "urn:uuid:4ae55d35-e1ac-4c4e-bb61-cee71433f30d",
      "resource": {
        "resourceType": "DiagnosticReport",
        "id": "4ae55d35-e1ac-4c4e-bb61-cee71433f30d",
        "meta": {
          "profile": [
            "http://hl7.eu/fhir/laboratory/StructureDefinition/DiagnosticReport-eu-lab"
          ]
        },
        "identifier": [
          {
            "assigner": {
              "display": "HL7 Europe"
            },
            "system": "urn:oid:2.16.840.1.113883.2.51.999",
            "value": "c7489059-1762-471f-b3de-fc61ecc728e7"
          }
        ],
        "extension": [
          {
            "url": "http://hl7.org/fhir/5.0/StructureDefinition/extension-DiagnosticReport.composition",
            "valueReference": {
              "reference": "urn:uuid:bb984347-e235-4f8b-8b42-16752ca88f59"
            }
          }
        ],
        "category": [
          {
            "coding": [
              {
                "code": "26436-6",
                "system": "http://loinc.org",
                "display": "Laboratory studies (set)"
              }
            ]
          }
        ],
        "specimen": [
          {
            "reference": "urn:uuid:87396eb9-09bb-4f08-bbf8-caf5f382bf73"
          },
          {
            "reference": "urn:uuid:f0915cd7-c68e-4f3b-a4b1-3393eeb35a51"
          },
          {
            "reference": "urn:uuid:6e5d6e5f-8103-41cc-bc69-1943b374ce39"
          }
        ],
        "result": [
          {
            "reference": "urn:uuid:83f1fa4a-bb55-4132-ba1b-038baf94056a"
          },
          {
            "reference": "urn:uuid:8e7357cc-7528-487e-859f-fbb96054f08f"
          },
          {
            "reference": "urn:uuid:f17e8698-14ae-462d-ac05-f33ca94f9deb"
          },
          {
            "reference": "urn:uuid:f6dc570a-d339-4af4-a8a3-de78acde229d"
          },
          {
            "reference": "urn:uuid:f1b7ebf4-9672-4783-b030-321af47aedf3"
          },
          {
            "reference": "urn:uuid:40c3e408-9bf0-4910-84bb-a4ec7f36d021"
          },
          {
            "reference": "urn:uuid:e69dc26c-9636-4823-99ab-d8aff1e75778"
          },
          {
            "reference": "urn:uuid:f2b8c0c3-ec53-407f-9e59-efd79b1762bc"
          },
          {
            "reference": "urn:uuid:743dfa2c-631b-4ce5-8c66-d08a95ddc50c"
          },
          {
            "reference": "urn:uuid:bff2ee63-70db-4d73-8b9c-7fd7ebf11c93"
          },
          {
            "reference": "urn:uuid:1b35845a-e867-4549-a552-207e1a83ed3b"
          },
          {
            "reference": "urn:uuid:322e4e00-c7e5-45d4-8b82-12bbbd3b38fe"
          },
          {
            "reference": "urn:uuid:218464f6-508d-4d1a-8464-af2e3b20cfa2"
          },
          {
            "reference": "urn:uuid:92a4de56-e5f0-4063-85a6-ccee4d082e15"
          },
          {
            "reference": "urn:uuid:045358a5-1a0c-4e1c-abf2-d1b7851d19bc"
          },
          {
            "reference": "urn:uuid:85e6853c-643e-43f9-8ffa-ad2bc83d34a8"
          },
          {
            "reference": "urn:uuid:aac19dea-e702-4f66-b0a1-6c5ea2d5362d"
          },
          {
            "reference": "urn:uuid:a0e7624f-1648-4a7d-a2ca-ea1b9a103631"
          },
          {
            "reference": "urn:uuid:d9a0f214-f437-4b32-91bc-085092e870ca"
          },
          {
            "reference": "urn:uuid:4bf3a299-dc55-4659-b92c-756cb1c09026"
          },
          {
            "reference": "urn:uuid:c864cd8f-ef31-4add-a55e-cc9e5ec04168"
          },
          {
            "reference": "urn:uuid:1a288631-3fd5-47e7-afb5-d1826a72bf6e"
          },
          {
            "reference": "urn:uuid:c2c4b74f-be60-4d45-9825-b6c6f593aecc"
          },
          {
            "reference": "urn:uuid:4457be60-d3aa-4573-8c1b-3ec92afca342"
          },
          {
            "reference": "urn:uuid:fccb349f-6d61-49b3-8f46-542f0974f913"
          },
          {
            "reference": "urn:uuid:6be17d63-2422-4816-bea0-8fe91db6f469"
          },
          {
            "reference": "urn:uuid:3a01a5ca-30a0-4cab-8972-c9af01e645de"
          },
          {
            "reference": "urn:uuid:64eeb4af-4ba9-4917-9322-2b1c1c6dd684"
          },
          {
            "reference": "urn:uuid:2fcb325c-b8c3-43c8-a540-d9743db98d9f"
          },
          {
            "reference": "urn:uuid:1ed68de8-7cc2-4863-a990-62cb981e6b0f"
          },
          {
            "reference": "urn:uuid:fcfc7e1d-ced9-4849-81e2-148686197dfa"
          },
          {
            "reference": "urn:uuid:46f2e256-ac8a-445f-b85c-7c9ac3485de9"
          },
          {
            "reference": "urn:uuid:554337f4-f8c3-42ec-88d2-1e811e76431f"
          },
          {
            "reference": "urn:uuid:87981bd4-494f-418d-b0b3-c64d872d160a"
          }
        ],
        "status": "registered",
        "code": {
          "coding": [
            {
              "code": "11502-2",
              "system": "http://loinc.org",
              "display": "Laboratory report"
            }
          ]
        },
        "subject": {
          "reference": "urn:uuid:06e38df0-8ae0-40b0-9bdd-f126d1d311f9",
          "display": "Meaghan Neary"
        }
      }
    },
    {
      "fullUrl": "urn:uuid:06e38df0-8ae0-40b0-9bdd-f126d1d311f9",
      "resource": {
        "resourceType": "Patient",
        "id": "06e38df0-8ae0-40b0-9bdd-f126d1d311f9",
        "meta": {
          "security": [
            {
              "system": "http://terminology.hl7.org/CodeSystem/v3-ActReason",
              "code": "HTEST"
            },
            {
              "system": "http://terminology.hl7.org/CodeSystem/v3-ActReason",
              "code": "TRAIN"
            }
          ],
          "tag": [
            {
              "system": "https://synderai.net/fhir/CodeSystem/tags",
              "code": "synthetic",
              "display": "SYNDERAI Synthetic data"
            }
          ],
          "profile": [
            "http://hl7.eu/fhir/base/StructureDefinition/patient-eu-core"
          ]
        },
        "identifier": [
          {
            "type": {
              "coding": [
                {
                  "code": "PT",
                  "system": "http://terminology.hl7.org/CodeSystem/v2-0203"
                }
              ]
            },
            "system": "http://ec.europa.eu/identifier/eci",
            "value": "1586-567257-8"
          },
          {
            "type": {
              "coding": [
                {
                  "code": "MR",
                  "system": "http://terminology.hl7.org/CodeSystem/v2-0203"
                }
              ]
            },
            "system": "http://local.setting.eu/identifier",
            "value": "443e6379-f231-b364-3ccb-644740a1aa2a"
          }
        ],
        "name": [
          {
            "family": "Neary"
          },
          {
            "given": [
              "Meaghan"
            ]
          },
          {
            "text": "Meaghan Neary"
          }
        ],
        "address": [
          {
            "line": [
              "64 Linskey Street"
            ],
            "use": "home",
            "type": "physical",
            "postalCode": "D02",
            "city": "Dublin",
            "country": "Ireland"
          }
        ],
        "telecom": [
          {
            "system": "phone",
            "value": "001-967-573-0911x465"
          }
        ],
        "extension": [
          {
            "url": "http://hl7.org/fhir/StructureDefinition/patient-nationality",
            "valueCodeableConcept": {
              "coding": [
                {
                  "code": "IE",
                  "system": "http://hl7.org/fhir/ValueSet/country"
                }
              ]
            }
          }
        ],
        "text": {
          "status": "generated",
          "div": "<div xmlns=\"http://www.w3.org/1999/xhtml\"><table class=\"hl7__ips\"><tr><td>Meaghan Neary</td><td>female</td><td>19-Dec-1960</td></tr></table></div>"
        },
        "gender": "female",
        "birthDate": "1960-12-19"
      }
    },
    {
      "fullUrl": "urn:uuid:1f29a72e-022c-4982-82f3-f2145c002e31",
      "resource": {
        "resourceType": "ServiceRequest",
        "id": "1f29a72e-022c-4982-82f3-f2145c002e31",
        "meta": {
          "profile": [
            "http://hl7.eu/fhir/laboratory/StructureDefinition/ServiceRequest-eu-lab"
          ]
        },
        "identifier": [
          {
            "system": "http://example.org",
            "value": "4c311d4b-270d-4997-9b11-480e8ebc69ad"
          }
        ],
        "specimen": [
          {
            "reference": "urn:uuid:87396eb9-09bb-4f08-bbf8-caf5f382bf73"
          },
          {
            "reference": "urn:uuid:f0915cd7-c68e-4f3b-a4b1-3393eeb35a51"
          },
          {
            "reference": "urn:uuid:6e5d6e5f-8103-41cc-bc69-1943b374ce39"
          }
        ],
        "reasonCode": [
          {
            "coding": [
              {
                "code": "55822004",
                "system": "http://snomed.info/sct",
                "display": "Hyperlipidemia"
              }
            ]
          },
          {
            "coding": [
              {
                "code": "433144002",
                "system": "http://snomed.info/sct",
                "display": "Chronic kidney disease stage 3"
              }
            ]
          },
          {
            "coding": [
              {
                "code": "157141000119108",
                "system": "http://snomed.info/sct",
                "display": "Proteinuria due to type 2 diabetes mellitus"
              }
            ]
          },
          {
            "coding": [
              {
                "code": "431856006",
                "system": "http://snomed.info/sct",
                "display": "Chronic kidney disease stage 2"
              }
            ]
          },
          {
            "coding": [
              {
                "code": "90781000119102",
                "system": "http://snomed.info/sct",
                "display": "Microalbuminuria due to type 2 diabetes mellitus"
              }
            ]
          },
          {
            "coding": [
              {
                "code": "127013003",
                "system": "http://snomed.info/sct",
                "display": "Disorder of kidney due to diabetes mellitus"
              }
            ]
          },
          {
            "coding": [
              {
                "code": "431855005",
                "system": "http://snomed.info/sct",
                "display": "Chronic kidney disease stage 1"
              }
            ]
          },
          {
            "coding": [
              {
                "code": "237602007",
                "system": "http://snomed.info/sct",
                "display": "Metabolic syndrome X"
              }
            ]
          },
          {
            "coding": [
              {
                "code": "271737000",
                "system": "http://snomed.info/sct",
                "display": "Anemia"
              }
            ]
          },
          {
            "coding": [
              {
                "code": "15777000",
                "system": "http://snomed.info/sct",
                "display": "Prediabetes"
              }
            ]
          },
          {
            "coding": [
              {
                "code": "59621000",
                "system": "http://snomed.info/sct",
                "display": "Essential hypertension"
              }
            ]
          }
        ],
        "status": "active",
        "intent": "order",
        "code": {
          "coding": [
            {
              "code": "108252007",
              "system": "http://snomed.info/sct",
              "display": "Laboratory procedure"
            }
          ]
        },
        "subject": {
          "reference": "urn:uuid:06e38df0-8ae0-40b0-9bdd-f126d1d311f9",
          "display": "Meaghan Neary"
        },
        "requester": {
          "reference": "urn:uuid:85560e02-148a-408f-a62b-5c163da082d9"
        }
      }
    },
    {
      "fullUrl": "urn:uuid:85560e02-148a-408f-a62b-5c163da082d9",
      "resource": {
        "resourceType": "PractitionerRole",
        "id": "85560e02-148a-408f-a62b-5c163da082d9",
        "meta": {
          "profile": [
            "http://hl7.eu/fhir/base/StructureDefinition/practitionerRole-eu"
          ]
        },
        "text": {
          "status": "generated",
          "div": "<div xmlns=\"http://www.w3.org/1999/xhtml\">Provider Role Id: 85560e02-148a-408f-a62b-5c163da082d9</div>"
        },
        "organization": {
          "reference": "urn:uuid:6fe38c2f-066d-4fa8-9b05-bb88ba5b089a"
        }
      }
    },
    {
      "fullUrl": "urn:uuid:6fe38c2f-066d-4fa8-9b05-bb88ba5b089a",
      "resource": {
        "resourceType": "Organization",
        "id": "6fe38c2f-066d-4fa8-9b05-bb88ba5b089a",
        "meta": {
          "profile": [
            "http://hl7.eu/fhir/base/StructureDefinition/organization-eu"
          ]
        },
        "identifier": [
          {
            "assigner": {
              "display": "HL7 Europe"
            },
            "system": "urn:oid:2.16.840.1.113883.2.51.999",
            "value": "1163c0ec-78ec-4046-9ae0-f1561b4d22ca"
          }
        ],
        "address": [
          {
            "line": [
              "Parnell Square West nan"
            ],
            "city": "Dublin",
            "postalCode": "D01",
            "country": "Ireland"
          }
        ],
        "text": {
          "status": "generated",
          "div": "<div xmlns=\"http://www.w3.org/1999/xhtml\">Provider Organization: Rotunda Hospital</div>"
        },
        "name": "Rotunda Hospital"
      }
    },
    {
      "fullUrl": "urn:uuid:87396eb9-09bb-4f08-bbf8-caf5f382bf73",
      "resource": {
        "resourceType": "Specimen",
        "id": "87396eb9-09bb-4f08-bbf8-caf5f382bf73",
        "meta": {
          "profile": [
            "http://hl7.eu/fhir/laboratory/StructureDefinition/Specimen-eu-lab"
          ]
        },
        "collection": {
          "collectedDateTime": "2015-09-07"
        },
        "text": {
          "status": "generated",
          "div": "<div xmlns=\"http://www.w3.org/1999/xhtml\"><table class=\"hl7__eu__lab__report\"><tr><th>Specimen</th><th>Collection Date</th></tr><tr><td>Acellular blood (serum or plasma) specimen</td><td><span class=\"nb\">07-Sep-2015</span></td></tr></table></div>"
        },
        "type": {
          "coding": [
            {
              "code": "122592007",
              "system": "http://snomed.info/sct",
              "display": "Acellular blood (serum or plasma) specimen"
            }
          ]
        }
      }
    },
    {
      "fullUrl": "urn:uuid:f0915cd7-c68e-4f3b-a4b1-3393eeb35a51",
      "resource": {
        "resourceType": "Specimen",
        "id": "f0915cd7-c68e-4f3b-a4b1-3393eeb35a51",
        "meta": {
          "profile": [
            "http://hl7.eu/fhir/laboratory/StructureDefinition/Specimen-eu-lab"
          ]
        },
        "collection": {
          "collectedDateTime": "2015-09-07"
        },
        "text": {
          "status": "generated",
          "div": "<div xmlns=\"http://www.w3.org/1999/xhtml\"><table class=\"hl7__eu__lab__report\"><tr><th>Specimen</th><th>Collection Date</th></tr><tr><td>Urine specimen</td><td><span class=\"nb\">07-Sep-2015</span></td></tr></table></div>"
        },
        "type": {
          "coding": [
            {
              "code": "122575003",
              "system": "http://snomed.info/sct",
              "display": "Urine specimen"
            }
          ]
        }
      }
    },
    {
      "fullUrl": "urn:uuid:6e5d6e5f-8103-41cc-bc69-1943b374ce39",
      "resource": {
        "resourceType": "Specimen",
        "id": "6e5d6e5f-8103-41cc-bc69-1943b374ce39",
        "meta": {
          "profile": [
            "http://hl7.eu/fhir/laboratory/StructureDefinition/Specimen-eu-lab"
          ]
        },
        "collection": {
          "collectedDateTime": "2015-09-07"
        },
        "text": {
          "status": "generated",
          "div": "<div xmlns=\"http://www.w3.org/1999/xhtml\"><table class=\"hl7__eu__lab__report\"><tr><th>Specimen</th><th>Collection Date</th></tr><tr><td>Whole blood specimen (specimen)</td><td><span class=\"nb\">07-Sep-2015</span></td></tr></table></div>"
        },
        "type": {
          "coding": [
            {
              "code": "258580003",
              "system": "http://snomed.info/sct",
              "display": "Whole blood specimen (specimen)"
            }
          ]
        }
      }
    },
    {
      "fullUrl": "urn:uuid:83f1fa4a-bb55-4132-ba1b-038baf94056a",
      "resource": {
        "resourceType": "Observation",
        "id": "83f1fa4a-bb55-4132-ba1b-038baf94056a",
        "meta": {
          "profile": [
            "http://hl7.eu/fhir/laboratory/StructureDefinition/Observation-resultslab-eu-lab"
          ]
        },
        "performer": [
          {
            "display": "The Central European Lab"
          }
        ],
        "category": [
          {
            "coding": [
              {
                "system": "http://terminology.hl7.org/CodeSystem/observation-category",
                "code": "laboratory"
              }
            ]
          }
        ],
        "code": {
          "coding": [
            {
              "code": "2345-7",
              "system": "http://loinc.org",
              "display": "Glucose [Mass/volume] in Serum or Plasma"
            }
          ],
          "text": "Glucose [Mass/volume] in Serum or Plasma"
        },
        "valueQuantity": {
          "system": "http://unitsofmeasure.org",
          "value": 67.8,
          "unit": "mg/dL",
          "code": "mg/dL"
        },
        "referenceRange": [
          {
            "low": {
              "value": 70,
              "code": "mg/dL",
              "system": "http://unitsofmeasure.org"
            }
          },
          {
            "high": {
              "value": 99,
              "code": "mg/dL",
              "system": "http://unitsofmeasure.org"
            }
          }
        ],
        "interpretation": [
          {
            "coding": [
              {
                "code": "L",
                "system": "http://terminology.hl7.org/CodeSystem/v3-ObservationInterpretation",
                "display": "Low"
              }
            ]
          }
        ],
        "text": {
          "status": "generated",
          "div": "<div xmlns=\"http://www.w3.org/1999/xhtml\"><table class=\"hl7__eu__lab__report\"><tr><th>Test</th><th>08-Sep-2015</th><th>Reference&#xA0;Range</th><th>Unit</th></tr><tr><td>Glucose [Mass/volume] in Serum or Plasma</td><td>67.8</td><td>70 - 99</td><td>L</td><td>mg/dL</td></tr></table></div>"
        },
        "status": "final",
        "subject": {
          "reference": "urn:uuid:06e38df0-8ae0-40b0-9bdd-f126d1d311f9",
          "display": "Meaghan Neary"
        },
        "effectiveDateTime": "2015-09-07T22:11:04Z",
        "specimen": {
          "reference": "urn:uuid:87396eb9-09bb-4f08-bbf8-caf5f382bf73"
        }
      }
    },
    {
      "fullUrl": "urn:uuid:8e7357cc-7528-487e-859f-fbb96054f08f",
      "resource": {
        "resourceType": "Observation",
        "id": "8e7357cc-7528-487e-859f-fbb96054f08f",
        "meta": {
          "profile": [
            "http://hl7.eu/fhir/laboratory/StructureDefinition/Observation-resultslab-eu-lab"
          ]
        },
        "performer": [
          {
            "display": "The Central European Lab"
          }
        ],
        "category": [
          {
            "coding": [
              {
                "system": "http://terminology.hl7.org/CodeSystem/observation-category",
                "code": "laboratory"
              }
            ]
          }
        ],
        "code": {
          "coding": [
            {
              "code": "3094-0",
              "system": "http://loinc.org",
              "display": "Urea nitrogen [Mass/volume] in Serum or Plasma"
            }
          ],
          "text": "Urea nitrogen [Mass/volume] in Serum or Plasma"
        },
        "valueQuantity": {
          "system": "http://unitsofmeasure.org",
          "value": 19.3,
          "unit": "mg/dL",
          "code": "mg/dL"
        },
        "referenceRange": [
          {
            "low": {
              "value": 7,
              "code": "mg/dL",
              "system": "http://unitsofmeasure.org"
            }
          },
          {
            "high": {
              "value": 50,
              "code": "mg/dL",
              "system": "http://unitsofmeasure.org"
            }
          }
        ],
        "text": {
          "status": "generated",
          "div": "<div xmlns=\"http://www.w3.org/1999/xhtml\"><table class=\"hl7__eu__lab__report\"><tr><th>Test</th><th>08-Sep-2015</th><th>Reference&#xA0;Range</th><th>Unit</th></tr><tr><td>Urea nitrogen [Mass/volume] in Serum or Plasma</td><td>19.3</td><td>7 - 50</td><td></td><td>mg/dL</td></tr></table></div>"
        },
        "status": "final",
        "subject": {
          "reference": "urn:uuid:06e38df0-8ae0-40b0-9bdd-f126d1d311f9",
          "display": "Meaghan Neary"
        },
        "effectiveDateTime": "2015-09-07T22:11:04Z",
        "specimen": {
          "reference": "urn:uuid:87396eb9-09bb-4f08-bbf8-caf5f382bf73"
        }
      }
    },
    {
      "fullUrl": "urn:uuid:f17e8698-14ae-462d-ac05-f33ca94f9deb",
      "resource": {
        "resourceType": "Observation",
        "id": "f17e8698-14ae-462d-ac05-f33ca94f9deb",
        "meta": {
          "profile": [
            "http://hl7.eu/fhir/laboratory/StructureDefinition/Observation-resultslab-eu-lab"
          ]
        },
        "performer": [
          {
            "display": "The Central European Lab"
          }
        ],
        "category": [
          {
            "coding": [
              {
                "system": "http://terminology.hl7.org/CodeSystem/observation-category",
                "code": "laboratory"
              }
            ]
          }
        ],
        "code": {
          "coding": [
            {
              "code": "2160-0",
              "system": "http://loinc.org",
              "display": "Creatinine [Mass/volume] in Serum or Plasma"
            }
          ],
          "text": "Creatinine [Mass/volume] in Serum or Plasma"
        },
        "valueQuantity": {
          "system": "http://unitsofmeasure.org",
          "value": 2.1,
          "unit": "mg/dL",
          "code": "mg/dL"
        },
        "referenceRange": [
          {
            "low": {
              "value": 0.6,
              "code": "mg/dL",
              "system": "http://unitsofmeasure.org"
            }
          },
          {
            "high": {
              "value": 1.1,
              "code": "mg/dL",
              "system": "http://unitsofmeasure.org"
            }
          }
        ],
        "interpretation": [
          {
            "coding": [
              {
                "code": "H",
                "system": "http://terminology.hl7.org/CodeSystem/v3-ObservationInterpretation",
                "display": "High"
              }
            ]
          }
        ],
        "text": {
          "status": "generated",
          "div": "<div xmlns=\"http://www.w3.org/1999/xhtml\"><table class=\"hl7__eu__lab__report\"><tr><th>Test</th><th>08-Sep-2015</th><th>Reference&#xA0;Range</th><th>Unit</th></tr><tr><td>Creatinine [Mass/volume] in Serum or Plasma</td><td>2.1</td><td>0.6 - 1.1</td><td>H</td><td>mg/dL</td></tr></table></div>"
        },
        "status": "final",
        "subject": {
          "reference": "urn:uuid:06e38df0-8ae0-40b0-9bdd-f126d1d311f9",
          "display": "Meaghan Neary"
        },
        "effectiveDateTime": "2015-09-07T22:11:04Z",
        "specimen": {
          "reference": "urn:uuid:87396eb9-09bb-4f08-bbf8-caf5f382bf73"
        }
      }
    },
    {
      "fullUrl": "urn:uuid:f6dc570a-d339-4af4-a8a3-de78acde229d",
      "resource": {
        "resourceType": "Observation",
        "id": "f6dc570a-d339-4af4-a8a3-de78acde229d",
        "meta": {
          "profile": [
            "http://hl7.eu/fhir/laboratory/StructureDefinition/Observation-resultslab-eu-lab"
          ]
        },
        "performer": [
          {
            "display": "The Central European Lab"
          }
        ],
        "category": [
          {
            "coding": [
              {
                "system": "http://terminology.hl7.org/CodeSystem/observation-category",
                "code": "laboratory"
              }
            ]
          }
        ],
        "code": {
          "coding": [
            {
              "code": "17861-6",
              "system": "http://loinc.org",
              "display": "Calcium [Mass/volume] in Serum or Plasma"
            }
          ],
          "text": "Calcium [Mass/volume] in Serum or Plasma"
        },
        "valueQuantity": {
          "system": "http://unitsofmeasure.org",
          "value": 8.8,
          "unit": "mg/dL",
          "code": "mg/dL"
        },
        "referenceRange": [
          {
            "low": {
              "value": 8.6,
              "code": "mg/dL",
              "system": "http://unitsofmeasure.org"
            }
          },
          {
            "high": {
              "value": 10.4,
              "code": "mg/dL",
              "system": "http://unitsofmeasure.org"
            }
          }
        ],
        "text": {
          "status": "generated",
          "div": "<div xmlns=\"http://www.w3.org/1999/xhtml\"><table class=\"hl7__eu__lab__report\"><tr><th>Test</th><th>08-Sep-2015</th><th>Reference&#xA0;Range</th><th>Unit</th></tr><tr><td>Calcium [Mass/volume] in Serum or Plasma</td><td>8.8</td><td>8.6 - 10.4</td><td></td><td>mg/dL</td></tr></table></div>"
        },
        "status": "final",
        "subject": {
          "reference": "urn:uuid:06e38df0-8ae0-40b0-9bdd-f126d1d311f9",
          "display": "Meaghan Neary"
        },
        "effectiveDateTime": "2015-09-07T22:11:04Z",
        "specimen": {
          "reference": "urn:uuid:87396eb9-09bb-4f08-bbf8-caf5f382bf73"
        }
      }
    },
    {
      "fullUrl": "urn:uuid:f1b7ebf4-9672-4783-b030-321af47aedf3",
      "resource": {
        "resourceType": "Observation",
        "id": "f1b7ebf4-9672-4783-b030-321af47aedf3",
        "meta": {
          "profile": [
            "http://hl7.eu/fhir/laboratory/StructureDefinition/Observation-resultslab-eu-lab"
          ]
        },
        "performer": [
          {
            "display": "The Central European Lab"
          }
        ],
        "category": [
          {
            "coding": [
              {
                "system": "http://terminology.hl7.org/CodeSystem/observation-category",
                "code": "laboratory"
              }
            ]
          }
        ],
        "code": {
          "coding": [
            {
              "code": "2951-2",
              "system": "http://loinc.org",
              "display": "Sodium [Moles/volume] in Serum or Plasma"
            }
          ],
          "text": "Sodium [Moles/volume] in Serum or Plasma"
        },
        "valueQuantity": {
          "system": "http://unitsofmeasure.org",
          "value": 141.3,
          "unit": "mmol/L",
          "code": "mmol/L"
        },
        "referenceRange": [
          {
            "low": {
              "value": 135,
              "code": "mmol/L",
              "system": "http://unitsofmeasure.org"
            }
          },
          {
            "high": {
              "value": 145,
              "code": "mmol/L",
              "system": "http://unitsofmeasure.org"
            }
          }
        ],
        "text": {
          "status": "generated",
          "div": "<div xmlns=\"http://www.w3.org/1999/xhtml\"><table class=\"hl7__eu__lab__report\"><tr><th>Test</th><th>08-Sep-2015</th><th>Reference&#xA0;Range</th><th>Unit</th></tr><tr><td>Sodium [Moles/volume] in Serum or Plasma</td><td>141.3</td><td>135 - 145</td><td></td><td>mmol/L</td></tr></table></div>"
        },
        "status": "final",
        "subject": {
          "reference": "urn:uuid:06e38df0-8ae0-40b0-9bdd-f126d1d311f9",
          "display": "Meaghan Neary"
        },
        "effectiveDateTime": "2015-09-07T22:11:04Z",
        "specimen": {
          "reference": "urn:uuid:87396eb9-09bb-4f08-bbf8-caf5f382bf73"
        }
      }
    },
    {
      "fullUrl": "urn:uuid:40c3e408-9bf0-4910-84bb-a4ec7f36d021",
      "resource": {
        "resourceType": "Observation",
        "id": "40c3e408-9bf0-4910-84bb-a4ec7f36d021",
        "meta": {
          "profile": [
            "http://hl7.eu/fhir/laboratory/StructureDefinition/Observation-resultslab-eu-lab"
          ]
        },
        "performer": [
          {
            "display": "The Central European Lab"
          }
        ],
        "category": [
          {
            "coding": [
              {
                "system": "http://terminology.hl7.org/CodeSystem/observation-category",
                "code": "laboratory"
              }
            ]
          }
        ],
        "code": {
          "coding": [
            {
              "code": "2823-3",
              "system": "http://loinc.org",
              "display": "Potassium [Moles/volume] in Serum or Plasma"
            }
          ],
          "text": "Potassium [Moles/volume] in Serum or Plasma"
        },
        "valueQuantity": {
          "system": "http://unitsofmeasure.org",
          "value": 4.3,
          "unit": "mmol/L",
          "code": "mmol/L"
        },
        "referenceRange": [
          {
            "low": {
              "value": 3.5,
              "code": "mmol/L",
              "system": "http://unitsofmeasure.org"
            }
          },
          {
            "high": {
              "value": 5.1,
              "code": "mmol/L",
              "system": "http://unitsofmeasure.org"
            }
          }
        ],
        "text": {
          "status": "generated",
          "div": "<div xmlns=\"http://www.w3.org/1999/xhtml\"><table class=\"hl7__eu__lab__report\"><tr><th>Test</th><th>08-Sep-2015</th><th>Reference&#xA0;Range</th><th>Unit</th></tr><tr><td>Potassium [Moles/volume] in Serum or Plasma</td><td>4.3</td><td>3.5 - 5.1</td><td></td><td>mmol/L</td></tr></table></div>"
        },
        "status": "final",
        "subject": {
          "reference": "urn:uuid:06e38df0-8ae0-40b0-9bdd-f126d1d311f9",
          "display": "Meaghan Neary"
        },
        "effectiveDateTime": "2015-09-07T22:11:04Z",
        "specimen": {
          "reference": "urn:uuid:87396eb9-09bb-4f08-bbf8-caf5f382bf73"
        }
      }
    },
    {
      "fullUrl": "urn:uuid:e69dc26c-9636-4823-99ab-d8aff1e75778",
      "resource": {
        "resourceType": "Observation",
        "id": "e69dc26c-9636-4823-99ab-d8aff1e75778",
        "meta": {
          "profile": [
            "http://hl7.eu/fhir/laboratory/StructureDefinition/Observation-resultslab-eu-lab"
          ]
        },
        "performer": [
          {
            "display": "The Central European Lab"
          }
        ],
        "category": [
          {
            "coding": [
              {
                "system": "http://terminology.hl7.org/CodeSystem/observation-category",
                "code": "laboratory"
              }
            ]
          }
        ],
        "code": {
          "coding": [
            {
              "code": "2075-0",
              "system": "http://loinc.org",
              "display": "Chloride [Moles/volume] in Serum or Plasma"
            }
          ],
          "text": "Chloride [Moles/volume] in Serum or Plasma"
        },
        "valueQuantity": {
          "system": "http://unitsofmeasure.org",
          "value": 102.5,
          "unit": "mmol/L",
          "code": "mmol/L"
        },
        "referenceRange": [
          {
            "low": {
              "value": 98,
              "code": "mmol/L",
              "system": "http://unitsofmeasure.org"
            }
          },
          {
            "high": {
              "value": 108,
              "code": "mmol/L",
              "system": "http://unitsofmeasure.org"
            }
          }
        ],
        "text": {
          "status": "generated",
          "div": "<div xmlns=\"http://www.w3.org/1999/xhtml\"><table class=\"hl7__eu__lab__report\"><tr><th>Test</th><th>08-Sep-2015</th><th>Reference&#xA0;Range</th><th>Unit</th></tr><tr><td>Chloride [Moles/volume] in Serum or Plasma</td><td>102.5</td><td>98 - 108</td><td></td><td>mmol/L</td></tr></table></div>"
        },
        "status": "final",
        "subject": {
          "reference": "urn:uuid:06e38df0-8ae0-40b0-9bdd-f126d1d311f9",
          "display": "Meaghan Neary"
        },
        "effectiveDateTime": "2015-09-07T22:11:04Z",
        "specimen": {
          "reference": "urn:uuid:87396eb9-09bb-4f08-bbf8-caf5f382bf73"
        }
      }
    },
    {
      "fullUrl": "urn:uuid:f2b8c0c3-ec53-407f-9e59-efd79b1762bc",
      "resource": {
        "resourceType": "Observation",
        "id": "f2b8c0c3-ec53-407f-9e59-efd79b1762bc",
        "meta": {
          "profile": [
            "http://hl7.eu/fhir/laboratory/StructureDefinition/Observation-resultslab-eu-lab"
          ]
        },
        "performer": [
          {
            "display": "The Central European Lab"
          }
        ],
        "category": [
          {
            "coding": [
              {
                "system": "http://terminology.hl7.org/CodeSystem/observation-category",
                "code": "laboratory"
              }
            ]
          }
        ],
        "code": {
          "coding": [
            {
              "code": "2028-9",
              "system": "http://loinc.org",
              "display": "Carbon dioxide, total [Moles/volume] in Serum or Plasma"
            }
          ],
          "text": "Carbon dioxide, total [Moles/volume] in Serum or Plasma"
        },
        "valueQuantity": {
          "system": "http://unitsofmeasure.org",
          "value": 28.4,
          "unit": "mmol/L",
          "code": "mmol/L"
        },
        "referenceRange": [
          {
            "low": {
              "value": 22,
              "code": "mmol/L",
              "system": "http://unitsofmeasure.org"
            }
          },
          {
            "high": {
              "value": 32,
              "code": "mmol/L",
              "system": "http://unitsofmeasure.org"
            }
          }
        ],
        "text": {
          "status": "generated",
          "div": "<div xmlns=\"http://www.w3.org/1999/xhtml\"><table class=\"hl7__eu__lab__report\"><tr><th>Test</th><th>08-Sep-2015</th><th>Reference&#xA0;Range</th><th>Unit</th></tr><tr><td>Carbon dioxide, total [Moles/volume] in Serum or Plasma</td><td>28.4</td><td>22 - 32</td><td></td><td>mmol/L</td></tr></table></div>"
        },
        "status": "final",
        "subject": {
          "reference": "urn:uuid:06e38df0-8ae0-40b0-9bdd-f126d1d311f9",
          "display": "Meaghan Neary"
        },
        "effectiveDateTime": "2015-09-07T22:11:04Z",
        "specimen": {
          "reference": "urn:uuid:87396eb9-09bb-4f08-bbf8-caf5f382bf73"
        }
      }
    },
    {
      "fullUrl": "urn:uuid:743dfa2c-631b-4ce5-8c66-d08a95ddc50c",
      "resource": {
        "resourceType": "Observation",
        "id": "743dfa2c-631b-4ce5-8c66-d08a95ddc50c",
        "meta": {
          "profile": [
            "http://hl7.eu/fhir/laboratory/StructureDefinition/Observation-resultslab-eu-lab"
          ]
        },
        "performer": [
          {
            "display": "The Central European Lab"
          }
        ],
        "category": [
          {
            "coding": [
              {
                "system": "http://terminology.hl7.org/CodeSystem/observation-category",
                "code": "laboratory"
              }
            ]
          }
        ],
        "code": {
          "coding": [
            {
              "code": "5767-9",
              "system": "http://loinc.org",
              "display": "Appearance of Urine"
            }
          ],
          "text": "Appearance of Urine"
        },
        "text": {
          "status": "generated",
          "div": "<div xmlns=\"http://www.w3.org/1999/xhtml\"><table class=\"hl7__eu__lab__report\"><tr><th>Test</th><th>08-Sep-2015</th><th>Reference&#xA0;Range</th><th>Unit</th></tr><tr><td>Appearance of Urine</td></tr></table></div>"
        },
        "status": "final",
        "subject": {
          "reference": "urn:uuid:06e38df0-8ae0-40b0-9bdd-f126d1d311f9",
          "display": "Meaghan Neary"
        },
        "effectiveDateTime": "2015-09-07T22:11:04Z",
        "specimen": {
          "reference": "urn:uuid:f0915cd7-c68e-4f3b-a4b1-3393eeb35a51"
        }
      }
    },
    {
      "fullUrl": "urn:uuid:bff2ee63-70db-4d73-8b9c-7fd7ebf11c93",
      "resource": {
        "resourceType": "Observation",
        "id": "bff2ee63-70db-4d73-8b9c-7fd7ebf11c93",
        "meta": {
          "profile": [
            "http://hl7.eu/fhir/laboratory/StructureDefinition/Observation-resultslab-eu-lab"
          ]
        },
        "performer": [
          {
            "display": "The Central European Lab"
          }
        ],
        "category": [
          {
            "coding": [
              {
                "system": "http://terminology.hl7.org/CodeSystem/observation-category",
                "code": "laboratory"
              }
            ]
          }
        ],
        "code": {
          "coding": [
            {
              "code": "34533-0",
              "system": "http://loinc.org",
              "display": "Odor of Urine"
            }
          ],
          "text": "Odor of Urine"
        },
        "text": {
          "status": "generated",
          "div": "<div xmlns=\"http://www.w3.org/1999/xhtml\"><table class=\"hl7__eu__lab__report\"><tr><th>Test</th><th>08-Sep-2015</th><th>Reference&#xA0;Range</th><th>Unit</th></tr><tr><td>Odor of Urine</td></tr></table></div>"
        },
        "status": "final",
        "subject": {
          "reference": "urn:uuid:06e38df0-8ae0-40b0-9bdd-f126d1d311f9",
          "display": "Meaghan Neary"
        },
        "effectiveDateTime": "2015-09-07T22:11:04Z",
        "specimen": {
          "reference": "urn:uuid:f0915cd7-c68e-4f3b-a4b1-3393eeb35a51"
        }
      }
    },
    {
      "fullUrl": "urn:uuid:1b35845a-e867-4549-a552-207e1a83ed3b",
      "resource": {
        "resourceType": "Observation",
        "id": "1b35845a-e867-4549-a552-207e1a83ed3b",
        "meta": {
          "profile": [
            "http://hl7.eu/fhir/laboratory/StructureDefinition/Observation-resultslab-eu-lab"
          ]
        },
        "performer": [
          {
            "display": "The Central European Lab"
          }
        ],
        "category": [
          {
            "coding": [
              {
                "system": "http://terminology.hl7.org/CodeSystem/observation-category",
                "code": "laboratory"
              }
            ]
          }
        ],
        "code": {
          "coding": [
            {
              "code": "32167-9",
              "system": "http://loinc.org",
              "display": "Clarity of Urine"
            }
          ],
          "text": "Clarity of Urine"
        },
        "text": {
          "status": "generated",
          "div": "<div xmlns=\"http://www.w3.org/1999/xhtml\"><table class=\"hl7__eu__lab__report\"><tr><th>Test</th><th>08-Sep-2015</th><th>Reference&#xA0;Range</th><th>Unit</th></tr><tr><td>Clarity of Urine</td></tr></table></div>"
        },
        "status": "final",
        "subject": {
          "reference": "urn:uuid:06e38df0-8ae0-40b0-9bdd-f126d1d311f9",
          "display": "Meaghan Neary"
        },
        "effectiveDateTime": "2015-09-07T22:11:04Z",
        "specimen": {
          "reference": "urn:uuid:f0915cd7-c68e-4f3b-a4b1-3393eeb35a51"
        }
      }
    },
    {
      "fullUrl": "urn:uuid:322e4e00-c7e5-45d4-8b82-12bbbd3b38fe",
      "resource": {
        "resourceType": "Observation",
        "id": "322e4e00-c7e5-45d4-8b82-12bbbd3b38fe",
        "meta": {
          "profile": [
            "http://hl7.eu/fhir/laboratory/StructureDefinition/Observation-resultslab-eu-lab"
          ]
        },
        "performer": [
          {
            "display": "The Central European Lab"
          }
        ],
        "category": [
          {
            "coding": [
              {
                "system": "http://terminology.hl7.org/CodeSystem/observation-category",
                "code": "laboratory"
              }
            ]
          }
        ],
        "code": {
          "coding": [
            {
              "code": "5778-6",
              "system": "http://loinc.org",
              "display": "Color of Urine"
            }
          ],
          "text": "Color of Urine"
        },
        "text": {
          "status": "generated",
          "div": "<div xmlns=\"http://www.w3.org/1999/xhtml\"><table class=\"hl7__eu__lab__report\"><tr><th>Test</th><th>08-Sep-2015</th><th>Reference&#xA0;Range</th><th>Unit</th></tr><tr><td>Color of Urine</td></tr></table></div>"
        },
        "status": "final",
        "subject": {
          "reference": "urn:uuid:06e38df0-8ae0-40b0-9bdd-f126d1d311f9",
          "display": "Meaghan Neary"
        },
        "effectiveDateTime": "2015-09-07T22:11:04Z",
        "specimen": {
          "reference": "urn:uuid:f0915cd7-c68e-4f3b-a4b1-3393eeb35a51"
        }
      }
    },
    {
      "fullUrl": "urn:uuid:218464f6-508d-4d1a-8464-af2e3b20cfa2",
      "resource": {
        "resourceType": "Observation",
        "id": "218464f6-508d-4d1a-8464-af2e3b20cfa2",
        "meta": {
          "profile": [
            "http://hl7.eu/fhir/laboratory/StructureDefinition/Observation-resultslab-eu-lab"
          ]
        },
        "performer": [
          {
            "display": "The Central European Lab"
          }
        ],
        "category": [
          {
            "coding": [
              {
                "system": "http://terminology.hl7.org/CodeSystem/observation-category",
                "code": "laboratory"
              }
            ]
          }
        ],
        "code": {
          "coding": [
            {
              "code": "5792-7",
              "system": "http://loinc.org",
              "display": "Glucose [Mass/volume] in Urine by Test strip"
            }
          ],
          "text": "Glucose [Mass/volume] in Urine by Test strip"
        },
        "valueQuantity": {
          "system": "http://unitsofmeasure.org",
          "value": 1.9,
          "unit": "mg/dL",
          "code": "mg/dL"
        },
        "referenceRange": [
          {
            "low": {
              "value": 0.8,
              "code": "mg/dL",
              "system": "http://unitsofmeasure.org"
            }
          },
          {
            "high": {
              "value": 0,
              "code": "mg/dL",
              "system": "http://unitsofmeasure.org"
            }
          }
        ],
        "interpretation": [
          {
            "coding": [
              {
                "code": "H",
                "system": "http://terminology.hl7.org/CodeSystem/v3-ObservationInterpretation",
                "display": "High"
              }
            ]
          }
        ],
        "text": {
          "status": "generated",
          "div": "<div xmlns=\"http://www.w3.org/1999/xhtml\"><table class=\"hl7__eu__lab__report\"><tr><th>Test</th><th>08-Sep-2015</th><th>Reference&#xA0;Range</th><th>Unit</th></tr><tr><td>Glucose [Mass/volume] in Urine by Test strip</td><td>1.9</td><td>0.8 - 0</td><td>H</td><td>mg/dL</td></tr></table></div>"
        },
        "status": "final",
        "subject": {
          "reference": "urn:uuid:06e38df0-8ae0-40b0-9bdd-f126d1d311f9",
          "display": "Meaghan Neary"
        },
        "effectiveDateTime": "2015-09-07T22:11:04Z",
        "specimen": {
          "reference": "urn:uuid:f0915cd7-c68e-4f3b-a4b1-3393eeb35a51"
        }
      }
    },
    {
      "fullUrl": "urn:uuid:92a4de56-e5f0-4063-85a6-ccee4d082e15",
      "resource": {
        "resourceType": "Observation",
        "id": "92a4de56-e5f0-4063-85a6-ccee4d082e15",
        "meta": {
          "profile": [
            "http://hl7.eu/fhir/laboratory/StructureDefinition/Observation-resultslab-eu-lab"
          ]
        },
        "performer": [
          {
            "display": "The Central European Lab"
          }
        ],
        "category": [
          {
            "coding": [
              {
                "system": "http://terminology.hl7.org/CodeSystem/observation-category",
                "code": "laboratory"
              }
            ]
          }
        ],
        "code": {
          "coding": [
            {
              "code": "25428-4",
              "system": "http://loinc.org",
              "display": "Glucose [Presence] in Urine by Test strip"
            }
          ],
          "text": "Glucose [Presence] in Urine by Test strip"
        },
        "text": {
          "status": "generated",
          "div": "<div xmlns=\"http://www.w3.org/1999/xhtml\"><table class=\"hl7__eu__lab__report\"><tr><th>Test</th><th>08-Sep-2015</th><th>Reference&#xA0;Range</th><th>Unit</th></tr><tr><td>Glucose [Presence] in Urine by Test strip</td></tr></table></div>"
        },
        "status": "final",
        "subject": {
          "reference": "urn:uuid:06e38df0-8ae0-40b0-9bdd-f126d1d311f9",
          "display": "Meaghan Neary"
        },
        "effectiveDateTime": "2015-09-07T22:11:04Z",
        "specimen": {
          "reference": "urn:uuid:f0915cd7-c68e-4f3b-a4b1-3393eeb35a51"
        }
      }
    },
    {
      "fullUrl": "urn:uuid:045358a5-1a0c-4e1c-abf2-d1b7851d19bc",
      "resource": {
        "resourceType": "Observation",
        "id": "045358a5-1a0c-4e1c-abf2-d1b7851d19bc",
        "meta": {
          "profile": [
            "http://hl7.eu/fhir/laboratory/StructureDefinition/Observation-resultslab-eu-lab"
          ]
        },
        "performer": [
          {
            "display": "The Central European Lab"
          }
        ],
        "category": [
          {
            "coding": [
              {
                "system": "http://terminology.hl7.org/CodeSystem/observation-category",
                "code": "laboratory"
              }
            ]
          }
        ],
        "code": {
          "coding": [
            {
              "code": "20505-4",
              "system": "http://loinc.org",
              "display": "Bilirubin.total [Mass/volume] in Urine by Test strip"
            }
          ],
          "text": "Bilirubin.total [Mass/volume] in Urine by Test strip"
        },
        "valueQuantity": {
          "system": "http://unitsofmeasure.org",
          "value": 0.8,
          "unit": "mg/dL",
          "code": "mg/dL"
        },
        "referenceRange": [
          {
            "low": {
              "value": 0,
              "code": "mg/dL",
              "system": "http://unitsofmeasure.org"
            }
          },
          {
            "high": {
              "value": 1,
              "code": "mg/dL",
              "system": "http://unitsofmeasure.org"
            }
          }
        ],
        "text": {
          "status": "generated",
          "div": "<div xmlns=\"http://www.w3.org/1999/xhtml\"><table class=\"hl7__eu__lab__report\"><tr><th>Test</th><th>08-Sep-2015</th><th>Reference&#xA0;Range</th><th>Unit</th></tr><tr><td>Bilirubin.total [Mass/volume] in Urine by Test strip</td><td>0.8</td><td>0 - 1</td><td></td><td>mg/dL</td></tr></table></div>"
        },
        "status": "final",
        "subject": {
          "reference": "urn:uuid:06e38df0-8ae0-40b0-9bdd-f126d1d311f9",
          "display": "Meaghan Neary"
        },
        "effectiveDateTime": "2015-09-07T22:11:04Z",
        "specimen": {
          "reference": "urn:uuid:f0915cd7-c68e-4f3b-a4b1-3393eeb35a51"
        }
      }
    },
    {
      "fullUrl": "urn:uuid:85e6853c-643e-43f9-8ffa-ad2bc83d34a8",
      "resource": {
        "resourceType": "Observation",
        "id": "85e6853c-643e-43f9-8ffa-ad2bc83d34a8",
        "meta": {
          "profile": [
            "http://hl7.eu/fhir/laboratory/StructureDefinition/Observation-resultslab-eu-lab"
          ]
        },
        "performer": [
          {
            "display": "The Central European Lab"
          }
        ],
        "category": [
          {
            "coding": [
              {
                "system": "http://terminology.hl7.org/CodeSystem/observation-category",
                "code": "laboratory"
              }
            ]
          }
        ],
        "code": {
          "coding": [
            {
              "code": "5770-3",
              "system": "http://loinc.org",
              "display": "Bilirubin.total [Presence] in Urine by Test strip"
            }
          ],
          "text": "Bilirubin.total [Presence] in Urine by Test strip"
        },
        "text": {
          "status": "generated",
          "div": "<div xmlns=\"http://www.w3.org/1999/xhtml\"><table class=\"hl7__eu__lab__report\"><tr><th>Test</th><th>08-Sep-2015</th><th>Reference&#xA0;Range</th><th>Unit</th></tr><tr><td>Bilirubin.total [Presence] in Urine by Test strip</td></tr></table></div>"
        },
        "status": "final",
        "subject": {
          "reference": "urn:uuid:06e38df0-8ae0-40b0-9bdd-f126d1d311f9",
          "display": "Meaghan Neary"
        },
        "effectiveDateTime": "2015-09-07T22:11:04Z",
        "specimen": {
          "reference": "urn:uuid:f0915cd7-c68e-4f3b-a4b1-3393eeb35a51"
        }
      }
    },
    {
      "fullUrl": "urn:uuid:aac19dea-e702-4f66-b0a1-6c5ea2d5362d",
      "resource": {
        "resourceType": "Observation",
        "id": "aac19dea-e702-4f66-b0a1-6c5ea2d5362d",
        "meta": {
          "profile": [
            "http://hl7.eu/fhir/laboratory/StructureDefinition/Observation-resultslab-eu-lab"
          ]
        },
        "performer": [
          {
            "display": "The Central European Lab"
          }
        ],
        "category": [
          {
            "coding": [
              {
                "system": "http://terminology.hl7.org/CodeSystem/observation-category",
                "code": "laboratory"
              }
            ]
          }
        ],
        "code": {
          "coding": [
            {
              "code": "5797-6",
              "system": "http://loinc.org",
              "display": "Ketones [Mass/volume] in Urine by Test strip"
            }
          ],
          "text": "Ketones [Mass/volume] in Urine by Test strip"
        },
        "valueQuantity": {
          "system": "http://unitsofmeasure.org",
          "value": 6.1,
          "unit": "mg/dL",
          "code": "mg/dL"
        },
        "referenceRange": [
          {
            "low": {
              "value": 0,
              "code": "mg/dL",
              "system": "http://unitsofmeasure.org"
            }
          },
          {
            "high": {
              "value": 4,
              "code": "mg/dL",
              "system": "http://unitsofmeasure.org"
            }
          }
        ],
        "interpretation": [
          {
            "coding": [
              {
                "code": "H",
                "system": "http://terminology.hl7.org/CodeSystem/v3-ObservationInterpretation",
                "display": "High"
              }
            ]
          }
        ],
        "text": {
          "status": "generated",
          "div": "<div xmlns=\"http://www.w3.org/1999/xhtml\"><table class=\"hl7__eu__lab__report\"><tr><th>Test</th><th>08-Sep-2015</th><th>Reference&#xA0;Range</th><th>Unit</th></tr><tr><td>Ketones [Mass/volume] in Urine by Test strip</td><td>6.1</td><td>0 - 4</td><td>H</td><td>mg/dL</td></tr></table></div>"
        },
        "status": "final",
        "subject": {
          "reference": "urn:uuid:06e38df0-8ae0-40b0-9bdd-f126d1d311f9",
          "display": "Meaghan Neary"
        },
        "effectiveDateTime": "2015-09-07T22:11:04Z",
        "specimen": {
          "reference": "urn:uuid:f0915cd7-c68e-4f3b-a4b1-3393eeb35a51"
        }
      }
    },
    {
      "fullUrl": "urn:uuid:a0e7624f-1648-4a7d-a2ca-ea1b9a103631",
      "resource": {
        "resourceType": "Observation",
        "id": "a0e7624f-1648-4a7d-a2ca-ea1b9a103631",
        "meta": {
          "profile": [
            "http://hl7.eu/fhir/laboratory/StructureDefinition/Observation-resultslab-eu-lab"
          ]
        },
        "performer": [
          {
            "display": "The Central European Lab"
          }
        ],
        "category": [
          {
            "coding": [
              {
                "system": "http://terminology.hl7.org/CodeSystem/observation-category",
                "code": "laboratory"
              }
            ]
          }
        ],
        "code": {
          "coding": [
            {
              "code": "2514-8",
              "system": "http://loinc.org",
              "display": "Ketones [Presence] in Urine by Test strip"
            }
          ],
          "text": "Ketones [Presence] in Urine by Test strip"
        },
        "text": {
          "status": "generated",
          "div": "<div xmlns=\"http://www.w3.org/1999/xhtml\"><table class=\"hl7__eu__lab__report\"><tr><th>Test</th><th>08-Sep-2015</th><th>Reference&#xA0;Range</th><th>Unit</th></tr><tr><td>Ketones [Presence] in Urine by Test strip</td></tr></table></div>"
        },
        "status": "final",
        "subject": {
          "reference": "urn:uuid:06e38df0-8ae0-40b0-9bdd-f126d1d311f9",
          "display": "Meaghan Neary"
        },
        "effectiveDateTime": "2015-09-07T22:11:04Z",
        "specimen": {
          "reference": "urn:uuid:f0915cd7-c68e-4f3b-a4b1-3393eeb35a51"
        }
      }
    },
    {
      "fullUrl": "urn:uuid:d9a0f214-f437-4b32-91bc-085092e870ca",
      "resource": {
        "resourceType": "Observation",
        "id": "d9a0f214-f437-4b32-91bc-085092e870ca",
        "meta": {
          "profile": [
            "http://hl7.eu/fhir/laboratory/StructureDefinition/Observation-resultslab-eu-lab"
          ]
        },
        "performer": [
          {
            "display": "The Central European Lab"
          }
        ],
        "category": [
          {
            "coding": [
              {
                "system": "http://terminology.hl7.org/CodeSystem/observation-category",
                "code": "laboratory"
              }
            ]
          }
        ],
        "code": {
          "coding": [
            {
              "code": "5811-5",
              "system": "http://loinc.org",
              "display": "Specific gravity of Urine by Test strip"
            }
          ],
          "text": "Specific gravity of Urine by Test strip"
        },
        "valueQuantity": {
          "system": "http://unitsofmeasure.org",
          "value": 1,
          "unit": "{nominal}",
          "code": "{nominal}"
        },
        "referenceRange": [
          {
            "low": {
              "value": 1.005,
              "code": "g/mL",
              "system": "http://unitsofmeasure.org"
            }
          },
          {
            "high": {
              "value": 1.03,
              "code": "g/mL",
              "system": "http://unitsofmeasure.org"
            }
          }
        ],
        "interpretation": [
          {
            "coding": [
              {
                "code": "L",
                "system": "http://terminology.hl7.org/CodeSystem/v3-ObservationInterpretation",
                "display": "Low"
              }
            ]
          }
        ],
        "text": {
          "status": "generated",
          "div": "<div xmlns=\"http://www.w3.org/1999/xhtml\"><table class=\"hl7__eu__lab__report\"><tr><th>Test</th><th>08-Sep-2015</th><th>Reference&#xA0;Range</th><th>Unit</th></tr><tr><td>Specific gravity of Urine by Test strip</td><td>1.0</td><td>1.005 - 1.03</td><td>L</td><td>{nominal}</td></tr></table></div>"
        },
        "status": "final",
        "subject": {
          "reference": "urn:uuid:06e38df0-8ae0-40b0-9bdd-f126d1d311f9",
          "display": "Meaghan Neary"
        },
        "effectiveDateTime": "2015-09-07T22:11:04Z",
        "specimen": {
          "reference": "urn:uuid:f0915cd7-c68e-4f3b-a4b1-3393eeb35a51"
        }
      }
    },
    {
      "fullUrl": "urn:uuid:4bf3a299-dc55-4659-b92c-756cb1c09026",
      "resource": {
        "resourceType": "Observation",
        "id": "4bf3a299-dc55-4659-b92c-756cb1c09026",
        "meta": {
          "profile": [
            "http://hl7.eu/fhir/laboratory/StructureDefinition/Observation-resultslab-eu-lab"
          ]
        },
        "performer": [
          {
            "display": "The Central European Lab"
          }
        ],
        "category": [
          {
            "coding": [
              {
                "system": "http://terminology.hl7.org/CodeSystem/observation-category",
                "code": "laboratory"
              }
            ]
          }
        ],
        "code": {
          "coding": [
            {
              "code": "5803-2",
              "system": "http://loinc.org",
              "display": "pH of Urine by Test strip"
            }
          ],
          "text": "pH of Urine by Test strip"
        },
        "valueQuantity": {
          "system": "http://unitsofmeasure.org",
          "value": 6.5,
          "unit": "pH",
          "code": "pH"
        },
        "referenceRange": [
          {
            "low": {
              "value": 4.6,
              "code": "pH",
              "system": "http://unitsofmeasure.org"
            }
          },
          {
            "high": {
              "value": 7,
              "code": "pH",
              "system": "http://unitsofmeasure.org"
            }
          }
        ],
        "text": {
          "status": "generated",
          "div": "<div xmlns=\"http://www.w3.org/1999/xhtml\"><table class=\"hl7__eu__lab__report\"><tr><th>Test</th><th>08-Sep-2015</th><th>Reference&#xA0;Range</th><th>Unit</th></tr><tr><td>pH of Urine by Test strip</td><td>6.5</td><td>4.6 - 7</td><td></td><td>pH</td></tr></table></div>"
        },
        "status": "final",
        "subject": {
          "reference": "urn:uuid:06e38df0-8ae0-40b0-9bdd-f126d1d311f9",
          "display": "Meaghan Neary"
        },
        "effectiveDateTime": "2015-09-07T22:11:04Z",
        "specimen": {
          "reference": "urn:uuid:f0915cd7-c68e-4f3b-a4b1-3393eeb35a51"
        }
      }
    },
    {
      "fullUrl": "urn:uuid:c864cd8f-ef31-4add-a55e-cc9e5ec04168",
      "resource": {
        "resourceType": "Observation",
        "id": "c864cd8f-ef31-4add-a55e-cc9e5ec04168",
        "meta": {
          "profile": [
            "http://hl7.eu/fhir/laboratory/StructureDefinition/Observation-resultslab-eu-lab"
          ]
        },
        "performer": [
          {
            "display": "The Central European Lab"
          }
        ],
        "category": [
          {
            "coding": [
              {
                "system": "http://terminology.hl7.org/CodeSystem/observation-category",
                "code": "laboratory"
              }
            ]
          }
        ],
        "code": {
          "coding": [
            {
              "code": "5804-0",
              "system": "http://loinc.org",
              "display": "Protein [Mass/volume] in Urine by Test strip"
            }
          ],
          "text": "Protein [Mass/volume] in Urine by Test strip"
        },
        "valueQuantity": {
          "system": "http://unitsofmeasure.org",
          "value": 227.1,
          "unit": "mg/dL",
          "code": "mg/dL"
        },
        "referenceRange": [
          {
            "low": {
              "value": 0,
              "code": "mg/dL",
              "system": "http://unitsofmeasure.org"
            }
          },
          {
            "high": {
              "value": 14,
              "code": "mg/dL",
              "system": "http://unitsofmeasure.org"
            }
          }
        ],
        "interpretation": [
          {
            "coding": [
              {
                "code": "H",
                "system": "http://terminology.hl7.org/CodeSystem/v3-ObservationInterpretation",
                "display": "High"
              }
            ]
          }
        ],
        "text": {
          "status": "generated",
          "div": "<div xmlns=\"http://www.w3.org/1999/xhtml\"><table class=\"hl7__eu__lab__report\"><tr><th>Test</th><th>08-Sep-2015</th><th>Reference&#xA0;Range</th><th>Unit</th></tr><tr><td>Protein [Mass/volume] in Urine by Test strip</td><td>227.1</td><td>0 - 14</td><td>H</td><td>mg/dL</td></tr></table></div>"
        },
        "status": "final",
        "subject": {
          "reference": "urn:uuid:06e38df0-8ae0-40b0-9bdd-f126d1d311f9",
          "display": "Meaghan Neary"
        },
        "effectiveDateTime": "2015-09-07T22:11:04Z",
        "specimen": {
          "reference": "urn:uuid:f0915cd7-c68e-4f3b-a4b1-3393eeb35a51"
        }
      }
    },
    {
      "fullUrl": "urn:uuid:1a288631-3fd5-47e7-afb5-d1826a72bf6e",
      "resource": {
        "resourceType": "Observation",
        "id": "1a288631-3fd5-47e7-afb5-d1826a72bf6e",
        "meta": {
          "profile": [
            "http://hl7.eu/fhir/laboratory/StructureDefinition/Observation-resultslab-eu-lab"
          ]
        },
        "performer": [
          {
            "display": "The Central European Lab"
          }
        ],
        "category": [
          {
            "coding": [
              {
                "system": "http://terminology.hl7.org/CodeSystem/observation-category",
                "code": "laboratory"
              }
            ]
          }
        ],
        "code": {
          "coding": [
            {
              "code": "20454-5",
              "system": "http://loinc.org",
              "display": "Protein [Presence] in Urine by Test strip"
            }
          ],
          "text": "Protein [Presence] in Urine by Test strip"
        },
        "text": {
          "status": "generated",
          "div": "<div xmlns=\"http://www.w3.org/1999/xhtml\"><table class=\"hl7__eu__lab__report\"><tr><th>Test</th><th>08-Sep-2015</th><th>Reference&#xA0;Range</th><th>Unit</th></tr><tr><td>Protein [Presence] in Urine by Test strip</td></tr></table></div>"
        },
        "status": "final",
        "subject": {
          "reference": "urn:uuid:06e38df0-8ae0-40b0-9bdd-f126d1d311f9",
          "display": "Meaghan Neary"
        },
        "effectiveDateTime": "2015-09-07T22:11:04Z",
        "specimen": {
          "reference": "urn:uuid:f0915cd7-c68e-4f3b-a4b1-3393eeb35a51"
        }
      }
    },
    {
      "fullUrl": "urn:uuid:c2c4b74f-be60-4d45-9825-b6c6f593aecc",
      "resource": {
        "resourceType": "Observation",
        "id": "c2c4b74f-be60-4d45-9825-b6c6f593aecc",
        "meta": {
          "profile": [
            "http://hl7.eu/fhir/laboratory/StructureDefinition/Observation-resultslab-eu-lab"
          ]
        },
        "performer": [
          {
            "display": "The Central European Lab"
          }
        ],
        "category": [
          {
            "coding": [
              {
                "system": "http://terminology.hl7.org/CodeSystem/observation-category",
                "code": "laboratory"
              }
            ]
          }
        ],
        "code": {
          "coding": [
            {
              "code": "5802-4",
              "system": "http://loinc.org",
              "display": "Nitrite [Presence] in Urine by Test strip"
            }
          ],
          "text": "Nitrite [Presence] in Urine by Test strip"
        },
        "text": {
          "status": "generated",
          "div": "<div xmlns=\"http://www.w3.org/1999/xhtml\"><table class=\"hl7__eu__lab__report\"><tr><th>Test</th><th>08-Sep-2015</th><th>Reference&#xA0;Range</th><th>Unit</th></tr><tr><td>Nitrite [Presence] in Urine by Test strip</td></tr></table></div>"
        },
        "status": "final",
        "subject": {
          "reference": "urn:uuid:06e38df0-8ae0-40b0-9bdd-f126d1d311f9",
          "display": "Meaghan Neary"
        },
        "effectiveDateTime": "2015-09-07T22:11:04Z",
        "specimen": {
          "reference": "urn:uuid:f0915cd7-c68e-4f3b-a4b1-3393eeb35a51"
        }
      }
    },
    {
      "fullUrl": "urn:uuid:4457be60-d3aa-4573-8c1b-3ec92afca342",
      "resource": {
        "resourceType": "Observation",
        "id": "4457be60-d3aa-4573-8c1b-3ec92afca342",
        "meta": {
          "profile": [
            "http://hl7.eu/fhir/laboratory/StructureDefinition/Observation-resultslab-eu-lab"
          ]
        },
        "performer": [
          {
            "display": "The Central European Lab"
          }
        ],
        "category": [
          {
            "coding": [
              {
                "system": "http://terminology.hl7.org/CodeSystem/observation-category",
                "code": "laboratory"
              }
            ]
          }
        ],
        "code": {
          "coding": [
            {
              "code": "5794-3",
              "system": "http://loinc.org",
              "display": "Hemoglobin [Presence] in Urine by Test strip"
            }
          ],
          "text": "Hemoglobin [Presence] in Urine by Test strip"
        },
        "text": {
          "status": "generated",
          "div": "<div xmlns=\"http://www.w3.org/1999/xhtml\"><table class=\"hl7__eu__lab__report\"><tr><th>Test</th><th>08-Sep-2015</th><th>Reference&#xA0;Range</th><th>Unit</th></tr><tr><td>Hemoglobin [Presence] in Urine by Test strip</td></tr></table></div>"
        },
        "status": "final",
        "subject": {
          "reference": "urn:uuid:06e38df0-8ae0-40b0-9bdd-f126d1d311f9",
          "display": "Meaghan Neary"
        },
        "effectiveDateTime": "2015-09-07T22:11:04Z",
        "specimen": {
          "reference": "urn:uuid:f0915cd7-c68e-4f3b-a4b1-3393eeb35a51"
        }
      }
    },
    {
      "fullUrl": "urn:uuid:fccb349f-6d61-49b3-8f46-542f0974f913",
      "resource": {
        "resourceType": "Observation",
        "id": "fccb349f-6d61-49b3-8f46-542f0974f913",
        "meta": {
          "profile": [
            "http://hl7.eu/fhir/laboratory/StructureDefinition/Observation-resultslab-eu-lab"
          ]
        },
        "performer": [
          {
            "display": "The Central European Lab"
          }
        ],
        "category": [
          {
            "coding": [
              {
                "system": "http://terminology.hl7.org/CodeSystem/observation-category",
                "code": "laboratory"
              }
            ]
          }
        ],
        "code": {
          "coding": [
            {
              "code": "5799-2",
              "system": "http://loinc.org",
              "display": "Leukocyte esterase [Presence] in Urine by Test strip"
            }
          ],
          "text": "Leukocyte esterase [Presence] in Urine by Test strip"
        },
        "text": {
          "status": "generated",
          "div": "<div xmlns=\"http://www.w3.org/1999/xhtml\"><table class=\"hl7__eu__lab__report\"><tr><th>Test</th><th>08-Sep-2015</th><th>Reference&#xA0;Range</th><th>Unit</th></tr><tr><td>Leukocyte esterase [Presence] in Urine by Test strip</td></tr></table></div>"
        },
        "status": "final",
        "subject": {
          "reference": "urn:uuid:06e38df0-8ae0-40b0-9bdd-f126d1d311f9",
          "display": "Meaghan Neary"
        },
        "effectiveDateTime": "2015-09-07T22:11:04Z",
        "specimen": {
          "reference": "urn:uuid:f0915cd7-c68e-4f3b-a4b1-3393eeb35a51"
        }
      }
    },
    {
      "fullUrl": "urn:uuid:6be17d63-2422-4816-bea0-8fe91db6f469",
      "resource": {
        "resourceType": "Observation",
        "id": "6be17d63-2422-4816-bea0-8fe91db6f469",
        "meta": {
          "profile": [
            "http://hl7.eu/fhir/laboratory/StructureDefinition/Observation-resultslab-eu-lab"
          ]
        },
        "performer": [
          {
            "display": "The Central European Lab"
          }
        ],
        "category": [
          {
            "coding": [
              {
                "system": "http://terminology.hl7.org/CodeSystem/observation-category",
                "code": "laboratory"
              }
            ]
          }
        ],
        "code": {
          "coding": [
            {
              "code": "4548-4",
              "system": "http://loinc.org",
              "display": "Hemoglobin A1c/Hemoglobin.total in Blood"
            }
          ],
          "text": "Hemoglobin A1c/Hemoglobin.total in Blood"
        },
        "valueQuantity": {
          "system": "http://unitsofmeasure.org",
          "value": 3.4,
          "unit": "%",
          "code": "%"
        },
        "referenceRange": [
          {
            "low": {
              "value": 4,
              "code": "%",
              "system": "http://unitsofmeasure.org"
            }
          },
          {
            "high": {
              "value": 6.4,
              "code": "%",
              "system": "http://unitsofmeasure.org"
            }
          }
        ],
        "interpretation": [
          {
            "coding": [
              {
                "code": "L",
                "system": "http://terminology.hl7.org/CodeSystem/v3-ObservationInterpretation",
                "display": "Low"
              }
            ]
          }
        ],
        "text": {
          "status": "generated",
          "div": "<div xmlns=\"http://www.w3.org/1999/xhtml\"><table class=\"hl7__eu__lab__report\"><tr><th>Test</th><th>08-Sep-2015</th><th>Reference&#xA0;Range</th><th>Unit</th></tr><tr><td>Hemoglobin A1c/Hemoglobin.total in Blood</td><td>3.4</td><td>4 - 6.4</td><td>L</td><td>%</td></tr></table></div>"
        },
        "status": "final",
        "subject": {
          "reference": "urn:uuid:06e38df0-8ae0-40b0-9bdd-f126d1d311f9",
          "display": "Meaghan Neary"
        },
        "effectiveDateTime": "2015-09-07T22:11:04Z",
        "specimen": {
          "reference": "urn:uuid:6e5d6e5f-8103-41cc-bc69-1943b374ce39"
        }
      }
    },
    {
      "fullUrl": "urn:uuid:3a01a5ca-30a0-4cab-8972-c9af01e645de",
      "resource": {
        "resourceType": "Observation",
        "id": "3a01a5ca-30a0-4cab-8972-c9af01e645de",
        "meta": {
          "profile": [
            "http://hl7.eu/fhir/laboratory/StructureDefinition/Observation-resultslab-eu-lab"
          ]
        },
        "performer": [
          {
            "display": "The Central European Lab"
          }
        ],
        "category": [
          {
            "coding": [
              {
                "system": "http://terminology.hl7.org/CodeSystem/observation-category",
                "code": "laboratory"
              }
            ]
          }
        ],
        "code": {
          "coding": [
            {
              "code": "2339-0",
              "system": "http://loinc.org",
              "display": "Glucose [Mass/volume] in Blood"
            }
          ],
          "text": "Glucose [Mass/volume] in Blood"
        },
        "valueQuantity": {
          "system": "http://unitsofmeasure.org",
          "value": 67.8,
          "unit": "mg/dL",
          "code": "mg/dL"
        },
        "referenceRange": [
          {
            "low": {
              "value": 70,
              "code": "mg/dL",
              "system": "http://unitsofmeasure.org"
            }
          },
          {
            "high": {
              "value": 100,
              "code": "mg/dL",
              "system": "http://unitsofmeasure.org"
            }
          }
        ],
        "interpretation": [
          {
            "coding": [
              {
                "code": "L",
                "system": "http://terminology.hl7.org/CodeSystem/v3-ObservationInterpretation",
                "display": "Low"
              }
            ]
          }
        ],
        "text": {
          "status": "generated",
          "div": "<div xmlns=\"http://www.w3.org/1999/xhtml\"><table class=\"hl7__eu__lab__report\"><tr><th>Test</th><th>08-Sep-2015</th><th>Reference&#xA0;Range</th><th>Unit</th></tr><tr><td>Glucose [Mass/volume] in Blood</td><td>67.8</td><td>70 - 100</td><td>L</td><td>mg/dL</td></tr></table></div>"
        },
        "status": "final",
        "subject": {
          "reference": "urn:uuid:06e38df0-8ae0-40b0-9bdd-f126d1d311f9",
          "display": "Meaghan Neary"
        },
        "effectiveDateTime": "2015-09-07T22:11:04Z",
        "specimen": {
          "reference": "urn:uuid:6e5d6e5f-8103-41cc-bc69-1943b374ce39"
        }
      }
    },
    {
      "fullUrl": "urn:uuid:64eeb4af-4ba9-4917-9322-2b1c1c6dd684",
      "resource": {
        "resourceType": "Observation",
        "id": "64eeb4af-4ba9-4917-9322-2b1c1c6dd684",
        "meta": {
          "profile": [
            "http://hl7.eu/fhir/laboratory/StructureDefinition/Observation-resultslab-eu-lab"
          ]
        },
        "performer": [
          {
            "display": "The Central European Lab"
          }
        ],
        "category": [
          {
            "coding": [
              {
                "system": "http://terminology.hl7.org/CodeSystem/observation-category",
                "code": "laboratory"
              }
            ]
          }
        ],
        "code": {
          "coding": [
            {
              "code": "6299-2",
              "system": "http://loinc.org",
              "display": "Urea nitrogen [Mass/volume] in Blood"
            }
          ],
          "text": "Urea nitrogen [Mass/volume] in Blood"
        },
        "valueQuantity": {
          "system": "http://unitsofmeasure.org",
          "value": 19.3,
          "unit": "mg/dL",
          "code": "mg/dL"
        },
        "referenceRange": [
          {
            "low": {
              "value": 7,
              "code": "mg/dL",
              "system": "http://unitsofmeasure.org"
            }
          },
          {
            "high": {
              "value": 43,
              "code": "mg/dL",
              "system": "http://unitsofmeasure.org"
            }
          }
        ],
        "text": {
          "status": "generated",
          "div": "<div xmlns=\"http://www.w3.org/1999/xhtml\"><table class=\"hl7__eu__lab__report\"><tr><th>Test</th><th>08-Sep-2015</th><th>Reference&#xA0;Range</th><th>Unit</th></tr><tr><td>Urea nitrogen [Mass/volume] in Blood</td><td>19.3</td><td>7 - 43</td><td></td><td>mg/dL</td></tr></table></div>"
        },
        "status": "final",
        "subject": {
          "reference": "urn:uuid:06e38df0-8ae0-40b0-9bdd-f126d1d311f9",
          "display": "Meaghan Neary"
        },
        "effectiveDateTime": "2015-09-07T22:11:04Z",
        "specimen": {
          "reference": "urn:uuid:6e5d6e5f-8103-41cc-bc69-1943b374ce39"
        }
      }
    },
    {
      "fullUrl": "urn:uuid:2fcb325c-b8c3-43c8-a540-d9743db98d9f",
      "resource": {
        "resourceType": "Observation",
        "id": "2fcb325c-b8c3-43c8-a540-d9743db98d9f",
        "meta": {
          "profile": [
            "http://hl7.eu/fhir/laboratory/StructureDefinition/Observation-resultslab-eu-lab"
          ]
        },
        "performer": [
          {
            "display": "The Central European Lab"
          }
        ],
        "category": [
          {
            "coding": [
              {
                "system": "http://terminology.hl7.org/CodeSystem/observation-category",
                "code": "laboratory"
              }
            ]
          }
        ],
        "code": {
          "coding": [
            {
              "code": "38483-4",
              "system": "http://loinc.org",
              "display": "Creatinine [Mass/volume] in Blood"
            }
          ],
          "text": "Creatinine [Mass/volume] in Blood"
        },
        "valueQuantity": {
          "system": "http://unitsofmeasure.org",
          "value": 1.6,
          "unit": "mg/dL",
          "code": "mg/dL"
        },
        "referenceRange": [
          {
            "low": {
              "value": 0.6,
              "code": "mg/dL",
              "system": "http://unitsofmeasure.org"
            }
          },
          {
            "high": {
              "value": 1.1,
              "code": "mg/dL",
              "system": "http://unitsofmeasure.org"
            }
          }
        ],
        "interpretation": [
          {
            "coding": [
              {
                "code": "H",
                "system": "http://terminology.hl7.org/CodeSystem/v3-ObservationInterpretation",
                "display": "High"
              }
            ]
          }
        ],
        "text": {
          "status": "generated",
          "div": "<div xmlns=\"http://www.w3.org/1999/xhtml\"><table class=\"hl7__eu__lab__report\"><tr><th>Test</th><th>08-Sep-2015</th><th>Reference&#xA0;Range</th><th>Unit</th></tr><tr><td>Creatinine [Mass/volume] in Blood</td><td>1.6</td><td>0.6 - 1.1</td><td>H</td><td>mg/dL</td></tr></table></div>"
        },
        "status": "final",
        "subject": {
          "reference": "urn:uuid:06e38df0-8ae0-40b0-9bdd-f126d1d311f9",
          "display": "Meaghan Neary"
        },
        "effectiveDateTime": "2015-09-07T22:11:04Z",
        "specimen": {
          "reference": "urn:uuid:6e5d6e5f-8103-41cc-bc69-1943b374ce39"
        }
      }
    },
    {
      "fullUrl": "urn:uuid:1ed68de8-7cc2-4863-a990-62cb981e6b0f",
      "resource": {
        "resourceType": "Observation",
        "id": "1ed68de8-7cc2-4863-a990-62cb981e6b0f",
        "meta": {
          "profile": [
            "http://hl7.eu/fhir/laboratory/StructureDefinition/Observation-resultslab-eu-lab"
          ]
        },
        "performer": [
          {
            "display": "The Central European Lab"
          }
        ],
        "category": [
          {
            "coding": [
              {
                "system": "http://terminology.hl7.org/CodeSystem/observation-category",
                "code": "laboratory"
              }
            ]
          }
        ],
        "code": {
          "coding": [
            {
              "code": "49765-1",
              "system": "http://loinc.org",
              "display": "Calcium [Mass/volume] in Blood"
            }
          ],
          "text": "Calcium [Mass/volume] in Blood"
        },
        "valueQuantity": {
          "system": "http://unitsofmeasure.org",
          "value": 8.8,
          "unit": "mg/dL",
          "code": "mg/dL"
        },
        "referenceRange": [
          {
            "low": {
              "value": 8.5,
              "code": "mg/dL",
              "system": "http://unitsofmeasure.org"
            }
          },
          {
            "high": {
              "value": 10.5,
              "code": "mg/dL",
              "system": "http://unitsofmeasure.org"
            }
          }
        ],
        "text": {
          "status": "generated",
          "div": "<div xmlns=\"http://www.w3.org/1999/xhtml\"><table class=\"hl7__eu__lab__report\"><tr><th>Test</th><th>08-Sep-2015</th><th>Reference&#xA0;Range</th><th>Unit</th></tr><tr><td>Calcium [Mass/volume] in Blood</td><td>8.8</td><td>8.5 - 10.5</td><td></td><td>mg/dL</td></tr></table></div>"
        },
        "status": "final",
        "subject": {
          "reference": "urn:uuid:06e38df0-8ae0-40b0-9bdd-f126d1d311f9",
          "display": "Meaghan Neary"
        },
        "effectiveDateTime": "2015-09-07T22:11:04Z",
        "specimen": {
          "reference": "urn:uuid:6e5d6e5f-8103-41cc-bc69-1943b374ce39"
        }
      }
    },
    {
      "fullUrl": "urn:uuid:fcfc7e1d-ced9-4849-81e2-148686197dfa",
      "resource": {
        "resourceType": "Observation",
        "id": "fcfc7e1d-ced9-4849-81e2-148686197dfa",
        "meta": {
          "profile": [
            "http://hl7.eu/fhir/laboratory/StructureDefinition/Observation-resultslab-eu-lab"
          ]
        },
        "performer": [
          {
            "display": "The Central European Lab"
          }
        ],
        "category": [
          {
            "coding": [
              {
                "system": "http://terminology.hl7.org/CodeSystem/observation-category",
                "code": "laboratory"
              }
            ]
          }
        ],
        "code": {
          "coding": [
            {
              "code": "2947-0",
              "system": "http://loinc.org",
              "display": "Sodium [Moles/volume] in Blood"
            }
          ],
          "text": "Sodium [Moles/volume] in Blood"
        },
        "valueQuantity": {
          "system": "http://unitsofmeasure.org",
          "value": 141.3,
          "unit": "mmol/L",
          "code": "mmol/L"
        },
        "referenceRange": [
          {
            "low": {
              "value": 135,
              "code": "mmol/L",
              "system": "http://unitsofmeasure.org"
            }
          },
          {
            "high": {
              "value": 145,
              "code": "mmol/L",
              "system": "http://unitsofmeasure.org"
            }
          }
        ],
        "text": {
          "status": "generated",
          "div": "<div xmlns=\"http://www.w3.org/1999/xhtml\"><table class=\"hl7__eu__lab__report\"><tr><th>Test</th><th>08-Sep-2015</th><th>Reference&#xA0;Range</th><th>Unit</th></tr><tr><td>Sodium [Moles/volume] in Blood</td><td>141.3</td><td>135 - 145</td><td></td><td>mmol/L</td></tr></table></div>"
        },
        "status": "final",
        "subject": {
          "reference": "urn:uuid:06e38df0-8ae0-40b0-9bdd-f126d1d311f9",
          "display": "Meaghan Neary"
        },
        "effectiveDateTime": "2015-09-07T22:11:04Z",
        "specimen": {
          "reference": "urn:uuid:6e5d6e5f-8103-41cc-bc69-1943b374ce39"
        }
      }
    },
    {
      "fullUrl": "urn:uuid:46f2e256-ac8a-445f-b85c-7c9ac3485de9",
      "resource": {
        "resourceType": "Observation",
        "id": "46f2e256-ac8a-445f-b85c-7c9ac3485de9",
        "meta": {
          "profile": [
            "http://hl7.eu/fhir/laboratory/StructureDefinition/Observation-resultslab-eu-lab"
          ]
        },
        "performer": [
          {
            "display": "The Central European Lab"
          }
        ],
        "category": [
          {
            "coding": [
              {
                "system": "http://terminology.hl7.org/CodeSystem/observation-category",
                "code": "laboratory"
              }
            ]
          }
        ],
        "code": {
          "coding": [
            {
              "code": "6298-4",
              "system": "http://loinc.org",
              "display": "Potassium [Moles/volume] in Blood"
            }
          ],
          "text": "Potassium [Moles/volume] in Blood"
        },
        "valueQuantity": {
          "system": "http://unitsofmeasure.org",
          "value": 4.3,
          "unit": "mmol/L",
          "code": "mmol/L"
        },
        "referenceRange": [
          {
            "low": {
              "value": 3.5,
              "code": "mmol/L",
              "system": "http://unitsofmeasure.org"
            }
          },
          {
            "high": {
              "value": 5.1,
              "code": "mmol/L",
              "system": "http://unitsofmeasure.org"
            }
          }
        ],
        "text": {
          "status": "generated",
          "div": "<div xmlns=\"http://www.w3.org/1999/xhtml\"><table class=\"hl7__eu__lab__report\"><tr><th>Test</th><th>08-Sep-2015</th><th>Reference&#xA0;Range</th><th>Unit</th></tr><tr><td>Potassium [Moles/volume] in Blood</td><td>4.3</td><td>3.5 - 5.1</td><td></td><td>mmol/L</td></tr></table></div>"
        },
        "status": "final",
        "subject": {
          "reference": "urn:uuid:06e38df0-8ae0-40b0-9bdd-f126d1d311f9",
          "display": "Meaghan Neary"
        },
        "effectiveDateTime": "2015-09-07T22:11:04Z",
        "specimen": {
          "reference": "urn:uuid:6e5d6e5f-8103-41cc-bc69-1943b374ce39"
        }
      }
    },
    {
      "fullUrl": "urn:uuid:554337f4-f8c3-42ec-88d2-1e811e76431f",
      "resource": {
        "resourceType": "Observation",
        "id": "554337f4-f8c3-42ec-88d2-1e811e76431f",
        "meta": {
          "profile": [
            "http://hl7.eu/fhir/laboratory/StructureDefinition/Observation-resultslab-eu-lab"
          ]
        },
        "performer": [
          {
            "display": "The Central European Lab"
          }
        ],
        "category": [
          {
            "coding": [
              {
                "system": "http://terminology.hl7.org/CodeSystem/observation-category",
                "code": "laboratory"
              }
            ]
          }
        ],
        "code": {
          "coding": [
            {
              "code": "2069-3",
              "system": "http://loinc.org",
              "display": "Chloride [Moles/volume] in Blood"
            }
          ],
          "text": "Chloride [Moles/volume] in Blood"
        },
        "valueQuantity": {
          "system": "http://unitsofmeasure.org",
          "value": 102.5,
          "unit": "mmol/L",
          "code": "mmol/L"
        },
        "referenceRange": [
          {
            "low": {
              "value": 98,
              "code": "mmol/L",
              "system": "http://unitsofmeasure.org"
            }
          },
          {
            "high": {
              "value": 108,
              "code": "mmol/L",
              "system": "http://unitsofmeasure.org"
            }
          }
        ],
        "text": {
          "status": "generated",
          "div": "<div xmlns=\"http://www.w3.org/1999/xhtml\"><table class=\"hl7__eu__lab__report\"><tr><th>Test</th><th>08-Sep-2015</th><th>Reference&#xA0;Range</th><th>Unit</th></tr><tr><td>Chloride [Moles/volume] in Blood</td><td>102.5</td><td>98 - 108</td><td></td><td>mmol/L</td></tr></table></div>"
        },
        "status": "final",
        "subject": {
          "reference": "urn:uuid:06e38df0-8ae0-40b0-9bdd-f126d1d311f9",
          "display": "Meaghan Neary"
        },
        "effectiveDateTime": "2015-09-07T22:11:04Z",
        "specimen": {
          "reference": "urn:uuid:6e5d6e5f-8103-41cc-bc69-1943b374ce39"
        }
      }
    },
    {
      "fullUrl": "urn:uuid:87981bd4-494f-418d-b0b3-c64d872d160a",
      "resource": {
        "resourceType": "Observation",
        "id": "87981bd4-494f-418d-b0b3-c64d872d160a",
        "meta": {
          "profile": [
            "http://hl7.eu/fhir/laboratory/StructureDefinition/Observation-resultslab-eu-lab"
          ]
        },
        "performer": [
          {
            "display": "The Central European Lab"
          }
        ],
        "category": [
          {
            "coding": [
              {
                "system": "http://terminology.hl7.org/CodeSystem/observation-category",
                "code": "laboratory"
              }
            ]
          }
        ],
        "code": {
          "coding": [
            {
              "code": "20565-8",
              "system": "http://loinc.org",
              "display": "Carbon dioxide, total [Moles/volume] in Blood"
            }
          ],
          "text": "Carbon dioxide, total [Moles/volume] in Blood"
        },
        "valueQuantity": {
          "system": "http://unitsofmeasure.org",
          "value": 28.4,
          "unit": "mmol/L",
          "code": "mmol/L"
        },
        "referenceRange": [
          {
            "low": {
              "value": 22,
              "code": "mmol/L",
              "system": "http://unitsofmeasure.org"
            }
          },
          {
            "high": {
              "value": 29,
              "code": "mmol/L",
              "system": "http://unitsofmeasure.org"
            }
          }
        ],
        "text": {
          "status": "generated",
          "div": "<div xmlns=\"http://www.w3.org/1999/xhtml\"><table class=\"hl7__eu__lab__report\"><tr><th>Test</th><th>08-Sep-2015</th><th>Reference&#xA0;Range</th><th>Unit</th></tr><tr><td>Carbon dioxide, total [Moles/volume] in Blood</td><td>28.4</td><td>22 - 29</td><td></td><td>mmol/L</td></tr></table></div>"
        },
        "status": "final",
        "subject": {
          "reference": "urn:uuid:06e38df0-8ae0-40b0-9bdd-f126d1d311f9",
          "display": "Meaghan Neary"
        },
        "effectiveDateTime": "2015-09-07T22:11:04Z",
        "specimen": {
          "reference": "urn:uuid:6e5d6e5f-8103-41cc-bc69-1943b374ce39"
        }
      }
    },
    {
      "fullUrl": "urn:uuid:2f9e9efe-b4ea-4991-81c6-23bb40d33283",
      "resource": {
        "resourceType": "Device",
        "id": "2f9e9efe-b4ea-4991-81c6-23bb40d33283",
        "deviceName": [
          {
            "name": "SYNDERAI Synthetic Generator",
            "type": "manufacturer-name"
          }
        ],
        "version": [
          {
            "value": "5.0"
          }
        ],
        "text": {
          "status": "generated",
          "div": "<div xmlns=\"http://www.w3.org/1999/xhtml\">SYNDERAI Synthetic Generator v5.0</div>"
        },
        "status": "active\"",
        "distinctIdentifier": "synderai-generator-50",
        "manufacturer": "SYNDERAI Project"
      }
    },
    {
      "fullUrl": "urn:uuid:442b1353-f229-47c4-aed1-6b68714e8f91",
      "resource": {
        "resourceType": "Provenance",
        "id": "442b1353-f229-47c4-aed1-6b68714e8f91",
        "target": [
          {
            "reference": "Patient/06e38df0-8ae0-40b0-9bdd-f126d1d311f9"
          },
          {
            "reference": "Bundle/a591fe3e-d67e-4124-b33f-59c44d2b11dc"
          },
          {
            "reference": "Composition/ba173bc0-93bf-408f-b04f-1ce91edc004b"
          },
          {
            "reference": "PractitionerRole/ab14c0e4-f386-498d-8316-8f5bac67062e"
          },
          {
            "reference": "Practitioner/9bde68c4-c3ba-4205-8854-534ec8e1d0f6"
          },
          {
            "reference": "PractitionerRole/85560e02-148a-408f-a62b-5c163da082d9"
          },
          {
            "reference": "Organization/6fe38c2f-066d-4fa8-9b05-bb88ba5b089a"
          }
        ],
        "activity": {
          "text": "Synthetic Example Data Generation"
        },
        "policy": [
          "https://synderai.net/synderai-synthetic-data-policy"
        ],
        "agent": [
          {
            "type": {
              "text": "author"
            },
            "who": {
              "reference": "Device/2f9e9efe-b4ea-4991-81c6-23bb40d33283"
            }
          }
        ],
        "reason": [
          {
            "text": "Interoperability Testing and Training (non-clinical use)"
          }
        ],
        "text": {
          "status": "generated",
          "div": "<div xmlns=\"http://www.w3.org/1999/xhtml\">Provenance for SYNDERAI Synthetic Example Data Resource</div>"
        },
        "recorded": "2015-09-08T00:11:04Z"
      }
    },
    {
      "fullUrl": "urn:uuid:ab14c0e4-f386-498d-8316-8f5bac67062e",
      "resource": {
        "resourceType": "PractitionerRole",
        "id": "ab14c0e4-f386-498d-8316-8f5bac67062e",
        "meta": {
          "profile": [
            "http://hl7.eu/fhir/base/StructureDefinition/practitionerRole-eu"
          ]
        },
        "text": {
          "status": "generated",
          "div": "<div xmlns=\"http://www.w3.org/1999/xhtml\">Laboratory Role Id: ab14c0e4-f386-498d-8316-8f5bac67062e</div>"
        },
        "practitioner": {
          "reference": "urn:uuid:9bde68c4-c3ba-4205-8854-534ec8e1d0f6"
        }
      }
    },
    {
      "fullUrl": "urn:uuid:9bde68c4-c3ba-4205-8854-534ec8e1d0f6",
      "resource": {
        "resourceType": "Practitioner",
        "id": "9bde68c4-c3ba-4205-8854-534ec8e1d0f6",
        "meta": {
          "profile": [
            "http://hl7.eu/fhir/base/StructureDefinition/practitioner-eu"
          ]
        },
        "identifier": [
          {
            "assigner": {
              "display": "HL7 Europe"
            },
            "system": "urn:oid:2.16.840.1.113883.2.51.999",
            "value": "72e2293b-3b53-43f2-a029-e1e31f7d39ac"
          }
        ],
        "name": [
          {
            "prefix": [
              "dr"
            ],
            "given": [
              "Ex"
            ],
            "family": "Ample"
          }
        ],
        "address": [
          {
            "line": [
              "Laboratoire Central Européenne",
              "Boulevard du Jardin Botanique 32"
            ],
            "postalCode": "1000",
            "city": "Brussels",
            "country": "Belgium"
          }
        ],
        "text": {
          "status": "generated",
          "div": "<div xmlns=\"http://www.w3.org/1999/xhtml\">Laboratory: Laboratoire Central Européenne, 1000 Brussels, Belgium</div>"
        }
      }
    }
  ],
  "type": "document",
  "timestamp": "2015-09-08T00:11:04Z"
}
