{
  "resourceType": "Bundle",
  "id": "9e64e42e-5393-499f-9716-a7721c48dfaf",
  "meta": {
    "profile": [
      "http://hl7.eu/fhir/laboratory/StructureDefinition/Bundle-eu-lab"
    ]
  },
  "identifier": {
    "assigner": {
      "display": "HL7 Europe"
    },
    "system": "urn:oid:2.16.840.1.113883.2.51.999",
    "value": "c0581fc7-7041-42fd-821d-4aa8018c44ca"
  },
  "entry": [
    {
      "fullUrl": "urn:uuid:7cf4c802-eb6f-4324-be1b-6b7595d10cd5",
      "resource": {
        "resourceType": "Composition",
        "id": "7cf4c802-eb6f-4324-be1b-6b7595d10cd5",
        "meta": {
          "profile": [
            "http://hl7.eu/fhir/laboratory/StructureDefinition/Composition-eu-lab"
          ]
        },
        "identifier": {
          "assigner": {
            "display": "HL7 Europe"
          },
          "system": "urn:oid:2.16.840.1.113883.2.51.999",
          "value": "02972162-83a0-44fa-a9e4-c9cf65428571"
        },
        "author": [
          {
            "reference": "urn:uuid:76f564e3-335e-4dc8-89f9-ed620f763550"
          }
        ],
        "category": [
          {
            "coding": [
              {
                "code": "26436-6",
                "system": "http://loinc.org",
                "display": "Laboratory studies (set)"
              }
            ]
          }
        ],
        "type": {
          "coding": [
            {
              "code": "11502-2",
              "system": "http://loinc.org",
              "display": "Laboratory report"
            }
          ],
          "text": "Laboratory Report"
        },
        "section": [
          {
            "code": {
              "coding": [
                {
                  "code": "26436-6",
                  "system": "http://loinc.org",
                  "display": "Laboratory studies (set)"
                }
              ],
              "text": "Laboratory studies"
            },
            "section": [
              {
                "code": {
                  "coding": [
                    {
                      "code": "$18719-5",
                      "system": "http://loinc.org",
                      "display": "Chemistry studies (set)"
                    }
                  ],
                  "text": "Chemistry"
                },
                "entry": [
                  {
                    "reference": "urn:uuid:4fc67d77-8b0b-4805-b108-ca414f3bd27e"
                  }
                ],
                "text": {
                  "status": "generated",
                  "div": "<div xmlns=\"http://www.w3.org/1999/xhtml\"><h3>Chemistry</h3><table class=\"hl7__eu__lab__report\"><thead><tr><th>Test</th><th>20-JUN-2017</th><th>Reference&#xA0;Range</th><th>Unit</th></tr></thead><tbody><tr><td>Choriogonadotropin (pregnancy test) [Presence] in Urine</td><td>Negative</td><td></td><td></td></tr></tbody></table></div>"
                },
                "title": "Chemistry"
              }
            ],
            "title": "Laboratory Report"
          },
          {
            "text": {
              "status": "generated",
              "div": "<div xmlns=\"http://www.w3.org/1999/xhtml\"><h3>Annotation</h3><table class=\"hl7__eu__lab__report\"><tr><th>Conclusion and Recommendations based on this report and previous findings known to us</th></tr><tr><td>Choriogonadotropin (pregnancy test) in urine is negative, which is expected and normal for a 51-year-old male patient. No abnormalities detected from the provided laboratory result.</td></tr></table></div>"
            },
            "code": {
              "coding": [
                {
                  "system": "http://loinc.org",
                  "code": "48767-8",
                  "display": "Annotation comment"
                }
              ]
            },
            "title": "Annotation comment"
          }
        ],
        "status": "final",
        "subject": {
          "reference": "urn:uuid:3efdea62-fddb-4fa4-9d9f-4bff5d094060",
          "display": "Elias Höfig"
        },
        "date": "2017-06-20T12:55:09Z",
        "title": "Laboratory Report",
        "confidentiality": "N"
      }
    },
    {
      "fullUrl": "urn:uuid:4c809bc9-955d-490b-afc6-659dc6aaad4d",
      "resource": {
        "resourceType": "DiagnosticReport",
        "id": "4c809bc9-955d-490b-afc6-659dc6aaad4d",
        "meta": {
          "profile": [
            "http://hl7.eu/fhir/laboratory/StructureDefinition/DiagnosticReport-eu-lab"
          ]
        },
        "identifier": [
          {
            "assigner": {
              "display": "HL7 Europe"
            },
            "system": "urn:oid:2.16.840.1.113883.2.51.999",
            "value": "78fcef02-edee-432d-ba4d-231a4d74c336"
          }
        ],
        "extension": [
          {
            "url": "http://hl7.org/fhir/5.0/StructureDefinition/extension-DiagnosticReport.composition",
            "valueReference": {
              "reference": "urn:uuid:02972162-83a0-44fa-a9e4-c9cf65428571"
            }
          }
        ],
        "category": [
          {
            "coding": [
              {
                "code": "26436-6",
                "system": "http://loinc.org",
                "display": "Laboratory studies (set)"
              }
            ]
          }
        ],
        "specimen": [
          {
            "reference": "urn:uuid:0941b9f5-913a-48ee-a53b-bda80dd40a89"
          }
        ],
        "result": [
          {
            "reference": "urn:uuid:4fc67d77-8b0b-4805-b108-ca414f3bd27e"
          }
        ],
        "status": "registered",
        "code": {
          "coding": [
            {
              "code": "11502-2",
              "system": "http://loinc.org",
              "display": "Laboratory report"
            }
          ]
        },
        "subject": {
          "reference": "urn:uuid:3efdea62-fddb-4fa4-9d9f-4bff5d094060",
          "display": "Elias Höfig"
        }
      }
    },
    {
      "fullUrl": "urn:uuid:3efdea62-fddb-4fa4-9d9f-4bff5d094060",
      "resource": {
        "resourceType": "Patient",
        "id": "3efdea62-fddb-4fa4-9d9f-4bff5d094060",
        "meta": {
          "security": [
            {
              "system": "http://terminology.hl7.org/CodeSystem/v3-ActReason",
              "code": "HTEST"
            },
            {
              "system": "http://terminology.hl7.org/CodeSystem/v3-ActReason",
              "code": "TRAIN"
            }
          ],
          "tag": [
            {
              "system": "https://synderai.net/fhir/CodeSystem/tags",
              "code": "synthetic",
              "display": "SYNDERAI Synthetic data"
            }
          ],
          "profile": [
            "http://hl7.eu/fhir/base/StructureDefinition/patient-eu-core"
          ]
        },
        "identifier": [
          {
            "type": {
              "coding": [
                {
                  "code": "PT",
                  "system": "http://terminology.hl7.org/CodeSystem/v2-0203"
                }
              ]
            },
            "system": "http://ec.europa.eu/identifier/eci",
            "value": "7833-401919-3"
          },
          {
            "type": {
              "coding": [
                {
                  "code": "MR",
                  "system": "http://terminology.hl7.org/CodeSystem/v2-0203"
                }
              ]
            },
            "system": "http://local.setting.eu/identifier",
            "value": "55b3d71c-a283-2178-4db6-d251ed0e1404"
          }
        ],
        "name": [
          {
            "family": "Höfig"
          },
          {
            "given": [
              "Elias"
            ]
          },
          {
            "text": "Elias Höfig"
          }
        ],
        "address": [
          {
            "line": [
              "Pauline-Schwital-Allee 6-2"
            ],
            "use": "home",
            "type": "physical",
            "postalCode": "39326",
            "city": "Wolmirstedt",
            "country": "Germany"
          }
        ],
        "telecom": [
          {
            "system": "phone",
            "value": "+49 (0) 4602 154908"
          }
        ],
        "extension": [
          {
            "url": "http://hl7.org/fhir/StructureDefinition/patient-nationality",
            "valueCodeableConcept": {
              "coding": [
                {
                  "code": "DE",
                  "system": "http://hl7.org/fhir/ValueSet/country"
                }
              ]
            }
          }
        ],
        "text": {
          "status": "generated",
          "div": "<div xmlns=\"http://www.w3.org/1999/xhtml\"><table class=\"hl7__ips\"><tr><td>Elias Höfig</td><td>male</td><td>19-May-1974</td></tr></table></div>"
        },
        "gender": "male",
        "birthDate": "1974-05-19"
      }
    },
    {
      "fullUrl": "urn:uuid:382ce469-0625-4c3a-8f2e-bd3cc4bfb9b5",
      "resource": {
        "resourceType": "ServiceRequest",
        "id": "382ce469-0625-4c3a-8f2e-bd3cc4bfb9b5",
        "meta": {
          "profile": [
            "http://hl7.eu/fhir/laboratory/StructureDefinition/ServiceRequest-eu-lab"
          ]
        },
        "identifier": [
          {
            "system": "http://example.org",
            "value": "345a9ad4-1df0-4fa2-9bfe-0d87b236a8cb"
          }
        ],
        "specimen": [
          {
            "reference": "urn:uuid:0941b9f5-913a-48ee-a53b-bda80dd40a89"
          }
        ],
        "status": "active",
        "intent": "order",
        "code": {
          "coding": [
            {
              "code": "108252007",
              "system": "http://snomed.info/sct",
              "display": "Laboratory procedure"
            }
          ]
        },
        "subject": {
          "reference": "urn:uuid:3efdea62-fddb-4fa4-9d9f-4bff5d094060",
          "display": "Elias Höfig"
        },
        "requester": {
          "reference": "urn:uuid:90182478-2e58-4e5d-8e83-373678730895"
        }
      }
    },
    {
      "fullUrl": "urn:uuid:90182478-2e58-4e5d-8e83-373678730895",
      "resource": {
        "resourceType": "PractitionerRole",
        "id": "90182478-2e58-4e5d-8e83-373678730895",
        "meta": {
          "profile": [
            "http://hl7.eu/fhir/base/StructureDefinition/practitionerRole-eu"
          ]
        },
        "text": {
          "status": "generated",
          "div": "<div xmlns=\"http://www.w3.org/1999/xhtml\">Provider Role Id: 90182478-2e58-4e5d-8e83-373678730895</div>"
        },
        "organization": {
          "reference": "urn:uuid:8e261fef-1160-45b7-b451-4e67556abb3e"
        }
      }
    },
    {
      "fullUrl": "urn:uuid:8e261fef-1160-45b7-b451-4e67556abb3e",
      "resource": {
        "resourceType": "Organization",
        "id": "8e261fef-1160-45b7-b451-4e67556abb3e",
        "meta": {
          "profile": [
            "http://hl7.eu/fhir/base/StructureDefinition/organization-eu"
          ]
        },
        "identifier": [
          {
            "assigner": {
              "display": "HL7 Europe"
            },
            "system": "urn:oid:2.16.840.1.113883.2.51.999",
            "value": "0f2a9fa6-2d3d-4537-875e-658d716d4619"
          }
        ],
        "address": [
          {
            "line": [
              "Birkenallee 34"
            ],
            "city": "Magdeburg",
            "postalCode": "39130",
            "country": "Germany"
          }
        ],
        "text": {
          "status": "generated",
          "div": "<div xmlns=\"http://www.w3.org/1999/xhtml\">Provider Organization: Klinikum Magdeburg</div>"
        },
        "name": "Klinikum Magdeburg"
      }
    },
    {
      "fullUrl": "urn:uuid:0941b9f5-913a-48ee-a53b-bda80dd40a89",
      "resource": {
        "resourceType": "Specimen",
        "id": "0941b9f5-913a-48ee-a53b-bda80dd40a89",
        "meta": {
          "profile": [
            "http://hl7.eu/fhir/laboratory/StructureDefinition/Specimen-eu-lab"
          ]
        },
        "collection": {
          "collectedDateTime": "2017-06-20"
        },
        "text": {
          "status": "generated",
          "div": "<div xmlns=\"http://www.w3.org/1999/xhtml\"><table class=\"hl7__eu__lab__report\"><tr><th>Specimen</th><th>Collection Date</th></tr><tr><td>Urine specimen</td><td><span class=\"nb\">20-Jun-2017</span></td></tr></table></div>"
        },
        "type": {
          "coding": [
            {
              "code": "122575003",
              "system": "http://snomed.info/sct",
              "display": "Urine specimen"
            }
          ]
        }
      }
    },
    {
      "fullUrl": "urn:uuid:4fc67d77-8b0b-4805-b108-ca414f3bd27e",
      "resource": {
        "resourceType": "Observation",
        "id": "4fc67d77-8b0b-4805-b108-ca414f3bd27e",
        "meta": {
          "profile": [
            "http://hl7.eu/fhir/laboratory/StructureDefinition/Observation-resultslab-eu-lab"
          ]
        },
        "performer": [
          {
            "display": "The Central European Lab"
          }
        ],
        "category": [
          {
            "coding": [
              {
                "system": "http://terminology.hl7.org/CodeSystem/observation-category",
                "code": "laboratory"
              }
            ]
          }
        ],
        "code": {
          "coding": [
            {
              "code": "2106-3",
              "system": "http://loinc.org",
              "display": "Choriogonadotropin (pregnancy test) [Presence] in Urine"
            }
          ],
          "text": "Choriogonadotropin (pregnancy test) [Presence] in Urine"
        },
        "text": {
          "status": "generated",
          "div": "<div xmlns=\"http://www.w3.org/1999/xhtml\"><table class=\"hl7__eu__lab__report\"><tr><th>Test</th><th>20-Jun-2017</th><th>Reference&#xA0;Range</th><th>Unit</th></tr><tr><td>Choriogonadotropin (pregnancy test) [Presence] in Urine</td></tr></table></div>"
        },
        "status": "final",
        "subject": {
          "reference": "urn:uuid:3efdea62-fddb-4fa4-9d9f-4bff5d094060",
          "display": "Elias Höfig"
        },
        "effectiveDateTime": "2017-06-20T10:55:09Z",
        "specimen": {
          "reference": "urn:uuid:0941b9f5-913a-48ee-a53b-bda80dd40a89"
        }
      }
    },
    {
      "fullUrl": "urn:uuid:edbae0b9-0602-4a65-bc4b-f59cdefda82f",
      "resource": {
        "resourceType": "Device",
        "id": "edbae0b9-0602-4a65-bc4b-f59cdefda82f",
        "deviceName": [
          {
            "name": "SYNDERAI Synthetic Generator",
            "type": "manufacturer-name"
          }
        ],
        "version": [
          {
            "value": "5.0"
          }
        ],
        "text": {
          "status": "generated",
          "div": "<div xmlns=\"http://www.w3.org/1999/xhtml\">SYNDERAI Synthetic Generator v5.0</div>"
        },
        "status": "active\"",
        "distinctIdentifier": "synderai-generator-50",
        "manufacturer": "SYNDERAI Project"
      }
    },
    {
      "fullUrl": "urn:uuid:68682f14-1343-4fcb-a6f6-1ff407ed40e2",
      "resource": {
        "resourceType": "Provenance",
        "id": "68682f14-1343-4fcb-a6f6-1ff407ed40e2",
        "target": [
          {
            "reference": "Patient/3efdea62-fddb-4fa4-9d9f-4bff5d094060"
          },
          {
            "reference": "Bundle/9e64e42e-5393-499f-9716-a7721c48dfaf"
          },
          {
            "reference": "Composition/7cf4c802-eb6f-4324-be1b-6b7595d10cd5"
          },
          {
            "reference": "PractitionerRole/76f564e3-335e-4dc8-89f9-ed620f763550"
          },
          {
            "reference": "Practitioner/eee3e2a8-e593-4e42-be3c-a3bfacbca5f9"
          },
          {
            "reference": "PractitionerRole/90182478-2e58-4e5d-8e83-373678730895"
          },
          {
            "reference": "Organization/8e261fef-1160-45b7-b451-4e67556abb3e"
          }
        ],
        "activity": {
          "text": "Synthetic Example Data Generation"
        },
        "policy": [
          "https://synderai.net/synderai-synthetic-data-policy"
        ],
        "agent": [
          {
            "type": {
              "text": "author"
            },
            "who": {
              "reference": "Device/edbae0b9-0602-4a65-bc4b-f59cdefda82f"
            }
          }
        ],
        "reason": [
          {
            "text": "Interoperability Testing and Training (non-clinical use)"
          }
        ],
        "text": {
          "status": "generated",
          "div": "<div xmlns=\"http://www.w3.org/1999/xhtml\">Provenance for SYNDERAI Synthetic Example Data Resource</div>"
        },
        "recorded": "2017-06-20T12:55:09Z"
      }
    },
    {
      "fullUrl": "urn:uuid:76f564e3-335e-4dc8-89f9-ed620f763550",
      "resource": {
        "resourceType": "PractitionerRole",
        "id": "76f564e3-335e-4dc8-89f9-ed620f763550",
        "meta": {
          "profile": [
            "http://hl7.eu/fhir/base/StructureDefinition/practitionerRole-eu"
          ]
        },
        "text": {
          "status": "generated",
          "div": "<div xmlns=\"http://www.w3.org/1999/xhtml\">Laboratory Role Id: 76f564e3-335e-4dc8-89f9-ed620f763550</div>"
        },
        "practitioner": {
          "reference": "urn:uuid:eee3e2a8-e593-4e42-be3c-a3bfacbca5f9"
        }
      }
    },
    {
      "fullUrl": "urn:uuid:eee3e2a8-e593-4e42-be3c-a3bfacbca5f9",
      "resource": {
        "resourceType": "Practitioner",
        "id": "eee3e2a8-e593-4e42-be3c-a3bfacbca5f9",
        "meta": {
          "profile": [
            "http://hl7.eu/fhir/base/StructureDefinition/practitioner-eu"
          ]
        },
        "identifier": [
          {
            "assigner": {
              "display": "HL7 Europe"
            },
            "system": "urn:oid:2.16.840.1.113883.2.51.999",
            "value": "c2826446-b5bc-4b6c-a102-de7dbf0f27d8"
          }
        ],
        "name": [
          {
            "prefix": [
              "dr"
            ],
            "given": [
              "Ex"
            ],
            "family": "Ample"
          }
        ],
        "address": [
          {
            "line": [
              "Laboratoire Central Européenne",
              "Boulevard du Jardin Botanique 32"
            ],
            "postalCode": "1000",
            "city": "Brussels",
            "country": "Belgium"
          }
        ],
        "text": {
          "status": "generated",
          "div": "<div xmlns=\"http://www.w3.org/1999/xhtml\">Laboratory: Laboratoire Central Européenne, 1000 Brussels, Belgium</div>"
        }
      }
    }
  ],
  "type": "document",
  "timestamp": "2017-06-20T12:55:09Z"
}
