{
  "resourceType": "Bundle",
  "id": "d5a20425-baaa-47d1-b4b3-a76a12bf9f69",
  "meta": {
    "profile": [
      "http://hl7.eu/fhir/laboratory/StructureDefinition/Bundle-eu-lab"
    ]
  },
  "identifier": {
    "assigner": {
      "display": "HL7 Europe"
    },
    "system": "urn:oid:2.16.840.1.113883.2.51.999",
    "value": "1b2faac8-718e-4d27-8061-7c3b2f76210b"
  },
  "entry": [
    {
      "fullUrl": "urn:uuid:f56818d7-fe31-4c50-a3fe-4e176edcb754",
      "resource": {
        "resourceType": "Composition",
        "id": "f56818d7-fe31-4c50-a3fe-4e176edcb754",
        "meta": {
          "profile": [
            "http://hl7.eu/fhir/laboratory/StructureDefinition/Composition-eu-lab"
          ]
        },
        "identifier": {
          "assigner": {
            "display": "HL7 Europe"
          },
          "system": "urn:oid:2.16.840.1.113883.2.51.999",
          "value": "592747f9-a708-4d9b-ac6c-c48eb3c3e4be"
        },
        "author": [
          {
            "reference": "urn:uuid:c9eacd3c-5939-4b99-ab91-f61d1c41fc7c"
          }
        ],
        "category": [
          {
            "coding": [
              {
                "code": "26436-6",
                "system": "http://loinc.org",
                "display": "Laboratory studies (set)"
              }
            ]
          }
        ],
        "type": {
          "coding": [
            {
              "code": "11502-2",
              "system": "http://loinc.org",
              "display": "Laboratory report"
            }
          ],
          "text": "Laboratory Report"
        },
        "section": [
          {
            "code": {
              "coding": [
                {
                  "code": "26436-6",
                  "system": "http://loinc.org",
                  "display": "Laboratory studies (set)"
                }
              ],
              "text": "Laboratory studies"
            },
            "section": [
              {
                "code": {
                  "coding": [
                    {
                      "code": "$18719-5",
                      "system": "http://loinc.org",
                      "display": "Chemistry studies (set)"
                    }
                  ],
                  "text": "Chemistry"
                },
                "entry": [
                  {
                    "reference": "urn:uuid:bdda5e17-9f01-4b11-a59d-0308d3261d60"
                  },
                  {
                    "reference": "urn:uuid:99f4392c-786a-4c4d-a005-067d4eb0d8c6"
                  },
                  {
                    "reference": "urn:uuid:5a9ea4d3-c36a-4127-9e5a-8d9155d434f2"
                  },
                  {
                    "reference": "urn:uuid:3c40c2f2-55d7-4215-8d4d-507ace4ce4e3"
                  },
                  {
                    "reference": "urn:uuid:a9dce0e9-05bc-45c5-a3cd-633f2a7e2651"
                  },
                  {
                    "reference": "urn:uuid:3e9579e6-59ca-4b84-8773-1ff7b8108fa7"
                  },
                  {
                    "reference": "urn:uuid:3d473403-73c4-4f72-a3a3-faaa9cee1ba4"
                  },
                  {
                    "reference": "urn:uuid:937c6ebd-ea0a-45e8-a2bf-3196b77d4b9a"
                  },
                  {
                    "reference": "urn:uuid:b426630a-bdb8-44de-bd15-b362cecb141b"
                  },
                  {
                    "reference": "urn:uuid:c54f996a-b3af-4721-aa14-abbdd1351c02"
                  },
                  {
                    "reference": "urn:uuid:050255c0-7e7a-43c2-a1d6-7fb9476c27cb"
                  },
                  {
                    "reference": "urn:uuid:7e8d54a6-19d9-4d68-9141-5e9ee7207754"
                  },
                  {
                    "reference": "urn:uuid:7872311a-2b4e-462c-a33e-af07afb57bac"
                  },
                  {
                    "reference": "urn:uuid:41945265-6b53-4ae0-ae38-69d9e35444b1"
                  },
                  {
                    "reference": "urn:uuid:b890a3e4-1dd9-4822-9499-6aa91c002a5d"
                  },
                  {
                    "reference": "urn:uuid:a6b79996-791e-41b3-8514-a3b2fc7fcce9"
                  },
                  {
                    "reference": "urn:uuid:e16771da-7504-4877-a589-6fc371534731"
                  },
                  {
                    "reference": "urn:uuid:06ac8599-ad16-48bb-ae28-61e0c2a924b6"
                  },
                  {
                    "reference": "urn:uuid:e9fd7ec5-1faf-422a-8a0c-4a69ed10488f"
                  }
                ],
                "text": {
                  "status": "generated",
                  "div": "<div xmlns=\"http://www.w3.org/1999/xhtml\"><h3>Chemistry</h3><table class=\"hl7__eu__lab__report\"><thead><tr><th>Test</th><th>24-MAR-2022</th><th>Reference&#xA0;Range</th><th>Unit</th></tr></thead><tbody><tr><td>Glucose [Mass/volume] in Blood</td><td><strong>68.3 L</strong></td><td>70 - 99</td><td>mg/dL</td></tr><tr><td>Urea nitrogen [Mass/volume] in Blood</td><td>17.7</td><td>7 - 45</td><td>mg/dL</td></tr><tr><td>Creatinine [Mass/volume] in Blood</td><td><strong>2.8 H</strong></td><td>0.6 - 1.1</td><td>mg/dL</td></tr><tr><td>Calcium [Mass/volume] in Blood</td><td>9.1</td><td>8.5 - 10.4</td><td>mg/dL</td></tr><tr><td>Sodium [Moles/volume] in Blood</td><td>140.7</td><td>135 - 145</td><td>mmol/L</td></tr><tr><td>Potassium [Moles/volume] in Blood</td><td>4.6</td><td>3.5 - 5.1</td><td>mmol/L</td></tr><tr><td>Chloride [Moles/volume] in Blood</td><td>108.3</td><td>98 - 110</td><td>mmol/L</td></tr><tr><td>Carbon dioxide, total [Moles/volume] in Blood</td><td>28.9</td><td>22 - 29</td><td>mmol/L</td></tr><tr><td>Protein [Mass/volume] in Serum or Plasma</td><td>7.0</td><td>6 - 8.3</td><td>g/dL</td></tr><tr><td>Albumin [Mass/volume] in Serum or Plasma</td><td>3.8</td><td>3.5 - 5.5</td><td>g/dL</td></tr><tr><td>Globulin [Mass/volume] in Serum by calculation</td><td>3.1</td><td>2 - 3.5</td><td>g/L</td></tr><tr><td>Bilirubin.total [Mass/volume] in Serum or Plasma</td><td>0.3</td><td>0.3 - 1.2</td><td>mg/dL</td></tr><tr><td>Alkaline phosphatase [Enzymatic activity/volume] in Serum or Plasma</td><td><strong>132.3 H</strong></td><td>44 - 130</td><td>U/L</td></tr><tr><td>Alanine aminotransferase [Enzymatic activity/volume] in Serum or Plasma</td><td>29.3</td><td>7 - 33</td><td>U/L</td></tr><tr><td>Aspartate aminotransferase [Enzymatic activity/volume] in Serum or Plasma</td><td>28.7</td><td>10 - 40</td><td>U/L</td></tr><tr><td>Cholesterol [Mass/volume] in Serum or Plasma</td><td>165.4</td><td>125 - 200</td><td>mg/dL</td></tr><tr><td>Triglyceride [Mass/volume] in Serum or Plasma</td><td><strong>197.6 H</strong></td><td>10 - 175</td><td>mg/dL</td></tr><tr><td>Cholesterol in LDL [Mass/volume] in Serum or Plasma by Direct assay</td><td>99.7</td><td>0 - 130</td><td>mg/dL</td></tr><tr><td>Cholesterol in HDL [Mass/volume] in Serum or Plasma</td><td>49.5</td><td>40 - 100</td><td>mg/dL</td></tr></tbody></table></div>"
                },
                "title": "Chemistry"
              }
            ],
            "title": "Laboratory Report"
          },
          {
            "text": {
              "status": "generated",
              "div": "<div xmlns=\"http://www.w3.org/1999/xhtml\"><h3>Annotation</h3><table class=\"hl7__eu__lab__report\"><tr><th>Conclusion and Recommendations based on this report and previous findings known to us</th></tr><tr><td>The patient shows mild hypoglycemia, significantly elevated creatinine suggesting impaired renal function, and a slight increase in alkaline phosphatase, which may indicate hepatobiliary or bone involvement. Triglycerides are also elevated. Other parameters are within normal limits. Renal function impairment should be further evaluated and correlated clinically.</td></tr></table></div>"
            },
            "code": {
              "coding": [
                {
                  "system": "http://loinc.org",
                  "code": "48767-8",
                  "display": "Annotation comment"
                }
              ]
            },
            "title": "Annotation comment"
          }
        ],
        "status": "final",
        "subject": {
          "reference": "urn:uuid:6fea3730-d062-4035-8f80-3d9de66a53f8",
          "display": "Marthe Gallet"
        },
        "date": "2022-03-24T20:05:43Z",
        "title": "Laboratory Report",
        "confidentiality": "N"
      }
    },
    {
      "fullUrl": "urn:uuid:45c7db1b-658d-408e-bb2f-8349da688938",
      "resource": {
        "resourceType": "DiagnosticReport",
        "id": "45c7db1b-658d-408e-bb2f-8349da688938",
        "meta": {
          "profile": [
            "http://hl7.eu/fhir/laboratory/StructureDefinition/DiagnosticReport-eu-lab"
          ]
        },
        "identifier": [
          {
            "assigner": {
              "display": "HL7 Europe"
            },
            "system": "urn:oid:2.16.840.1.113883.2.51.999",
            "value": "a6fc82ea-d9f6-483c-ad67-578e2e06397f"
          }
        ],
        "extension": [
          {
            "url": "http://hl7.org/fhir/5.0/StructureDefinition/extension-DiagnosticReport.composition",
            "valueReference": {
              "reference": "urn:uuid:592747f9-a708-4d9b-ac6c-c48eb3c3e4be"
            }
          }
        ],
        "category": [
          {
            "coding": [
              {
                "code": "26436-6",
                "system": "http://loinc.org",
                "display": "Laboratory studies (set)"
              }
            ]
          }
        ],
        "specimen": [
          {
            "reference": "urn:uuid:d0e4d877-0c99-4e7d-9d54-758d745be2f0"
          },
          {
            "reference": "urn:uuid:7c5b536c-f633-4856-b331-12d584c1bca9"
          },
          {
            "reference": "urn:uuid:ad06b5af-5e3e-4e05-b66d-bdaaf4d140da"
          }
        ],
        "result": [
          {
            "reference": "urn:uuid:bdda5e17-9f01-4b11-a59d-0308d3261d60"
          },
          {
            "reference": "urn:uuid:99f4392c-786a-4c4d-a005-067d4eb0d8c6"
          },
          {
            "reference": "urn:uuid:5a9ea4d3-c36a-4127-9e5a-8d9155d434f2"
          },
          {
            "reference": "urn:uuid:3c40c2f2-55d7-4215-8d4d-507ace4ce4e3"
          },
          {
            "reference": "urn:uuid:a9dce0e9-05bc-45c5-a3cd-633f2a7e2651"
          },
          {
            "reference": "urn:uuid:3e9579e6-59ca-4b84-8773-1ff7b8108fa7"
          },
          {
            "reference": "urn:uuid:3d473403-73c4-4f72-a3a3-faaa9cee1ba4"
          },
          {
            "reference": "urn:uuid:937c6ebd-ea0a-45e8-a2bf-3196b77d4b9a"
          },
          {
            "reference": "urn:uuid:b426630a-bdb8-44de-bd15-b362cecb141b"
          },
          {
            "reference": "urn:uuid:c54f996a-b3af-4721-aa14-abbdd1351c02"
          },
          {
            "reference": "urn:uuid:050255c0-7e7a-43c2-a1d6-7fb9476c27cb"
          },
          {
            "reference": "urn:uuid:7e8d54a6-19d9-4d68-9141-5e9ee7207754"
          },
          {
            "reference": "urn:uuid:7872311a-2b4e-462c-a33e-af07afb57bac"
          },
          {
            "reference": "urn:uuid:41945265-6b53-4ae0-ae38-69d9e35444b1"
          },
          {
            "reference": "urn:uuid:b890a3e4-1dd9-4822-9499-6aa91c002a5d"
          },
          {
            "reference": "urn:uuid:a6b79996-791e-41b3-8514-a3b2fc7fcce9"
          },
          {
            "reference": "urn:uuid:e16771da-7504-4877-a589-6fc371534731"
          },
          {
            "reference": "urn:uuid:06ac8599-ad16-48bb-ae28-61e0c2a924b6"
          },
          {
            "reference": "urn:uuid:e9fd7ec5-1faf-422a-8a0c-4a69ed10488f"
          }
        ],
        "status": "registered",
        "code": {
          "coding": [
            {
              "code": "11502-2",
              "system": "http://loinc.org",
              "display": "Laboratory report"
            }
          ]
        },
        "subject": {
          "reference": "urn:uuid:6fea3730-d062-4035-8f80-3d9de66a53f8",
          "display": "Marthe Gallet"
        }
      }
    },
    {
      "fullUrl": "urn:uuid:6fea3730-d062-4035-8f80-3d9de66a53f8",
      "resource": {
        "resourceType": "Patient",
        "id": "6fea3730-d062-4035-8f80-3d9de66a53f8",
        "meta": {
          "security": [
            {
              "system": "http://terminology.hl7.org/CodeSystem/v3-ActReason",
              "code": "HTEST"
            },
            {
              "system": "http://terminology.hl7.org/CodeSystem/v3-ActReason",
              "code": "TRAIN"
            }
          ],
          "tag": [
            {
              "system": "https://synderai.net/fhir/CodeSystem/tags",
              "code": "synthetic",
              "display": "SYNDERAI Synthetic data"
            }
          ],
          "profile": [
            "http://hl7.eu/fhir/base/StructureDefinition/patient-eu-core"
          ]
        },
        "identifier": [
          {
            "type": {
              "coding": [
                {
                  "code": "PT",
                  "system": "http://terminology.hl7.org/CodeSystem/v2-0203"
                }
              ]
            },
            "system": "http://ec.europa.eu/identifier/eci",
            "value": "9444-947487-6"
          },
          {
            "type": {
              "coding": [
                {
                  "code": "MR",
                  "system": "http://terminology.hl7.org/CodeSystem/v2-0203"
                }
              ]
            },
            "system": "http://local.setting.eu/identifier",
            "value": "854228d5-a476-2d9c-a1d7-c3202375a617"
          }
        ],
        "name": [
          {
            "family": "Gallet"
          },
          {
            "given": [
              "Marthe"
            ]
          },
          {
            "text": "Marthe Gallet"
          }
        ],
        "address": [
          {
            "line": [
              "3, rue Emmanuel Goncalves"
            ],
            "use": "home",
            "type": "physical",
            "postalCode": "49490",
            "city": "Briand",
            "country": "France"
          }
        ],
        "telecom": [
          {
            "system": "phone",
            "value": "+33 1 70 99 82 74"
          }
        ],
        "extension": [
          {
            "url": "http://hl7.org/fhir/StructureDefinition/patient-nationality",
            "valueCodeableConcept": {
              "coding": [
                {
                  "code": "FR",
                  "system": "http://hl7.org/fhir/ValueSet/country"
                }
              ]
            }
          }
        ],
        "text": {
          "status": "generated",
          "div": "<div xmlns=\"http://www.w3.org/1999/xhtml\"><table class=\"hl7__ips\"><tr><td>Marthe Gallet</td><td>female</td><td>29-Oct-1950</td></tr></table></div>"
        },
        "gender": "female",
        "birthDate": "1950-10-29"
      }
    },
    {
      "fullUrl": "urn:uuid:5f602298-db33-491c-9199-6337e252630f",
      "resource": {
        "resourceType": "ServiceRequest",
        "id": "5f602298-db33-491c-9199-6337e252630f",
        "meta": {
          "profile": [
            "http://hl7.eu/fhir/laboratory/StructureDefinition/ServiceRequest-eu-lab"
          ]
        },
        "identifier": [
          {
            "system": "http://example.org",
            "value": "71b64891-d29d-4973-a351-d5ab2e3f7694"
          }
        ],
        "specimen": [
          {
            "reference": "urn:uuid:d0e4d877-0c99-4e7d-9d54-758d745be2f0"
          },
          {
            "reference": "urn:uuid:7c5b536c-f633-4856-b331-12d584c1bca9"
          },
          {
            "reference": "urn:uuid:ad06b5af-5e3e-4e05-b66d-bdaaf4d140da"
          }
        ],
        "reasonCode": [
          {
            "coding": [
              {
                "code": "431856006",
                "system": "http://snomed.info/sct",
                "display": "Chronic kidney disease stage 2"
              }
            ]
          },
          {
            "coding": [
              {
                "code": "90781000119102",
                "system": "http://snomed.info/sct",
                "display": "Microalbuminuria due to type 2 diabetes mellitus"
              }
            ]
          },
          {
            "coding": [
              {
                "code": "127013003",
                "system": "http://snomed.info/sct",
                "display": "Disorder of kidney due to diabetes mellitus"
              }
            ]
          },
          {
            "coding": [
              {
                "code": "431855005",
                "system": "http://snomed.info/sct",
                "display": "Chronic kidney disease stage 1"
              }
            ]
          },
          {
            "coding": [
              {
                "code": "55822004",
                "system": "http://snomed.info/sct",
                "display": "Hyperlipidemia"
              }
            ]
          },
          {
            "coding": [
              {
                "code": "59621000",
                "system": "http://snomed.info/sct",
                "display": "Essential hypertension"
              }
            ]
          }
        ],
        "status": "active",
        "intent": "order",
        "code": {
          "coding": [
            {
              "code": "108252007",
              "system": "http://snomed.info/sct",
              "display": "Laboratory procedure"
            }
          ]
        },
        "subject": {
          "reference": "urn:uuid:6fea3730-d062-4035-8f80-3d9de66a53f8",
          "display": "Marthe Gallet"
        },
        "requester": {
          "reference": "urn:uuid:00c504e6-52f2-4aa8-9d2f-3310d3528cd1"
        }
      }
    },
    {
      "fullUrl": "urn:uuid:00c504e6-52f2-4aa8-9d2f-3310d3528cd1",
      "resource": {
        "resourceType": "PractitionerRole",
        "id": "00c504e6-52f2-4aa8-9d2f-3310d3528cd1",
        "meta": {
          "profile": [
            "http://hl7.eu/fhir/base/StructureDefinition/practitionerRole-eu"
          ]
        },
        "text": {
          "status": "generated",
          "div": "<div xmlns=\"http://www.w3.org/1999/xhtml\">Provider Role Id: 00c504e6-52f2-4aa8-9d2f-3310d3528cd1</div>"
        },
        "organization": {
          "reference": "urn:uuid:1f736477-b657-4e01-9e88-3d9f06c02954"
        }
      }
    },
    {
      "fullUrl": "urn:uuid:1f736477-b657-4e01-9e88-3d9f06c02954",
      "resource": {
        "resourceType": "Organization",
        "id": "1f736477-b657-4e01-9e88-3d9f06c02954",
        "meta": {
          "profile": [
            "http://hl7.eu/fhir/base/StructureDefinition/organization-eu"
          ]
        },
        "identifier": [
          {
            "assigner": {
              "display": "HL7 Europe"
            },
            "system": "urn:oid:2.16.840.1.113883.2.51.999",
            "value": "d809d1ec-b322-4f34-af84-a1909fd65db2"
          }
        ],
        "address": [
          {
            "line": [
              "Rue Larrey nan"
            ],
            "city": "Angers",
            "postalCode": "49100",
            "country": "France"
          }
        ],
        "text": {
          "status": "generated",
          "div": "<div xmlns=\"http://www.w3.org/1999/xhtml\">Provider Organization: CHU d&#039;Angers</div>"
        },
        "name": "CHU d&#039;Angers"
      }
    },
    {
      "fullUrl": "urn:uuid:d0e4d877-0c99-4e7d-9d54-758d745be2f0",
      "resource": {
        "resourceType": "Specimen",
        "id": "d0e4d877-0c99-4e7d-9d54-758d745be2f0",
        "meta": {
          "profile": [
            "http://hl7.eu/fhir/laboratory/StructureDefinition/Specimen-eu-lab"
          ]
        },
        "collection": {
          "collectedDateTime": "2022-03-24"
        },
        "text": {
          "status": "generated",
          "div": "<div xmlns=\"http://www.w3.org/1999/xhtml\"><table class=\"hl7__eu__lab__report\"><tr><th>Specimen</th><th>Collection Date</th></tr><tr><td>Whole blood specimen (specimen)</td><td><span class=\"nb\">24-Mar-2022</span></td></tr></table></div>"
        },
        "type": {
          "coding": [
            {
              "code": "258580003",
              "system": "http://snomed.info/sct",
              "display": "Whole blood specimen (specimen)"
            }
          ]
        }
      }
    },
    {
      "fullUrl": "urn:uuid:7c5b536c-f633-4856-b331-12d584c1bca9",
      "resource": {
        "resourceType": "Specimen",
        "id": "7c5b536c-f633-4856-b331-12d584c1bca9",
        "meta": {
          "profile": [
            "http://hl7.eu/fhir/laboratory/StructureDefinition/Specimen-eu-lab"
          ]
        },
        "collection": {
          "collectedDateTime": "2022-03-24"
        },
        "text": {
          "status": "generated",
          "div": "<div xmlns=\"http://www.w3.org/1999/xhtml\"><table class=\"hl7__eu__lab__report\"><tr><th>Specimen</th><th>Collection Date</th></tr><tr><td>Acellular blood (serum or plasma) specimen</td><td><span class=\"nb\">24-Mar-2022</span></td></tr></table></div>"
        },
        "type": {
          "coding": [
            {
              "code": "122592007",
              "system": "http://snomed.info/sct",
              "display": "Acellular blood (serum or plasma) specimen"
            }
          ]
        }
      }
    },
    {
      "fullUrl": "urn:uuid:ad06b5af-5e3e-4e05-b66d-bdaaf4d140da",
      "resource": {
        "resourceType": "Specimen",
        "id": "ad06b5af-5e3e-4e05-b66d-bdaaf4d140da",
        "meta": {
          "profile": [
            "http://hl7.eu/fhir/laboratory/StructureDefinition/Specimen-eu-lab"
          ]
        },
        "collection": {
          "collectedDateTime": "2022-03-24"
        },
        "text": {
          "status": "generated",
          "div": "<div xmlns=\"http://www.w3.org/1999/xhtml\"><table class=\"hl7__eu__lab__report\"><tr><th>Specimen</th><th>Collection Date</th></tr><tr><td>Serum specimen</td><td><span class=\"nb\">24-Mar-2022</span></td></tr></table></div>"
        },
        "type": {
          "coding": [
            {
              "code": "119364003",
              "system": "http://snomed.info/sct",
              "display": "Serum specimen"
            }
          ]
        }
      }
    },
    {
      "fullUrl": "urn:uuid:bdda5e17-9f01-4b11-a59d-0308d3261d60",
      "resource": {
        "resourceType": "Observation",
        "id": "bdda5e17-9f01-4b11-a59d-0308d3261d60",
        "meta": {
          "profile": [
            "http://hl7.eu/fhir/laboratory/StructureDefinition/Observation-resultslab-eu-lab"
          ]
        },
        "performer": [
          {
            "display": "The Central European Lab"
          }
        ],
        "category": [
          {
            "coding": [
              {
                "system": "http://terminology.hl7.org/CodeSystem/observation-category",
                "code": "laboratory"
              }
            ]
          }
        ],
        "code": {
          "coding": [
            {
              "code": "2339-0",
              "system": "http://loinc.org",
              "display": "Glucose [Mass/volume] in Blood"
            }
          ],
          "text": "Glucose [Mass/volume] in Blood"
        },
        "valueQuantity": {
          "system": "http://unitsofmeasure.org",
          "value": 68.3,
          "unit": "mg/dL",
          "code": "mg/dL"
        },
        "referenceRange": [
          {
            "low": {
              "value": 70,
              "code": "mg/dL",
              "system": "http://unitsofmeasure.org"
            }
          },
          {
            "high": {
              "value": 99,
              "code": "mg/dL",
              "system": "http://unitsofmeasure.org"
            }
          }
        ],
        "interpretation": [
          {
            "coding": [
              {
                "code": "L",
                "system": "http://terminology.hl7.org/CodeSystem/v3-ObservationInterpretation",
                "display": "Low"
              }
            ]
          }
        ],
        "text": {
          "status": "generated",
          "div": "<div xmlns=\"http://www.w3.org/1999/xhtml\"><table class=\"hl7__eu__lab__report\"><tr><th>Test</th><th>24-Mar-2022</th><th>Reference&#xA0;Range</th><th>Unit</th></tr><tr><td>Glucose [Mass/volume] in Blood</td><td>68.3</td><td>70 - 99</td><td>L</td><td>mg/dL</td></tr></table></div>"
        },
        "status": "final",
        "subject": {
          "reference": "urn:uuid:6fea3730-d062-4035-8f80-3d9de66a53f8",
          "display": "Marthe Gallet"
        },
        "effectiveDateTime": "2022-03-24T19:05:43Z",
        "specimen": {
          "reference": "urn:uuid:d0e4d877-0c99-4e7d-9d54-758d745be2f0"
        }
      }
    },
    {
      "fullUrl": "urn:uuid:99f4392c-786a-4c4d-a005-067d4eb0d8c6",
      "resource": {
        "resourceType": "Observation",
        "id": "99f4392c-786a-4c4d-a005-067d4eb0d8c6",
        "meta": {
          "profile": [
            "http://hl7.eu/fhir/laboratory/StructureDefinition/Observation-resultslab-eu-lab"
          ]
        },
        "performer": [
          {
            "display": "The Central European Lab"
          }
        ],
        "category": [
          {
            "coding": [
              {
                "system": "http://terminology.hl7.org/CodeSystem/observation-category",
                "code": "laboratory"
              }
            ]
          }
        ],
        "code": {
          "coding": [
            {
              "code": "6299-2",
              "system": "http://loinc.org",
              "display": "Urea nitrogen [Mass/volume] in Blood"
            }
          ],
          "text": "Urea nitrogen [Mass/volume] in Blood"
        },
        "valueQuantity": {
          "system": "http://unitsofmeasure.org",
          "value": 17.7,
          "unit": "mg/dL",
          "code": "mg/dL"
        },
        "referenceRange": [
          {
            "low": {
              "value": 7,
              "code": "mg/dL",
              "system": "http://unitsofmeasure.org"
            }
          },
          {
            "high": {
              "value": 45,
              "code": "mg/dL",
              "system": "http://unitsofmeasure.org"
            }
          }
        ],
        "text": {
          "status": "generated",
          "div": "<div xmlns=\"http://www.w3.org/1999/xhtml\"><table class=\"hl7__eu__lab__report\"><tr><th>Test</th><th>24-Mar-2022</th><th>Reference&#xA0;Range</th><th>Unit</th></tr><tr><td>Urea nitrogen [Mass/volume] in Blood</td><td>17.7</td><td>7 - 45</td><td></td><td>mg/dL</td></tr></table></div>"
        },
        "status": "final",
        "subject": {
          "reference": "urn:uuid:6fea3730-d062-4035-8f80-3d9de66a53f8",
          "display": "Marthe Gallet"
        },
        "effectiveDateTime": "2022-03-24T19:05:43Z",
        "specimen": {
          "reference": "urn:uuid:d0e4d877-0c99-4e7d-9d54-758d745be2f0"
        }
      }
    },
    {
      "fullUrl": "urn:uuid:5a9ea4d3-c36a-4127-9e5a-8d9155d434f2",
      "resource": {
        "resourceType": "Observation",
        "id": "5a9ea4d3-c36a-4127-9e5a-8d9155d434f2",
        "meta": {
          "profile": [
            "http://hl7.eu/fhir/laboratory/StructureDefinition/Observation-resultslab-eu-lab"
          ]
        },
        "performer": [
          {
            "display": "The Central European Lab"
          }
        ],
        "category": [
          {
            "coding": [
              {
                "system": "http://terminology.hl7.org/CodeSystem/observation-category",
                "code": "laboratory"
              }
            ]
          }
        ],
        "code": {
          "coding": [
            {
              "code": "38483-4",
              "system": "http://loinc.org",
              "display": "Creatinine [Mass/volume] in Blood"
            }
          ],
          "text": "Creatinine [Mass/volume] in Blood"
        },
        "valueQuantity": {
          "system": "http://unitsofmeasure.org",
          "value": 2.8,
          "unit": "mg/dL",
          "code": "mg/dL"
        },
        "referenceRange": [
          {
            "low": {
              "value": 0.6,
              "code": "mg/dL",
              "system": "http://unitsofmeasure.org"
            }
          },
          {
            "high": {
              "value": 1.1,
              "code": "mg/dL",
              "system": "http://unitsofmeasure.org"
            }
          }
        ],
        "interpretation": [
          {
            "coding": [
              {
                "code": "H",
                "system": "http://terminology.hl7.org/CodeSystem/v3-ObservationInterpretation",
                "display": "High"
              }
            ]
          }
        ],
        "text": {
          "status": "generated",
          "div": "<div xmlns=\"http://www.w3.org/1999/xhtml\"><table class=\"hl7__eu__lab__report\"><tr><th>Test</th><th>24-Mar-2022</th><th>Reference&#xA0;Range</th><th>Unit</th></tr><tr><td>Creatinine [Mass/volume] in Blood</td><td>2.8</td><td>0.6 - 1.1</td><td>H</td><td>mg/dL</td></tr></table></div>"
        },
        "status": "final",
        "subject": {
          "reference": "urn:uuid:6fea3730-d062-4035-8f80-3d9de66a53f8",
          "display": "Marthe Gallet"
        },
        "effectiveDateTime": "2022-03-24T19:05:43Z",
        "specimen": {
          "reference": "urn:uuid:d0e4d877-0c99-4e7d-9d54-758d745be2f0"
        }
      }
    },
    {
      "fullUrl": "urn:uuid:3c40c2f2-55d7-4215-8d4d-507ace4ce4e3",
      "resource": {
        "resourceType": "Observation",
        "id": "3c40c2f2-55d7-4215-8d4d-507ace4ce4e3",
        "meta": {
          "profile": [
            "http://hl7.eu/fhir/laboratory/StructureDefinition/Observation-resultslab-eu-lab"
          ]
        },
        "performer": [
          {
            "display": "The Central European Lab"
          }
        ],
        "category": [
          {
            "coding": [
              {
                "system": "http://terminology.hl7.org/CodeSystem/observation-category",
                "code": "laboratory"
              }
            ]
          }
        ],
        "code": {
          "coding": [
            {
              "code": "49765-1",
              "system": "http://loinc.org",
              "display": "Calcium [Mass/volume] in Blood"
            }
          ],
          "text": "Calcium [Mass/volume] in Blood"
        },
        "valueQuantity": {
          "system": "http://unitsofmeasure.org",
          "value": 9.1,
          "unit": "mg/dL",
          "code": "mg/dL"
        },
        "referenceRange": [
          {
            "low": {
              "value": 8.5,
              "code": "mg/dL",
              "system": "http://unitsofmeasure.org"
            }
          },
          {
            "high": {
              "value": 10.4,
              "code": "mg/dL",
              "system": "http://unitsofmeasure.org"
            }
          }
        ],
        "text": {
          "status": "generated",
          "div": "<div xmlns=\"http://www.w3.org/1999/xhtml\"><table class=\"hl7__eu__lab__report\"><tr><th>Test</th><th>24-Mar-2022</th><th>Reference&#xA0;Range</th><th>Unit</th></tr><tr><td>Calcium [Mass/volume] in Blood</td><td>9.1</td><td>8.5 - 10.4</td><td></td><td>mg/dL</td></tr></table></div>"
        },
        "status": "final",
        "subject": {
          "reference": "urn:uuid:6fea3730-d062-4035-8f80-3d9de66a53f8",
          "display": "Marthe Gallet"
        },
        "effectiveDateTime": "2022-03-24T19:05:43Z",
        "specimen": {
          "reference": "urn:uuid:d0e4d877-0c99-4e7d-9d54-758d745be2f0"
        }
      }
    },
    {
      "fullUrl": "urn:uuid:a9dce0e9-05bc-45c5-a3cd-633f2a7e2651",
      "resource": {
        "resourceType": "Observation",
        "id": "a9dce0e9-05bc-45c5-a3cd-633f2a7e2651",
        "meta": {
          "profile": [
            "http://hl7.eu/fhir/laboratory/StructureDefinition/Observation-resultslab-eu-lab"
          ]
        },
        "performer": [
          {
            "display": "The Central European Lab"
          }
        ],
        "category": [
          {
            "coding": [
              {
                "system": "http://terminology.hl7.org/CodeSystem/observation-category",
                "code": "laboratory"
              }
            ]
          }
        ],
        "code": {
          "coding": [
            {
              "code": "2947-0",
              "system": "http://loinc.org",
              "display": "Sodium [Moles/volume] in Blood"
            }
          ],
          "text": "Sodium [Moles/volume] in Blood"
        },
        "valueQuantity": {
          "system": "http://unitsofmeasure.org",
          "value": 140.7,
          "unit": "mmol/L",
          "code": "mmol/L"
        },
        "referenceRange": [
          {
            "low": {
              "value": 135,
              "code": "mmol/L",
              "system": "http://unitsofmeasure.org"
            }
          },
          {
            "high": {
              "value": 145,
              "code": "mmol/L",
              "system": "http://unitsofmeasure.org"
            }
          }
        ],
        "text": {
          "status": "generated",
          "div": "<div xmlns=\"http://www.w3.org/1999/xhtml\"><table class=\"hl7__eu__lab__report\"><tr><th>Test</th><th>24-Mar-2022</th><th>Reference&#xA0;Range</th><th>Unit</th></tr><tr><td>Sodium [Moles/volume] in Blood</td><td>140.7</td><td>135 - 145</td><td></td><td>mmol/L</td></tr></table></div>"
        },
        "status": "final",
        "subject": {
          "reference": "urn:uuid:6fea3730-d062-4035-8f80-3d9de66a53f8",
          "display": "Marthe Gallet"
        },
        "effectiveDateTime": "2022-03-24T19:05:43Z",
        "specimen": {
          "reference": "urn:uuid:d0e4d877-0c99-4e7d-9d54-758d745be2f0"
        }
      }
    },
    {
      "fullUrl": "urn:uuid:3e9579e6-59ca-4b84-8773-1ff7b8108fa7",
      "resource": {
        "resourceType": "Observation",
        "id": "3e9579e6-59ca-4b84-8773-1ff7b8108fa7",
        "meta": {
          "profile": [
            "http://hl7.eu/fhir/laboratory/StructureDefinition/Observation-resultslab-eu-lab"
          ]
        },
        "performer": [
          {
            "display": "The Central European Lab"
          }
        ],
        "category": [
          {
            "coding": [
              {
                "system": "http://terminology.hl7.org/CodeSystem/observation-category",
                "code": "laboratory"
              }
            ]
          }
        ],
        "code": {
          "coding": [
            {
              "code": "6298-4",
              "system": "http://loinc.org",
              "display": "Potassium [Moles/volume] in Blood"
            }
          ],
          "text": "Potassium [Moles/volume] in Blood"
        },
        "valueQuantity": {
          "system": "http://unitsofmeasure.org",
          "value": 4.6,
          "unit": "mmol/L",
          "code": "mmol/L"
        },
        "referenceRange": [
          {
            "low": {
              "value": 3.5,
              "code": "mmol/L",
              "system": "http://unitsofmeasure.org"
            }
          },
          {
            "high": {
              "value": 5.1,
              "code": "mmol/L",
              "system": "http://unitsofmeasure.org"
            }
          }
        ],
        "text": {
          "status": "generated",
          "div": "<div xmlns=\"http://www.w3.org/1999/xhtml\"><table class=\"hl7__eu__lab__report\"><tr><th>Test</th><th>24-Mar-2022</th><th>Reference&#xA0;Range</th><th>Unit</th></tr><tr><td>Potassium [Moles/volume] in Blood</td><td>4.6</td><td>3.5 - 5.1</td><td></td><td>mmol/L</td></tr></table></div>"
        },
        "status": "final",
        "subject": {
          "reference": "urn:uuid:6fea3730-d062-4035-8f80-3d9de66a53f8",
          "display": "Marthe Gallet"
        },
        "effectiveDateTime": "2022-03-24T19:05:43Z",
        "specimen": {
          "reference": "urn:uuid:d0e4d877-0c99-4e7d-9d54-758d745be2f0"
        }
      }
    },
    {
      "fullUrl": "urn:uuid:3d473403-73c4-4f72-a3a3-faaa9cee1ba4",
      "resource": {
        "resourceType": "Observation",
        "id": "3d473403-73c4-4f72-a3a3-faaa9cee1ba4",
        "meta": {
          "profile": [
            "http://hl7.eu/fhir/laboratory/StructureDefinition/Observation-resultslab-eu-lab"
          ]
        },
        "performer": [
          {
            "display": "The Central European Lab"
          }
        ],
        "category": [
          {
            "coding": [
              {
                "system": "http://terminology.hl7.org/CodeSystem/observation-category",
                "code": "laboratory"
              }
            ]
          }
        ],
        "code": {
          "coding": [
            {
              "code": "2069-3",
              "system": "http://loinc.org",
              "display": "Chloride [Moles/volume] in Blood"
            }
          ],
          "text": "Chloride [Moles/volume] in Blood"
        },
        "valueQuantity": {
          "system": "http://unitsofmeasure.org",
          "value": 108.3,
          "unit": "mmol/L",
          "code": "mmol/L"
        },
        "referenceRange": [
          {
            "low": {
              "value": 98,
              "code": "mmol/L",
              "system": "http://unitsofmeasure.org"
            }
          },
          {
            "high": {
              "value": 110,
              "code": "mmol/L",
              "system": "http://unitsofmeasure.org"
            }
          }
        ],
        "text": {
          "status": "generated",
          "div": "<div xmlns=\"http://www.w3.org/1999/xhtml\"><table class=\"hl7__eu__lab__report\"><tr><th>Test</th><th>24-Mar-2022</th><th>Reference&#xA0;Range</th><th>Unit</th></tr><tr><td>Chloride [Moles/volume] in Blood</td><td>108.3</td><td>98 - 110</td><td></td><td>mmol/L</td></tr></table></div>"
        },
        "status": "final",
        "subject": {
          "reference": "urn:uuid:6fea3730-d062-4035-8f80-3d9de66a53f8",
          "display": "Marthe Gallet"
        },
        "effectiveDateTime": "2022-03-24T19:05:43Z",
        "specimen": {
          "reference": "urn:uuid:d0e4d877-0c99-4e7d-9d54-758d745be2f0"
        }
      }
    },
    {
      "fullUrl": "urn:uuid:937c6ebd-ea0a-45e8-a2bf-3196b77d4b9a",
      "resource": {
        "resourceType": "Observation",
        "id": "937c6ebd-ea0a-45e8-a2bf-3196b77d4b9a",
        "meta": {
          "profile": [
            "http://hl7.eu/fhir/laboratory/StructureDefinition/Observation-resultslab-eu-lab"
          ]
        },
        "performer": [
          {
            "display": "The Central European Lab"
          }
        ],
        "category": [
          {
            "coding": [
              {
                "system": "http://terminology.hl7.org/CodeSystem/observation-category",
                "code": "laboratory"
              }
            ]
          }
        ],
        "code": {
          "coding": [
            {
              "code": "20565-8",
              "system": "http://loinc.org",
              "display": "Carbon dioxide, total [Moles/volume] in Blood"
            }
          ],
          "text": "Carbon dioxide, total [Moles/volume] in Blood"
        },
        "valueQuantity": {
          "system": "http://unitsofmeasure.org",
          "value": 28.9,
          "unit": "mmol/L",
          "code": "mmol/L"
        },
        "referenceRange": [
          {
            "low": {
              "value": 22,
              "code": "mmol/L",
              "system": "http://unitsofmeasure.org"
            }
          },
          {
            "high": {
              "value": 29,
              "code": "mmol/L",
              "system": "http://unitsofmeasure.org"
            }
          }
        ],
        "text": {
          "status": "generated",
          "div": "<div xmlns=\"http://www.w3.org/1999/xhtml\"><table class=\"hl7__eu__lab__report\"><tr><th>Test</th><th>24-Mar-2022</th><th>Reference&#xA0;Range</th><th>Unit</th></tr><tr><td>Carbon dioxide, total [Moles/volume] in Blood</td><td>28.9</td><td>22 - 29</td><td></td><td>mmol/L</td></tr></table></div>"
        },
        "status": "final",
        "subject": {
          "reference": "urn:uuid:6fea3730-d062-4035-8f80-3d9de66a53f8",
          "display": "Marthe Gallet"
        },
        "effectiveDateTime": "2022-03-24T19:05:43Z",
        "specimen": {
          "reference": "urn:uuid:d0e4d877-0c99-4e7d-9d54-758d745be2f0"
        }
      }
    },
    {
      "fullUrl": "urn:uuid:b426630a-bdb8-44de-bd15-b362cecb141b",
      "resource": {
        "resourceType": "Observation",
        "id": "b426630a-bdb8-44de-bd15-b362cecb141b",
        "meta": {
          "profile": [
            "http://hl7.eu/fhir/laboratory/StructureDefinition/Observation-resultslab-eu-lab"
          ]
        },
        "performer": [
          {
            "display": "The Central European Lab"
          }
        ],
        "category": [
          {
            "coding": [
              {
                "system": "http://terminology.hl7.org/CodeSystem/observation-category",
                "code": "laboratory"
              }
            ]
          }
        ],
        "code": {
          "coding": [
            {
              "code": "2885-2",
              "system": "http://loinc.org",
              "display": "Protein [Mass/volume] in Serum or Plasma"
            }
          ],
          "text": "Protein [Mass/volume] in Serum or Plasma"
        },
        "valueQuantity": {
          "system": "http://unitsofmeasure.org",
          "value": 7,
          "unit": "g/dL",
          "code": "g/dL"
        },
        "referenceRange": [
          {
            "low": {
              "value": 6,
              "code": "g/dL",
              "system": "http://unitsofmeasure.org"
            }
          },
          {
            "high": {
              "value": 8.3,
              "code": "g/dL",
              "system": "http://unitsofmeasure.org"
            }
          }
        ],
        "text": {
          "status": "generated",
          "div": "<div xmlns=\"http://www.w3.org/1999/xhtml\"><table class=\"hl7__eu__lab__report\"><tr><th>Test</th><th>24-Mar-2022</th><th>Reference&#xA0;Range</th><th>Unit</th></tr><tr><td>Protein [Mass/volume] in Serum or Plasma</td><td>7.0</td><td>6 - 8.3</td><td></td><td>g/dL</td></tr></table></div>"
        },
        "status": "final",
        "subject": {
          "reference": "urn:uuid:6fea3730-d062-4035-8f80-3d9de66a53f8",
          "display": "Marthe Gallet"
        },
        "effectiveDateTime": "2022-03-24T19:05:43Z",
        "specimen": {
          "reference": "urn:uuid:7c5b536c-f633-4856-b331-12d584c1bca9"
        }
      }
    },
    {
      "fullUrl": "urn:uuid:c54f996a-b3af-4721-aa14-abbdd1351c02",
      "resource": {
        "resourceType": "Observation",
        "id": "c54f996a-b3af-4721-aa14-abbdd1351c02",
        "meta": {
          "profile": [
            "http://hl7.eu/fhir/laboratory/StructureDefinition/Observation-resultslab-eu-lab"
          ]
        },
        "performer": [
          {
            "display": "The Central European Lab"
          }
        ],
        "category": [
          {
            "coding": [
              {
                "system": "http://terminology.hl7.org/CodeSystem/observation-category",
                "code": "laboratory"
              }
            ]
          }
        ],
        "code": {
          "coding": [
            {
              "code": "1751-7",
              "system": "http://loinc.org",
              "display": "Albumin [Mass/volume] in Serum or Plasma"
            }
          ],
          "text": "Albumin [Mass/volume] in Serum or Plasma"
        },
        "valueQuantity": {
          "system": "http://unitsofmeasure.org",
          "value": 3.8,
          "unit": "g/dL",
          "code": "g/dL"
        },
        "referenceRange": [
          {
            "low": {
              "value": 3.5,
              "code": "g/dL",
              "system": "http://unitsofmeasure.org"
            }
          },
          {
            "high": {
              "value": 5.5,
              "code": "g/dL",
              "system": "http://unitsofmeasure.org"
            }
          }
        ],
        "text": {
          "status": "generated",
          "div": "<div xmlns=\"http://www.w3.org/1999/xhtml\"><table class=\"hl7__eu__lab__report\"><tr><th>Test</th><th>24-Mar-2022</th><th>Reference&#xA0;Range</th><th>Unit</th></tr><tr><td>Albumin [Mass/volume] in Serum or Plasma</td><td>3.8</td><td>3.5 - 5.5</td><td></td><td>g/dL</td></tr></table></div>"
        },
        "status": "final",
        "subject": {
          "reference": "urn:uuid:6fea3730-d062-4035-8f80-3d9de66a53f8",
          "display": "Marthe Gallet"
        },
        "effectiveDateTime": "2022-03-24T19:05:43Z",
        "specimen": {
          "reference": "urn:uuid:7c5b536c-f633-4856-b331-12d584c1bca9"
        }
      }
    },
    {
      "fullUrl": "urn:uuid:050255c0-7e7a-43c2-a1d6-7fb9476c27cb",
      "resource": {
        "resourceType": "Observation",
        "id": "050255c0-7e7a-43c2-a1d6-7fb9476c27cb",
        "meta": {
          "profile": [
            "http://hl7.eu/fhir/laboratory/StructureDefinition/Observation-resultslab-eu-lab"
          ]
        },
        "performer": [
          {
            "display": "The Central European Lab"
          }
        ],
        "category": [
          {
            "coding": [
              {
                "system": "http://terminology.hl7.org/CodeSystem/observation-category",
                "code": "laboratory"
              }
            ]
          }
        ],
        "code": {
          "coding": [
            {
              "code": "10834-0",
              "system": "http://loinc.org",
              "display": "Globulin [Mass/volume] in Serum by calculation"
            }
          ],
          "text": "Globulin [Mass/volume] in Serum by calculation"
        },
        "valueQuantity": {
          "system": "http://unitsofmeasure.org",
          "value": 3.1,
          "unit": "g/L",
          "code": "g/L"
        },
        "referenceRange": [
          {
            "low": {
              "value": 2,
              "code": "g/L",
              "system": "http://unitsofmeasure.org"
            }
          },
          {
            "high": {
              "value": 3.5,
              "code": "g/L",
              "system": "http://unitsofmeasure.org"
            }
          }
        ],
        "text": {
          "status": "generated",
          "div": "<div xmlns=\"http://www.w3.org/1999/xhtml\"><table class=\"hl7__eu__lab__report\"><tr><th>Test</th><th>24-Mar-2022</th><th>Reference&#xA0;Range</th><th>Unit</th></tr><tr><td>Globulin [Mass/volume] in Serum by calculation</td><td>3.1</td><td>2 - 3.5</td><td></td><td>g/L</td></tr></table></div>"
        },
        "status": "final",
        "subject": {
          "reference": "urn:uuid:6fea3730-d062-4035-8f80-3d9de66a53f8",
          "display": "Marthe Gallet"
        },
        "effectiveDateTime": "2022-03-24T19:05:43Z",
        "specimen": {
          "reference": "urn:uuid:ad06b5af-5e3e-4e05-b66d-bdaaf4d140da"
        }
      }
    },
    {
      "fullUrl": "urn:uuid:7e8d54a6-19d9-4d68-9141-5e9ee7207754",
      "resource": {
        "resourceType": "Observation",
        "id": "7e8d54a6-19d9-4d68-9141-5e9ee7207754",
        "meta": {
          "profile": [
            "http://hl7.eu/fhir/laboratory/StructureDefinition/Observation-resultslab-eu-lab"
          ]
        },
        "performer": [
          {
            "display": "The Central European Lab"
          }
        ],
        "category": [
          {
            "coding": [
              {
                "system": "http://terminology.hl7.org/CodeSystem/observation-category",
                "code": "laboratory"
              }
            ]
          }
        ],
        "code": {
          "coding": [
            {
              "code": "1975-2",
              "system": "http://loinc.org",
              "display": "Bilirubin.total [Mass/volume] in Serum or Plasma"
            }
          ],
          "text": "Bilirubin.total [Mass/volume] in Serum or Plasma"
        },
        "valueQuantity": {
          "system": "http://unitsofmeasure.org",
          "value": 0.3,
          "unit": "mg/dL",
          "code": "mg/dL"
        },
        "referenceRange": [
          {
            "low": {
              "value": 0.3,
              "code": "mg/dL",
              "system": "http://unitsofmeasure.org"
            }
          },
          {
            "high": {
              "value": 1.2,
              "code": "mg/dL",
              "system": "http://unitsofmeasure.org"
            }
          }
        ],
        "text": {
          "status": "generated",
          "div": "<div xmlns=\"http://www.w3.org/1999/xhtml\"><table class=\"hl7__eu__lab__report\"><tr><th>Test</th><th>24-Mar-2022</th><th>Reference&#xA0;Range</th><th>Unit</th></tr><tr><td>Bilirubin.total [Mass/volume] in Serum or Plasma</td><td>0.3</td><td>0.3 - 1.2</td><td></td><td>mg/dL</td></tr></table></div>"
        },
        "status": "final",
        "subject": {
          "reference": "urn:uuid:6fea3730-d062-4035-8f80-3d9de66a53f8",
          "display": "Marthe Gallet"
        },
        "effectiveDateTime": "2022-03-24T19:05:43Z",
        "specimen": {
          "reference": "urn:uuid:7c5b536c-f633-4856-b331-12d584c1bca9"
        }
      }
    },
    {
      "fullUrl": "urn:uuid:7872311a-2b4e-462c-a33e-af07afb57bac",
      "resource": {
        "resourceType": "Observation",
        "id": "7872311a-2b4e-462c-a33e-af07afb57bac",
        "meta": {
          "profile": [
            "http://hl7.eu/fhir/laboratory/StructureDefinition/Observation-resultslab-eu-lab"
          ]
        },
        "performer": [
          {
            "display": "The Central European Lab"
          }
        ],
        "category": [
          {
            "coding": [
              {
                "system": "http://terminology.hl7.org/CodeSystem/observation-category",
                "code": "laboratory"
              }
            ]
          }
        ],
        "code": {
          "coding": [
            {
              "code": "6768-6",
              "system": "http://loinc.org",
              "display": "Alkaline phosphatase [Enzymatic activity/volume] in Serum or Plasma"
            }
          ],
          "text": "Alkaline phosphatase [Enzymatic activity/volume] in Serum or Plasma"
        },
        "valueQuantity": {
          "system": "http://unitsofmeasure.org",
          "value": 132.3,
          "unit": "U/L",
          "code": "U/L"
        },
        "referenceRange": [
          {
            "low": {
              "value": 44,
              "code": "U/L",
              "system": "http://unitsofmeasure.org"
            }
          },
          {
            "high": {
              "value": 130,
              "code": "U/L",
              "system": "http://unitsofmeasure.org"
            }
          }
        ],
        "interpretation": [
          {
            "coding": [
              {
                "code": "H",
                "system": "http://terminology.hl7.org/CodeSystem/v3-ObservationInterpretation",
                "display": "High"
              }
            ]
          }
        ],
        "text": {
          "status": "generated",
          "div": "<div xmlns=\"http://www.w3.org/1999/xhtml\"><table class=\"hl7__eu__lab__report\"><tr><th>Test</th><th>24-Mar-2022</th><th>Reference&#xA0;Range</th><th>Unit</th></tr><tr><td>Alkaline phosphatase [Enzymatic activity/volume] in Serum or Plasma</td><td>132.3</td><td>44 - 130</td><td>H</td><td>U/L</td></tr></table></div>"
        },
        "status": "final",
        "subject": {
          "reference": "urn:uuid:6fea3730-d062-4035-8f80-3d9de66a53f8",
          "display": "Marthe Gallet"
        },
        "effectiveDateTime": "2022-03-24T19:05:43Z",
        "specimen": {
          "reference": "urn:uuid:7c5b536c-f633-4856-b331-12d584c1bca9"
        }
      }
    },
    {
      "fullUrl": "urn:uuid:41945265-6b53-4ae0-ae38-69d9e35444b1",
      "resource": {
        "resourceType": "Observation",
        "id": "41945265-6b53-4ae0-ae38-69d9e35444b1",
        "meta": {
          "profile": [
            "http://hl7.eu/fhir/laboratory/StructureDefinition/Observation-resultslab-eu-lab"
          ]
        },
        "performer": [
          {
            "display": "The Central European Lab"
          }
        ],
        "category": [
          {
            "coding": [
              {
                "system": "http://terminology.hl7.org/CodeSystem/observation-category",
                "code": "laboratory"
              }
            ]
          }
        ],
        "code": {
          "coding": [
            {
              "code": "1742-6",
              "system": "http://loinc.org",
              "display": "Alanine aminotransferase [Enzymatic activity/volume] in Serum or Plasma"
            }
          ],
          "text": "Alanine aminotransferase [Enzymatic activity/volume] in Serum or Plasma"
        },
        "valueQuantity": {
          "system": "http://unitsofmeasure.org",
          "value": 29.3,
          "unit": "U/L",
          "code": "U/L"
        },
        "referenceRange": [
          {
            "low": {
              "value": 7,
              "code": "U/L",
              "system": "http://unitsofmeasure.org"
            }
          },
          {
            "high": {
              "value": 33,
              "code": "U/L",
              "system": "http://unitsofmeasure.org"
            }
          }
        ],
        "text": {
          "status": "generated",
          "div": "<div xmlns=\"http://www.w3.org/1999/xhtml\"><table class=\"hl7__eu__lab__report\"><tr><th>Test</th><th>24-Mar-2022</th><th>Reference&#xA0;Range</th><th>Unit</th></tr><tr><td>Alanine aminotransferase [Enzymatic activity/volume] in Serum or Plasma</td><td>29.3</td><td>7 - 33</td><td></td><td>U/L</td></tr></table></div>"
        },
        "status": "final",
        "subject": {
          "reference": "urn:uuid:6fea3730-d062-4035-8f80-3d9de66a53f8",
          "display": "Marthe Gallet"
        },
        "effectiveDateTime": "2022-03-24T19:05:43Z",
        "specimen": {
          "reference": "urn:uuid:7c5b536c-f633-4856-b331-12d584c1bca9"
        }
      }
    },
    {
      "fullUrl": "urn:uuid:b890a3e4-1dd9-4822-9499-6aa91c002a5d",
      "resource": {
        "resourceType": "Observation",
        "id": "b890a3e4-1dd9-4822-9499-6aa91c002a5d",
        "meta": {
          "profile": [
            "http://hl7.eu/fhir/laboratory/StructureDefinition/Observation-resultslab-eu-lab"
          ]
        },
        "performer": [
          {
            "display": "The Central European Lab"
          }
        ],
        "category": [
          {
            "coding": [
              {
                "system": "http://terminology.hl7.org/CodeSystem/observation-category",
                "code": "laboratory"
              }
            ]
          }
        ],
        "code": {
          "coding": [
            {
              "code": "1920-8",
              "system": "http://loinc.org",
              "display": "Aspartate aminotransferase [Enzymatic activity/volume] in Serum or Plasma"
            }
          ],
          "text": "Aspartate aminotransferase [Enzymatic activity/volume] in Serum or Plasma"
        },
        "valueQuantity": {
          "system": "http://unitsofmeasure.org",
          "value": 28.7,
          "unit": "U/L",
          "code": "U/L"
        },
        "referenceRange": [
          {
            "low": {
              "value": 10,
              "code": "U/L",
              "system": "http://unitsofmeasure.org"
            }
          },
          {
            "high": {
              "value": 40,
              "code": "U/L",
              "system": "http://unitsofmeasure.org"
            }
          }
        ],
        "text": {
          "status": "generated",
          "div": "<div xmlns=\"http://www.w3.org/1999/xhtml\"><table class=\"hl7__eu__lab__report\"><tr><th>Test</th><th>24-Mar-2022</th><th>Reference&#xA0;Range</th><th>Unit</th></tr><tr><td>Aspartate aminotransferase [Enzymatic activity/volume] in Serum or Plasma</td><td>28.7</td><td>10 - 40</td><td></td><td>U/L</td></tr></table></div>"
        },
        "status": "final",
        "subject": {
          "reference": "urn:uuid:6fea3730-d062-4035-8f80-3d9de66a53f8",
          "display": "Marthe Gallet"
        },
        "effectiveDateTime": "2022-03-24T19:05:43Z",
        "specimen": {
          "reference": "urn:uuid:7c5b536c-f633-4856-b331-12d584c1bca9"
        }
      }
    },
    {
      "fullUrl": "urn:uuid:a6b79996-791e-41b3-8514-a3b2fc7fcce9",
      "resource": {
        "resourceType": "Observation",
        "id": "a6b79996-791e-41b3-8514-a3b2fc7fcce9",
        "meta": {
          "profile": [
            "http://hl7.eu/fhir/laboratory/StructureDefinition/Observation-resultslab-eu-lab"
          ]
        },
        "performer": [
          {
            "display": "The Central European Lab"
          }
        ],
        "category": [
          {
            "coding": [
              {
                "system": "http://terminology.hl7.org/CodeSystem/observation-category",
                "code": "laboratory"
              }
            ]
          }
        ],
        "code": {
          "coding": [
            {
              "code": "2093-3",
              "system": "http://loinc.org",
              "display": "Cholesterol [Mass/volume] in Serum or Plasma"
            }
          ],
          "text": "Cholesterol [Mass/volume] in Serum or Plasma"
        },
        "valueQuantity": {
          "system": "http://unitsofmeasure.org",
          "value": 165.4,
          "unit": "mg/dL",
          "code": "mg/dL"
        },
        "referenceRange": [
          {
            "low": {
              "value": 125,
              "code": "mg/dL",
              "system": "http://unitsofmeasure.org"
            }
          },
          {
            "high": {
              "value": 200,
              "code": "mg/dL",
              "system": "http://unitsofmeasure.org"
            }
          }
        ],
        "text": {
          "status": "generated",
          "div": "<div xmlns=\"http://www.w3.org/1999/xhtml\"><table class=\"hl7__eu__lab__report\"><tr><th>Test</th><th>24-Mar-2022</th><th>Reference&#xA0;Range</th><th>Unit</th></tr><tr><td>Cholesterol [Mass/volume] in Serum or Plasma</td><td>165.4</td><td>125 - 200</td><td></td><td>mg/dL</td></tr></table></div>"
        },
        "status": "final",
        "subject": {
          "reference": "urn:uuid:6fea3730-d062-4035-8f80-3d9de66a53f8",
          "display": "Marthe Gallet"
        },
        "effectiveDateTime": "2022-03-24T19:05:43Z",
        "specimen": {
          "reference": "urn:uuid:7c5b536c-f633-4856-b331-12d584c1bca9"
        }
      }
    },
    {
      "fullUrl": "urn:uuid:e16771da-7504-4877-a589-6fc371534731",
      "resource": {
        "resourceType": "Observation",
        "id": "e16771da-7504-4877-a589-6fc371534731",
        "meta": {
          "profile": [
            "http://hl7.eu/fhir/laboratory/StructureDefinition/Observation-resultslab-eu-lab"
          ]
        },
        "performer": [
          {
            "display": "The Central European Lab"
          }
        ],
        "category": [
          {
            "coding": [
              {
                "system": "http://terminology.hl7.org/CodeSystem/observation-category",
                "code": "laboratory"
              }
            ]
          }
        ],
        "code": {
          "coding": [
            {
              "code": "2571-8",
              "system": "http://loinc.org",
              "display": "Triglyceride [Mass/volume] in Serum or Plasma"
            }
          ],
          "text": "Triglyceride [Mass/volume] in Serum or Plasma"
        },
        "valueQuantity": {
          "system": "http://unitsofmeasure.org",
          "value": 197.6,
          "unit": "mg/dL",
          "code": "mg/dL"
        },
        "referenceRange": [
          {
            "low": {
              "value": 10,
              "code": "mg/dL",
              "system": "http://unitsofmeasure.org"
            }
          },
          {
            "high": {
              "value": 175,
              "code": "mg/dL",
              "system": "http://unitsofmeasure.org"
            }
          }
        ],
        "interpretation": [
          {
            "coding": [
              {
                "code": "H",
                "system": "http://terminology.hl7.org/CodeSystem/v3-ObservationInterpretation",
                "display": "High"
              }
            ]
          }
        ],
        "text": {
          "status": "generated",
          "div": "<div xmlns=\"http://www.w3.org/1999/xhtml\"><table class=\"hl7__eu__lab__report\"><tr><th>Test</th><th>24-Mar-2022</th><th>Reference&#xA0;Range</th><th>Unit</th></tr><tr><td>Triglyceride [Mass/volume] in Serum or Plasma</td><td>197.6</td><td>10 - 175</td><td>H</td><td>mg/dL</td></tr></table></div>"
        },
        "status": "final",
        "subject": {
          "reference": "urn:uuid:6fea3730-d062-4035-8f80-3d9de66a53f8",
          "display": "Marthe Gallet"
        },
        "effectiveDateTime": "2022-03-24T19:05:43Z",
        "specimen": {
          "reference": "urn:uuid:7c5b536c-f633-4856-b331-12d584c1bca9"
        }
      }
    },
    {
      "fullUrl": "urn:uuid:06ac8599-ad16-48bb-ae28-61e0c2a924b6",
      "resource": {
        "resourceType": "Observation",
        "id": "06ac8599-ad16-48bb-ae28-61e0c2a924b6",
        "meta": {
          "profile": [
            "http://hl7.eu/fhir/laboratory/StructureDefinition/Observation-resultslab-eu-lab"
          ]
        },
        "performer": [
          {
            "display": "The Central European Lab"
          }
        ],
        "category": [
          {
            "coding": [
              {
                "system": "http://terminology.hl7.org/CodeSystem/observation-category",
                "code": "laboratory"
              }
            ]
          }
        ],
        "code": {
          "coding": [
            {
              "code": "18262-6",
              "system": "http://loinc.org",
              "display": "Cholesterol in LDL [Mass/volume] in Serum or Plasma by Direct assay"
            }
          ],
          "text": "Cholesterol in LDL [Mass/volume] in Serum or Plasma by Direct assay"
        },
        "valueQuantity": {
          "system": "http://unitsofmeasure.org",
          "value": 99.7,
          "unit": "mg/dL",
          "code": "mg/dL"
        },
        "referenceRange": [
          {
            "low": {
              "value": 0,
              "code": "mg/dL",
              "system": "http://unitsofmeasure.org"
            }
          },
          {
            "high": {
              "value": 130,
              "code": "mg/dL",
              "system": "http://unitsofmeasure.org"
            }
          }
        ],
        "text": {
          "status": "generated",
          "div": "<div xmlns=\"http://www.w3.org/1999/xhtml\"><table class=\"hl7__eu__lab__report\"><tr><th>Test</th><th>24-Mar-2022</th><th>Reference&#xA0;Range</th><th>Unit</th></tr><tr><td>Cholesterol in LDL [Mass/volume] in Serum or Plasma by Direct assay</td><td>99.7</td><td>0 - 130</td><td></td><td>mg/dL</td></tr></table></div>"
        },
        "status": "final",
        "subject": {
          "reference": "urn:uuid:6fea3730-d062-4035-8f80-3d9de66a53f8",
          "display": "Marthe Gallet"
        },
        "effectiveDateTime": "2022-03-24T19:05:43Z",
        "specimen": {
          "reference": "urn:uuid:7c5b536c-f633-4856-b331-12d584c1bca9"
        }
      }
    },
    {
      "fullUrl": "urn:uuid:e9fd7ec5-1faf-422a-8a0c-4a69ed10488f",
      "resource": {
        "resourceType": "Observation",
        "id": "e9fd7ec5-1faf-422a-8a0c-4a69ed10488f",
        "meta": {
          "profile": [
            "http://hl7.eu/fhir/laboratory/StructureDefinition/Observation-resultslab-eu-lab"
          ]
        },
        "performer": [
          {
            "display": "The Central European Lab"
          }
        ],
        "category": [
          {
            "coding": [
              {
                "system": "http://terminology.hl7.org/CodeSystem/observation-category",
                "code": "laboratory"
              }
            ]
          }
        ],
        "code": {
          "coding": [
            {
              "code": "2085-9",
              "system": "http://loinc.org",
              "display": "Cholesterol in HDL [Mass/volume] in Serum or Plasma"
            }
          ],
          "text": "Cholesterol in HDL [Mass/volume] in Serum or Plasma"
        },
        "valueQuantity": {
          "system": "http://unitsofmeasure.org",
          "value": 49.5,
          "unit": "mg/dL",
          "code": "mg/dL"
        },
        "referenceRange": [
          {
            "low": {
              "value": 40,
              "code": "mg/dL",
              "system": "http://unitsofmeasure.org"
            }
          },
          {
            "high": {
              "value": 100,
              "code": "mg/dL",
              "system": "http://unitsofmeasure.org"
            }
          }
        ],
        "text": {
          "status": "generated",
          "div": "<div xmlns=\"http://www.w3.org/1999/xhtml\"><table class=\"hl7__eu__lab__report\"><tr><th>Test</th><th>24-Mar-2022</th><th>Reference&#xA0;Range</th><th>Unit</th></tr><tr><td>Cholesterol in HDL [Mass/volume] in Serum or Plasma</td><td>49.5</td><td>40 - 100</td><td></td><td>mg/dL</td></tr></table></div>"
        },
        "status": "final",
        "subject": {
          "reference": "urn:uuid:6fea3730-d062-4035-8f80-3d9de66a53f8",
          "display": "Marthe Gallet"
        },
        "effectiveDateTime": "2022-03-24T19:05:43Z",
        "specimen": {
          "reference": "urn:uuid:7c5b536c-f633-4856-b331-12d584c1bca9"
        }
      }
    },
    {
      "fullUrl": "urn:uuid:e2e18ea7-e66e-4965-9c35-4597094d5fb7",
      "resource": {
        "resourceType": "Device",
        "id": "e2e18ea7-e66e-4965-9c35-4597094d5fb7",
        "deviceName": [
          {
            "name": "SYNDERAI Synthetic Generator",
            "type": "manufacturer-name"
          }
        ],
        "version": [
          {
            "value": "5.0"
          }
        ],
        "text": {
          "status": "generated",
          "div": "<div xmlns=\"http://www.w3.org/1999/xhtml\">SYNDERAI Synthetic Generator v5.0</div>"
        },
        "status": "active\"",
        "distinctIdentifier": "synderai-generator-50",
        "manufacturer": "SYNDERAI Project"
      }
    },
    {
      "fullUrl": "urn:uuid:522e031e-44d4-4b3f-b95e-8019c48e7476",
      "resource": {
        "resourceType": "Provenance",
        "id": "522e031e-44d4-4b3f-b95e-8019c48e7476",
        "target": [
          {
            "reference": "Patient/6fea3730-d062-4035-8f80-3d9de66a53f8"
          },
          {
            "reference": "Bundle/d5a20425-baaa-47d1-b4b3-a76a12bf9f69"
          },
          {
            "reference": "Composition/f56818d7-fe31-4c50-a3fe-4e176edcb754"
          },
          {
            "reference": "PractitionerRole/c9eacd3c-5939-4b99-ab91-f61d1c41fc7c"
          },
          {
            "reference": "Practitioner/d25c9934-3dc4-4f1f-9a24-7c5aa68c1601"
          },
          {
            "reference": "PractitionerRole/00c504e6-52f2-4aa8-9d2f-3310d3528cd1"
          },
          {
            "reference": "Organization/1f736477-b657-4e01-9e88-3d9f06c02954"
          }
        ],
        "activity": {
          "text": "Synthetic Example Data Generation"
        },
        "policy": [
          "https://synderai.net/synderai-synthetic-data-policy"
        ],
        "agent": [
          {
            "type": {
              "text": "author"
            },
            "who": {
              "reference": "Device/e2e18ea7-e66e-4965-9c35-4597094d5fb7"
            }
          }
        ],
        "reason": [
          {
            "text": "Interoperability Testing and Training (non-clinical use)"
          }
        ],
        "text": {
          "status": "generated",
          "div": "<div xmlns=\"http://www.w3.org/1999/xhtml\">Provenance for SYNDERAI Synthetic Example Data Resource</div>"
        },
        "recorded": "2022-03-24T20:05:43Z"
      }
    },
    {
      "fullUrl": "urn:uuid:c9eacd3c-5939-4b99-ab91-f61d1c41fc7c",
      "resource": {
        "resourceType": "PractitionerRole",
        "id": "c9eacd3c-5939-4b99-ab91-f61d1c41fc7c",
        "meta": {
          "profile": [
            "http://hl7.eu/fhir/base/StructureDefinition/practitionerRole-eu"
          ]
        },
        "text": {
          "status": "generated",
          "div": "<div xmlns=\"http://www.w3.org/1999/xhtml\">Laboratory Role Id: c9eacd3c-5939-4b99-ab91-f61d1c41fc7c</div>"
        },
        "practitioner": {
          "reference": "urn:uuid:d25c9934-3dc4-4f1f-9a24-7c5aa68c1601"
        }
      }
    },
    {
      "fullUrl": "urn:uuid:d25c9934-3dc4-4f1f-9a24-7c5aa68c1601",
      "resource": {
        "resourceType": "Practitioner",
        "id": "d25c9934-3dc4-4f1f-9a24-7c5aa68c1601",
        "meta": {
          "profile": [
            "http://hl7.eu/fhir/base/StructureDefinition/practitioner-eu"
          ]
        },
        "identifier": [
          {
            "assigner": {
              "display": "HL7 Europe"
            },
            "system": "urn:oid:2.16.840.1.113883.2.51.999",
            "value": "82ede4d8-6fdb-4a90-a3cc-2a9fddac9dbb"
          }
        ],
        "name": [
          {
            "prefix": [
              "dr"
            ],
            "given": [
              "Ex"
            ],
            "family": "Ample"
          }
        ],
        "address": [
          {
            "line": [
              "Laboratoire Central Europenne",
              "Boulevard du Jardin Botanique 32"
            ],
            "postalCode": "1000",
            "city": "Brussels",
            "country": "Belgium"
          }
        ],
        "text": {
          "status": "generated",
          "div": "<div xmlns=\"http://www.w3.org/1999/xhtml\">Laboratory: Laboratoire Central Europenne, 1000 Brussels, Belgium</div>"
        }
      }
    }
  ],
  "type": "document",
  "timestamp": "2022-03-24T20:05:43Z"
}
