{
  "resourceType": "Bundle",
  "id": "e7e4ff22-c065-444a-96bf-5b01886b122c",
  "meta": {
    "profile": [
      "http://hl7.eu/fhir/laboratory/StructureDefinition/Bundle-eu-lab"
    ]
  },
  "identifier": {
    "assigner": {
      "display": "HL7 Europe"
    },
    "system": "urn:oid:2.16.840.1.113883.2.51.999",
    "value": "7cf6d007-a005-484c-b5f7-63790453f8b9"
  },
  "entry": [
    {
      "fullUrl": "urn:uuid:eac98934-fcd3-4ed8-b9d0-35c6224900c6",
      "resource": {
        "resourceType": "Composition",
        "id": "eac98934-fcd3-4ed8-b9d0-35c6224900c6",
        "meta": {
          "profile": [
            "http://hl7.eu/fhir/laboratory/StructureDefinition/Composition-eu-lab"
          ]
        },
        "identifier": {
          "assigner": {
            "display": "HL7 Europe"
          },
          "system": "urn:oid:2.16.840.1.113883.2.51.999",
          "value": "e095234a-460b-4601-9fd3-2bfa16e2f361"
        },
        "author": [
          {
            "reference": "urn:uuid:d3e52780-d007-4125-97fb-0a1de6c045a0"
          }
        ],
        "category": [
          {
            "coding": [
              {
                "code": "26436-6",
                "system": "http://loinc.org",
                "display": "Laboratory studies (set)"
              }
            ]
          }
        ],
        "type": {
          "coding": [
            {
              "code": "11502-2",
              "system": "http://loinc.org",
              "display": "Laboratory report"
            }
          ],
          "text": "Laboratory Report"
        },
        "section": [
          {
            "code": {
              "coding": [
                {
                  "code": "26436-6",
                  "system": "http://loinc.org",
                  "display": "Laboratory studies (set)"
                }
              ],
              "text": "Laboratory studies"
            },
            "section": [
              {
                "code": {
                  "coding": [
                    {
                      "code": "$18719-5",
                      "system": "http://loinc.org",
                      "display": "Chemistry studies (set)"
                    }
                  ],
                  "text": "Chemistry"
                },
                "entry": [
                  {
                    "reference": "urn:uuid:cc20d87d-6033-4d8c-b2d7-d0002fa4339d"
                  },
                  {
                    "reference": "urn:uuid:f618139a-8230-48b6-afd3-c9b227eb8c70"
                  },
                  {
                    "reference": "urn:uuid:ee91bd0c-f350-4a2c-bd00-efaa9d86b282"
                  },
                  {
                    "reference": "urn:uuid:c9c5fc90-c02b-4754-8ec9-27ee6a7bf2a7"
                  },
                  {
                    "reference": "urn:uuid:9f2db6ac-3e43-4f75-9ad9-7717144ed8aa"
                  },
                  {
                    "reference": "urn:uuid:391663a8-3b83-4e45-9d06-f0d64fbbd6e6"
                  },
                  {
                    "reference": "urn:uuid:f1061b93-5e04-44fc-9c1b-48cd41b85079"
                  },
                  {
                    "reference": "urn:uuid:343cd42d-bd12-4d98-8c98-4de7ccbab64b"
                  },
                  {
                    "reference": "urn:uuid:d6b1723b-426f-4396-8b06-1c2c9a71cb95"
                  },
                  {
                    "reference": "urn:uuid:fed47c25-d18c-4769-bf8a-2e929ed87bc5"
                  }
                ],
                "text": {
                  "status": "generated",
                  "div": "<div xmlns=\"http://www.w3.org/1999/xhtml\"><h3>Chemistry</h3><table class=\"hl7__eu__lab__report\"><thead><tr><th>Test</th><th>17-JUN-2021</th><th>Reference&#xA0;Range</th><th>Unit</th></tr></thead><tbody><tr><td>Glucose [Mass/volume] in Serum or Plasma</td><td><strong>65.1 L</strong></td><td>70 - 140</td><td>mg/dL</td></tr><tr><td>Urea nitrogen [Mass/volume] in Serum or Plasma</td><td>16.6</td><td>7 - 25</td><td>mg/dL</td></tr><tr><td>Creatinine [Mass/volume] in Serum or Plasma</td><td><strong>2.0 H</strong></td><td>0.9 - 1.3</td><td>mg/dL</td></tr><tr><td>Calcium [Mass/volume] in Serum or Plasma</td><td>9.4</td><td>8.5 - 10.5</td><td>mg/dL</td></tr><tr><td>Sodium [Moles/volume] in Serum or Plasma</td><td>138.4</td><td>135 - 145</td><td>mmol/L</td></tr><tr><td>Potassium [Moles/volume] in Serum or Plasma</td><td>4.1</td><td>3.5 - 5.3</td><td>mmol/L</td></tr><tr><td>Chloride [Moles/volume] in Serum or Plasma</td><td>105.2</td><td>98 - 107</td><td>mmol/L</td></tr><tr><td>Carbon dioxide, total [Moles/volume] in Serum or Plasma</td><td><strong>20.9 L</strong></td><td>22 - 29</td><td>mmol/L</td></tr><tr><td>Ketones [Presence] in Urine by Test strip</td><td>Urine ketone test = +</td><td></td><td></td></tr><tr><td>Hemoglobin A1c/Hemoglobin.total in Blood</td><td><strong>2.9 L</strong></td><td>4.5 - 6.4</td><td>%</td></tr></tbody></table></div>"
                },
                "title": "Chemistry"
              },
              {
                "code": {
                  "coding": [
                    {
                      "code": "$18729-4",
                      "system": "http://loinc.org",
                      "display": "Urinalysis studies (set)"
                    }
                  ],
                  "text": "Urinalysis"
                },
                "entry": [
                  {
                    "reference": "urn:uuid:038a5958-5a33-4210-96bb-506866367602"
                  },
                  {
                    "reference": "urn:uuid:76b0936b-6f47-4e71-a89e-bd92737db443"
                  },
                  {
                    "reference": "urn:uuid:207cfdc2-b6fb-4dcf-8db9-da2b653c2f3a"
                  },
                  {
                    "reference": "urn:uuid:33e1a864-6c9e-434b-bd66-3c116119c537"
                  },
                  {
                    "reference": "urn:uuid:b92f0bd6-4be3-462f-82da-f199bb3ab103"
                  },
                  {
                    "reference": "urn:uuid:b314f1d5-ca42-4393-9fcd-3c0ff9b507ff"
                  },
                  {
                    "reference": "urn:uuid:da589584-5ab4-46ab-aaea-b93c210dc66c"
                  },
                  {
                    "reference": "urn:uuid:af4a67b0-ebe6-42aa-9956-1c4c70c6f927"
                  },
                  {
                    "reference": "urn:uuid:ba2609c1-9a5b-47c7-b602-9d32af5fd1ac"
                  },
                  {
                    "reference": "urn:uuid:7c36d7ba-e205-4dea-88e4-f965c3359e4d"
                  },
                  {
                    "reference": "urn:uuid:acd05c6c-89f5-4b98-a570-aaad068dea4a"
                  },
                  {
                    "reference": "urn:uuid:96ce2bc4-82df-4f21-b84a-f77cb6cf3e65"
                  }
                ],
                "text": {
                  "status": "generated",
                  "div": "<div xmlns=\"http://www.w3.org/1999/xhtml\"><h3>Urinalysis</h3><table class=\"hl7__eu__lab__report\"><thead><tr><th>Test</th><th>17-JUN-2021</th><th>Reference&#xA0;Range</th><th>Unit</th></tr></thead><tbody><tr><td>Glucose [Mass/volume] in Urine by Test strip</td><td><strong>0.9 H</strong></td><td>0.8 - 0</td><td>mg/dL</td></tr><tr><td>Glucose [Presence] in Urine by Test strip</td><td>++</td><td></td><td></td></tr><tr><td>Bilirubin.total [Mass/volume] in Urine by Test strip</td><td>0.6</td><td>0.2 - 1.5</td><td>mg/dL</td></tr><tr><td>Bilirubin.total [Presence] in Urine by Test strip</td><td>Finding of bilirubin in urine</td><td></td><td></td></tr><tr><td>Ketones [Mass/volume] in Urine by Test strip</td><td><strong>14.8 H</strong></td><td>0 - 4</td><td>mg/dL</td></tr><tr><td>Specific gravity of Urine by Test strip</td><td><strong>1.0 L</strong></td><td>1.01 - 1.03</td><td>{nominal}</td></tr><tr><td>pH of Urine by Test strip</td><td>6.4</td><td>4.5 - 7.5</td><td>pH</td></tr><tr><td>Protein [Mass/volume] in Urine by Test strip</td><td><strong>338.4 H</strong></td><td>0 - 150</td><td>mg/dL</td></tr><tr><td>Protein [Presence] in Urine by Test strip</td><td>Urine protein test = ++</td><td></td><td></td></tr><tr><td>Nitrite [Presence] in Urine by Test strip</td><td>Urine nitrite negative</td><td></td><td></td></tr><tr><td>Hemoglobin [Presence] in Urine by Test strip</td><td>Urine blood test = negative</td><td></td><td></td></tr><tr><td>Leukocyte esterase [Presence] in Urine by Test strip</td><td>Urine leukocyte test negative</td><td></td><td></td></tr></tbody></table></div>"
                },
                "title": "Urinalysis"
              },
              {
                "code": {
                  "coding": [
                    {
                      "code": "$LP7846-1",
                      "system": "http://loinc.org",
                      "display": "Specimen information"
                    }
                  ],
                  "text": "Specimen information"
                },
                "entry": [
                  {
                    "reference": "urn:uuid:51d3b118-1a6a-42c9-aad2-820bcbe5340e"
                  },
                  {
                    "reference": "urn:uuid:25a37fc0-7008-4713-be39-682975623779"
                  },
                  {
                    "reference": "urn:uuid:0e4fd45e-7020-4b57-bc4f-b3ec4acda79c"
                  },
                  {
                    "reference": "urn:uuid:7595ad9c-f820-460b-aba2-51fc043c8774"
                  }
                ],
                "text": {
                  "status": "generated",
                  "div": "<div xmlns=\"http://www.w3.org/1999/xhtml\"><h3>Specimen information</h3><table class=\"hl7__eu__lab__report\"><thead><tr><th>Test</th><th>17-JUN-2021</th><th>Specimen</th><th></th></tr></thead><tbody><tr><td>Appearance of Urine</td><td>Cloudy urine</td><td>Urine</td><td></td></tr><tr><td>Odor of Urine</td><td>Urine smell ammoniacal</td><td>Urine</td><td></td></tr><tr><td>Clarity of Urine</td><td>Translucent</td><td>Urine</td><td></td></tr><tr><td>Color of Urine</td><td>Brown color</td><td>Urine</td><td></td></tr></tbody></table></div>"
                },
                "title": "Specimen information"
              }
            ],
            "title": "Laboratory Report"
          },
          {
            "text": {
              "status": "generated",
              "div": "<div xmlns=\"http://www.w3.org/1999/xhtml\"><h3>Annotation</h3><table class=\"hl7__eu__lab__report\"><tr><th>Conclusion and Recommendations based on this report and previous findings known to us</th></tr><tr><td>The patient shows hypoglycemia with low HbA1c, elevated creatinine, metabolic acidosis (low CO₂), and significant proteinuria, glycosuria, and ketonuria. Urine is cloudy, brown, and has low specific gravity. These findings suggest possible advanced renal dysfunction, poor glycemic control (possibly malnutrition or insulin overuse), and possible dehydration or catabolic state. Urinary findings may also indicate underlying urinary tract pathology. Clinical correlation and further evaluation are recommended.</td></tr></table></div>"
            },
            "code": {
              "coding": [
                {
                  "system": "http://loinc.org",
                  "code": "48767-8",
                  "display": "Annotation comment"
                }
              ]
            },
            "title": "Annotation comment"
          }
        ],
        "status": "final",
        "subject": {
          "reference": "urn:uuid:75c9df1c-50d3-4886-9ece-688ecd34f282",
          "display": "Pelayo Casal"
        },
        "date": "2021-06-17T07:38:59Z",
        "title": "Laboratory Report",
        "confidentiality": "N"
      }
    },
    {
      "fullUrl": "urn:uuid:68142e80-5a34-4e7d-bc7f-3a811ef59acb",
      "resource": {
        "resourceType": "DiagnosticReport",
        "id": "68142e80-5a34-4e7d-bc7f-3a811ef59acb",
        "meta": {
          "profile": [
            "http://hl7.eu/fhir/laboratory/StructureDefinition/DiagnosticReport-eu-lab"
          ]
        },
        "identifier": [
          {
            "assigner": {
              "display": "HL7 Europe"
            },
            "system": "urn:oid:2.16.840.1.113883.2.51.999",
            "value": "3d969312-604e-49d2-b087-72563ba7c94b"
          }
        ],
        "extension": [
          {
            "url": "http://hl7.org/fhir/5.0/StructureDefinition/extension-DiagnosticReport.composition",
            "valueReference": {
              "reference": "urn:uuid:e095234a-460b-4601-9fd3-2bfa16e2f361"
            }
          }
        ],
        "category": [
          {
            "coding": [
              {
                "code": "26436-6",
                "system": "http://loinc.org",
                "display": "Laboratory studies (set)"
              }
            ]
          }
        ],
        "specimen": [
          {
            "reference": "urn:uuid:768a6214-e1b8-4554-a1ca-a7a31324e21f"
          },
          {
            "reference": "urn:uuid:d9f22f1a-526f-4fe0-89d0-8f5a4a739da3"
          },
          {
            "reference": "urn:uuid:f32d38f9-1937-4954-9925-babc307cd2f6"
          }
        ],
        "result": [
          {
            "reference": "urn:uuid:cc20d87d-6033-4d8c-b2d7-d0002fa4339d"
          },
          {
            "reference": "urn:uuid:f618139a-8230-48b6-afd3-c9b227eb8c70"
          },
          {
            "reference": "urn:uuid:ee91bd0c-f350-4a2c-bd00-efaa9d86b282"
          },
          {
            "reference": "urn:uuid:c9c5fc90-c02b-4754-8ec9-27ee6a7bf2a7"
          },
          {
            "reference": "urn:uuid:9f2db6ac-3e43-4f75-9ad9-7717144ed8aa"
          },
          {
            "reference": "urn:uuid:391663a8-3b83-4e45-9d06-f0d64fbbd6e6"
          },
          {
            "reference": "urn:uuid:f1061b93-5e04-44fc-9c1b-48cd41b85079"
          },
          {
            "reference": "urn:uuid:343cd42d-bd12-4d98-8c98-4de7ccbab64b"
          },
          {
            "reference": "urn:uuid:51d3b118-1a6a-42c9-aad2-820bcbe5340e"
          },
          {
            "reference": "urn:uuid:25a37fc0-7008-4713-be39-682975623779"
          },
          {
            "reference": "urn:uuid:0e4fd45e-7020-4b57-bc4f-b3ec4acda79c"
          },
          {
            "reference": "urn:uuid:7595ad9c-f820-460b-aba2-51fc043c8774"
          },
          {
            "reference": "urn:uuid:038a5958-5a33-4210-96bb-506866367602"
          },
          {
            "reference": "urn:uuid:76b0936b-6f47-4e71-a89e-bd92737db443"
          },
          {
            "reference": "urn:uuid:207cfdc2-b6fb-4dcf-8db9-da2b653c2f3a"
          },
          {
            "reference": "urn:uuid:33e1a864-6c9e-434b-bd66-3c116119c537"
          },
          {
            "reference": "urn:uuid:b92f0bd6-4be3-462f-82da-f199bb3ab103"
          },
          {
            "reference": "urn:uuid:d6b1723b-426f-4396-8b06-1c2c9a71cb95"
          },
          {
            "reference": "urn:uuid:b314f1d5-ca42-4393-9fcd-3c0ff9b507ff"
          },
          {
            "reference": "urn:uuid:da589584-5ab4-46ab-aaea-b93c210dc66c"
          },
          {
            "reference": "urn:uuid:af4a67b0-ebe6-42aa-9956-1c4c70c6f927"
          },
          {
            "reference": "urn:uuid:ba2609c1-9a5b-47c7-b602-9d32af5fd1ac"
          },
          {
            "reference": "urn:uuid:7c36d7ba-e205-4dea-88e4-f965c3359e4d"
          },
          {
            "reference": "urn:uuid:acd05c6c-89f5-4b98-a570-aaad068dea4a"
          },
          {
            "reference": "urn:uuid:96ce2bc4-82df-4f21-b84a-f77cb6cf3e65"
          },
          {
            "reference": "urn:uuid:fed47c25-d18c-4769-bf8a-2e929ed87bc5"
          }
        ],
        "status": "registered",
        "code": {
          "coding": [
            {
              "code": "11502-2",
              "system": "http://loinc.org",
              "display": "Laboratory report"
            }
          ]
        },
        "subject": {
          "reference": "urn:uuid:75c9df1c-50d3-4886-9ece-688ecd34f282",
          "display": "Pelayo Casal"
        }
      }
    },
    {
      "fullUrl": "urn:uuid:75c9df1c-50d3-4886-9ece-688ecd34f282",
      "resource": {
        "resourceType": "Patient",
        "id": "75c9df1c-50d3-4886-9ece-688ecd34f282",
        "meta": {
          "security": [
            {
              "system": "http://terminology.hl7.org/CodeSystem/v3-ActReason",
              "code": "HTEST"
            },
            {
              "system": "http://terminology.hl7.org/CodeSystem/v3-ActReason",
              "code": "TRAIN"
            }
          ],
          "tag": [
            {
              "system": "https://synderai.net/fhir/CodeSystem/tags",
              "code": "synthetic",
              "display": "SYNDERAI Synthetic data"
            }
          ],
          "profile": [
            "http://hl7.eu/fhir/base/StructureDefinition/patient-eu-core"
          ]
        },
        "identifier": [
          {
            "type": {
              "coding": [
                {
                  "code": "PT",
                  "system": "http://terminology.hl7.org/CodeSystem/v2-0203"
                }
              ]
            },
            "system": "http://ec.europa.eu/identifier/eci",
            "value": "7707-510028-7"
          },
          {
            "type": {
              "coding": [
                {
                  "code": "MR",
                  "system": "http://terminology.hl7.org/CodeSystem/v2-0203"
                }
              ]
            },
            "system": "http://local.setting.eu/identifier",
            "value": "d88e82c6-df33-82d2-8538-f8b57da06491"
          }
        ],
        "name": [
          {
            "family": "Casal"
          },
          {
            "given": [
              "Pelayo"
            ]
          },
          {
            "text": "Pelayo Casal"
          }
        ],
        "address": [
          {
            "line": [
              "Callejón de Ignacio Pedrosa 67 Apt. 68 "
            ],
            "use": "home",
            "type": "physical",
            "postalCode": "35001",
            "city": "Las Palmas",
            "country": "Spain"
          }
        ],
        "telecom": [
          {
            "system": "phone",
            "value": "+34 875724898"
          }
        ],
        "extension": [
          {
            "url": "http://hl7.org/fhir/StructureDefinition/patient-nationality",
            "valueCodeableConcept": {
              "coding": [
                {
                  "code": "ES",
                  "system": "http://hl7.org/fhir/ValueSet/country"
                }
              ]
            }
          }
        ],
        "text": {
          "status": "generated",
          "div": "<div xmlns=\"http://www.w3.org/1999/xhtml\"><table class=\"hl7__ips\"><tr><td>Pelayo Casal</td><td>male</td><td>19-Apr-1940</td></tr></table></div>"
        },
        "gender": "male",
        "birthDate": "1940-04-19"
      }
    },
    {
      "fullUrl": "urn:uuid:010b1c13-910c-4d72-a928-fa4dd4dfdf62",
      "resource": {
        "resourceType": "ServiceRequest",
        "id": "010b1c13-910c-4d72-a928-fa4dd4dfdf62",
        "meta": {
          "profile": [
            "http://hl7.eu/fhir/laboratory/StructureDefinition/ServiceRequest-eu-lab"
          ]
        },
        "identifier": [
          {
            "system": "http://example.org",
            "value": "a5b3055e-af02-4176-9321-1a5235c784f9"
          }
        ],
        "specimen": [
          {
            "reference": "urn:uuid:768a6214-e1b8-4554-a1ca-a7a31324e21f"
          },
          {
            "reference": "urn:uuid:d9f22f1a-526f-4fe0-89d0-8f5a4a739da3"
          },
          {
            "reference": "urn:uuid:f32d38f9-1937-4954-9925-babc307cd2f6"
          }
        ],
        "reasonCode": [
          {
            "coding": [
              {
                "code": "431856006",
                "system": "http://snomed.info/sct",
                "display": "Chronic kidney disease stage 2"
              }
            ]
          },
          {
            "coding": [
              {
                "code": "90781000119102",
                "system": "http://snomed.info/sct",
                "display": "Microalbuminuria due to type 2 diabetes mellitus"
              }
            ]
          },
          {
            "coding": [
              {
                "code": "127013003",
                "system": "http://snomed.info/sct",
                "display": "Disorder of kidney due to diabetes mellitus"
              }
            ]
          },
          {
            "coding": [
              {
                "code": "431855005",
                "system": "http://snomed.info/sct",
                "display": "Chronic kidney disease stage 1"
              }
            ]
          },
          {
            "coding": [
              {
                "code": "64859006",
                "system": "http://snomed.info/sct",
                "display": "Osteoporosis"
              }
            ]
          },
          {
            "coding": [
              {
                "code": "414545008",
                "system": "http://snomed.info/sct",
                "display": "Ischemic heart disease"
              }
            ]
          },
          {
            "coding": [
              {
                "code": "237602007",
                "system": "http://snomed.info/sct",
                "display": "Metabolic syndrome X"
              }
            ]
          },
          {
            "coding": [
              {
                "code": "59621000",
                "system": "http://snomed.info/sct",
                "display": "Essential hypertension"
              }
            ]
          },
          {
            "coding": [
              {
                "code": "271737000",
                "system": "http://snomed.info/sct",
                "display": "Anemia"
              }
            ]
          },
          {
            "coding": [
              {
                "code": "15777000",
                "system": "http://snomed.info/sct",
                "display": "Prediabetes"
              }
            ]
          }
        ],
        "status": "active",
        "intent": "order",
        "code": {
          "coding": [
            {
              "code": "108252007",
              "system": "http://snomed.info/sct",
              "display": "Laboratory procedure"
            }
          ]
        },
        "subject": {
          "reference": "urn:uuid:75c9df1c-50d3-4886-9ece-688ecd34f282",
          "display": "Pelayo Casal"
        },
        "requester": {
          "reference": "urn:uuid:3ff499d2-c6d3-4879-8fbb-95b14ed65ff1"
        }
      }
    },
    {
      "fullUrl": "urn:uuid:3ff499d2-c6d3-4879-8fbb-95b14ed65ff1",
      "resource": {
        "resourceType": "PractitionerRole",
        "id": "3ff499d2-c6d3-4879-8fbb-95b14ed65ff1",
        "meta": {
          "profile": [
            "http://hl7.eu/fhir/base/StructureDefinition/practitionerRole-eu"
          ]
        },
        "text": {
          "status": "generated",
          "div": "<div xmlns=\"http://www.w3.org/1999/xhtml\">Provider Role Id: 3ff499d2-c6d3-4879-8fbb-95b14ed65ff1</div>"
        },
        "organization": {
          "reference": "urn:uuid:755e3605-4d76-4d99-9bda-f088a088f57f"
        }
      }
    },
    {
      "fullUrl": "urn:uuid:755e3605-4d76-4d99-9bda-f088a088f57f",
      "resource": {
        "resourceType": "Organization",
        "id": "755e3605-4d76-4d99-9bda-f088a088f57f",
        "meta": {
          "profile": [
            "http://hl7.eu/fhir/base/StructureDefinition/organization-eu"
          ]
        },
        "identifier": [
          {
            "assigner": {
              "display": "HL7 Europe"
            },
            "system": "urn:oid:2.16.840.1.113883.2.51.999",
            "value": "86e46de2-07e0-4b26-9d8b-f4f1051c8a28"
          }
        ],
        "address": [
          {
            "country": "Spain"
          }
        ],
        "text": {
          "status": "generated",
          "div": "<div xmlns=\"http://www.w3.org/1999/xhtml\">Provider Organization: Centro de Salud de Guanarteme</div>"
        },
        "name": "Centro de Salud de Guanarteme"
      }
    },
    {
      "fullUrl": "urn:uuid:768a6214-e1b8-4554-a1ca-a7a31324e21f",
      "resource": {
        "resourceType": "Specimen",
        "id": "768a6214-e1b8-4554-a1ca-a7a31324e21f",
        "meta": {
          "profile": [
            "http://hl7.eu/fhir/laboratory/StructureDefinition/Specimen-eu-lab"
          ]
        },
        "collection": {
          "collectedDateTime": "2021-06-17"
        },
        "text": {
          "status": "generated",
          "div": "<div xmlns=\"http://www.w3.org/1999/xhtml\"><table class=\"hl7__eu__lab__report\"><tr><th>Specimen</th><th>Collection Date</th></tr><tr><td>Acellular blood (serum or plasma) specimen</td><td><span class=\"nb\">17-Jun-2021</span></td></tr></table></div>"
        },
        "type": {
          "coding": [
            {
              "code": "122592007",
              "system": "http://snomed.info/sct",
              "display": "Acellular blood (serum or plasma) specimen"
            }
          ]
        }
      }
    },
    {
      "fullUrl": "urn:uuid:d9f22f1a-526f-4fe0-89d0-8f5a4a739da3",
      "resource": {
        "resourceType": "Specimen",
        "id": "d9f22f1a-526f-4fe0-89d0-8f5a4a739da3",
        "meta": {
          "profile": [
            "http://hl7.eu/fhir/laboratory/StructureDefinition/Specimen-eu-lab"
          ]
        },
        "collection": {
          "collectedDateTime": "2021-06-17"
        },
        "text": {
          "status": "generated",
          "div": "<div xmlns=\"http://www.w3.org/1999/xhtml\"><table class=\"hl7__eu__lab__report\"><tr><th>Specimen</th><th>Collection Date</th></tr><tr><td>Urine specimen</td><td><span class=\"nb\">17-Jun-2021</span></td></tr></table></div>"
        },
        "type": {
          "coding": [
            {
              "code": "122575003",
              "system": "http://snomed.info/sct",
              "display": "Urine specimen"
            }
          ]
        }
      }
    },
    {
      "fullUrl": "urn:uuid:f32d38f9-1937-4954-9925-babc307cd2f6",
      "resource": {
        "resourceType": "Specimen",
        "id": "f32d38f9-1937-4954-9925-babc307cd2f6",
        "meta": {
          "profile": [
            "http://hl7.eu/fhir/laboratory/StructureDefinition/Specimen-eu-lab"
          ]
        },
        "collection": {
          "collectedDateTime": "2021-06-17"
        },
        "text": {
          "status": "generated",
          "div": "<div xmlns=\"http://www.w3.org/1999/xhtml\"><table class=\"hl7__eu__lab__report\"><tr><th>Specimen</th><th>Collection Date</th></tr><tr><td>Whole blood specimen (specimen)</td><td><span class=\"nb\">17-Jun-2021</span></td></tr></table></div>"
        },
        "type": {
          "coding": [
            {
              "code": "258580003",
              "system": "http://snomed.info/sct",
              "display": "Whole blood specimen (specimen)"
            }
          ]
        }
      }
    },
    {
      "fullUrl": "urn:uuid:cc20d87d-6033-4d8c-b2d7-d0002fa4339d",
      "resource": {
        "resourceType": "Observation",
        "id": "cc20d87d-6033-4d8c-b2d7-d0002fa4339d",
        "meta": {
          "profile": [
            "http://hl7.eu/fhir/laboratory/StructureDefinition/Observation-resultslab-eu-lab"
          ]
        },
        "performer": [
          {
            "display": "The Central European Lab"
          }
        ],
        "category": [
          {
            "coding": [
              {
                "system": "http://terminology.hl7.org/CodeSystem/observation-category",
                "code": "laboratory"
              }
            ]
          }
        ],
        "code": {
          "coding": [
            {
              "code": "2345-7",
              "system": "http://loinc.org",
              "display": "Glucose [Mass/volume] in Serum or Plasma"
            }
          ],
          "text": "Glucose [Mass/volume] in Serum or Plasma"
        },
        "valueQuantity": {
          "system": "http://unitsofmeasure.org",
          "value": 65.1,
          "unit": "mg/dL",
          "code": "mg/dL"
        },
        "referenceRange": [
          {
            "low": {
              "value": 70,
              "code": "mg/dL",
              "system": "http://unitsofmeasure.org"
            }
          },
          {
            "high": {
              "value": 140,
              "code": "mg/dL",
              "system": "http://unitsofmeasure.org"
            }
          }
        ],
        "interpretation": [
          {
            "coding": [
              {
                "code": "L",
                "system": "http://terminology.hl7.org/CodeSystem/v3-ObservationInterpretation",
                "display": "Low"
              }
            ]
          }
        ],
        "text": {
          "status": "generated",
          "div": "<div xmlns=\"http://www.w3.org/1999/xhtml\"><table class=\"hl7__eu__lab__report\"><tr><th>Test</th><th>17-Jun-2021</th><th>Reference&#xA0;Range</th><th>Unit</th></tr><tr><td>Glucose [Mass/volume] in Serum or Plasma</td><td>65.1</td><td>70 - 140</td><td>L</td><td>mg/dL</td></tr></table></div>"
        },
        "status": "final",
        "subject": {
          "reference": "urn:uuid:75c9df1c-50d3-4886-9ece-688ecd34f282",
          "display": "Pelayo Casal"
        },
        "effectiveDateTime": "2021-06-17T05:38:59Z",
        "specimen": {
          "reference": "urn:uuid:768a6214-e1b8-4554-a1ca-a7a31324e21f"
        }
      }
    },
    {
      "fullUrl": "urn:uuid:f618139a-8230-48b6-afd3-c9b227eb8c70",
      "resource": {
        "resourceType": "Observation",
        "id": "f618139a-8230-48b6-afd3-c9b227eb8c70",
        "meta": {
          "profile": [
            "http://hl7.eu/fhir/laboratory/StructureDefinition/Observation-resultslab-eu-lab"
          ]
        },
        "performer": [
          {
            "display": "The Central European Lab"
          }
        ],
        "category": [
          {
            "coding": [
              {
                "system": "http://terminology.hl7.org/CodeSystem/observation-category",
                "code": "laboratory"
              }
            ]
          }
        ],
        "code": {
          "coding": [
            {
              "code": "3094-0",
              "system": "http://loinc.org",
              "display": "Urea nitrogen [Mass/volume] in Serum or Plasma"
            }
          ],
          "text": "Urea nitrogen [Mass/volume] in Serum or Plasma"
        },
        "valueQuantity": {
          "system": "http://unitsofmeasure.org",
          "value": 16.6,
          "unit": "mg/dL",
          "code": "mg/dL"
        },
        "referenceRange": [
          {
            "low": {
              "value": 7,
              "code": "mg/dL",
              "system": "http://unitsofmeasure.org"
            }
          },
          {
            "high": {
              "value": 25,
              "code": "mg/dL",
              "system": "http://unitsofmeasure.org"
            }
          }
        ],
        "text": {
          "status": "generated",
          "div": "<div xmlns=\"http://www.w3.org/1999/xhtml\"><table class=\"hl7__eu__lab__report\"><tr><th>Test</th><th>17-Jun-2021</th><th>Reference&#xA0;Range</th><th>Unit</th></tr><tr><td>Urea nitrogen [Mass/volume] in Serum or Plasma</td><td>16.6</td><td>7 - 25</td><td></td><td>mg/dL</td></tr></table></div>"
        },
        "status": "final",
        "subject": {
          "reference": "urn:uuid:75c9df1c-50d3-4886-9ece-688ecd34f282",
          "display": "Pelayo Casal"
        },
        "effectiveDateTime": "2021-06-17T05:38:59Z",
        "specimen": {
          "reference": "urn:uuid:768a6214-e1b8-4554-a1ca-a7a31324e21f"
        }
      }
    },
    {
      "fullUrl": "urn:uuid:ee91bd0c-f350-4a2c-bd00-efaa9d86b282",
      "resource": {
        "resourceType": "Observation",
        "id": "ee91bd0c-f350-4a2c-bd00-efaa9d86b282",
        "meta": {
          "profile": [
            "http://hl7.eu/fhir/laboratory/StructureDefinition/Observation-resultslab-eu-lab"
          ]
        },
        "performer": [
          {
            "display": "The Central European Lab"
          }
        ],
        "category": [
          {
            "coding": [
              {
                "system": "http://terminology.hl7.org/CodeSystem/observation-category",
                "code": "laboratory"
              }
            ]
          }
        ],
        "code": {
          "coding": [
            {
              "code": "2160-0",
              "system": "http://loinc.org",
              "display": "Creatinine [Mass/volume] in Serum or Plasma"
            }
          ],
          "text": "Creatinine [Mass/volume] in Serum or Plasma"
        },
        "valueQuantity": {
          "system": "http://unitsofmeasure.org",
          "value": 2,
          "unit": "mg/dL",
          "code": "mg/dL"
        },
        "referenceRange": [
          {
            "low": {
              "value": 0.9,
              "code": "mg/dL",
              "system": "http://unitsofmeasure.org"
            }
          },
          {
            "high": {
              "value": 1.3,
              "code": "mg/dL",
              "system": "http://unitsofmeasure.org"
            }
          }
        ],
        "interpretation": [
          {
            "coding": [
              {
                "code": "H",
                "system": "http://terminology.hl7.org/CodeSystem/v3-ObservationInterpretation",
                "display": "High"
              }
            ]
          }
        ],
        "text": {
          "status": "generated",
          "div": "<div xmlns=\"http://www.w3.org/1999/xhtml\"><table class=\"hl7__eu__lab__report\"><tr><th>Test</th><th>17-Jun-2021</th><th>Reference&#xA0;Range</th><th>Unit</th></tr><tr><td>Creatinine [Mass/volume] in Serum or Plasma</td><td>2.0</td><td>0.9 - 1.3</td><td>H</td><td>mg/dL</td></tr></table></div>"
        },
        "status": "final",
        "subject": {
          "reference": "urn:uuid:75c9df1c-50d3-4886-9ece-688ecd34f282",
          "display": "Pelayo Casal"
        },
        "effectiveDateTime": "2021-06-17T05:38:59Z",
        "specimen": {
          "reference": "urn:uuid:768a6214-e1b8-4554-a1ca-a7a31324e21f"
        }
      }
    },
    {
      "fullUrl": "urn:uuid:c9c5fc90-c02b-4754-8ec9-27ee6a7bf2a7",
      "resource": {
        "resourceType": "Observation",
        "id": "c9c5fc90-c02b-4754-8ec9-27ee6a7bf2a7",
        "meta": {
          "profile": [
            "http://hl7.eu/fhir/laboratory/StructureDefinition/Observation-resultslab-eu-lab"
          ]
        },
        "performer": [
          {
            "display": "The Central European Lab"
          }
        ],
        "category": [
          {
            "coding": [
              {
                "system": "http://terminology.hl7.org/CodeSystem/observation-category",
                "code": "laboratory"
              }
            ]
          }
        ],
        "code": {
          "coding": [
            {
              "code": "17861-6",
              "system": "http://loinc.org",
              "display": "Calcium [Mass/volume] in Serum or Plasma"
            }
          ],
          "text": "Calcium [Mass/volume] in Serum or Plasma"
        },
        "valueQuantity": {
          "system": "http://unitsofmeasure.org",
          "value": 9.4,
          "unit": "mg/dL",
          "code": "mg/dL"
        },
        "referenceRange": [
          {
            "low": {
              "value": 8.5,
              "code": "mg/dL",
              "system": "http://unitsofmeasure.org"
            }
          },
          {
            "high": {
              "value": 10.5,
              "code": "mg/dL",
              "system": "http://unitsofmeasure.org"
            }
          }
        ],
        "text": {
          "status": "generated",
          "div": "<div xmlns=\"http://www.w3.org/1999/xhtml\"><table class=\"hl7__eu__lab__report\"><tr><th>Test</th><th>17-Jun-2021</th><th>Reference&#xA0;Range</th><th>Unit</th></tr><tr><td>Calcium [Mass/volume] in Serum or Plasma</td><td>9.4</td><td>8.5 - 10.5</td><td></td><td>mg/dL</td></tr></table></div>"
        },
        "status": "final",
        "subject": {
          "reference": "urn:uuid:75c9df1c-50d3-4886-9ece-688ecd34f282",
          "display": "Pelayo Casal"
        },
        "effectiveDateTime": "2021-06-17T05:38:59Z",
        "specimen": {
          "reference": "urn:uuid:768a6214-e1b8-4554-a1ca-a7a31324e21f"
        }
      }
    },
    {
      "fullUrl": "urn:uuid:9f2db6ac-3e43-4f75-9ad9-7717144ed8aa",
      "resource": {
        "resourceType": "Observation",
        "id": "9f2db6ac-3e43-4f75-9ad9-7717144ed8aa",
        "meta": {
          "profile": [
            "http://hl7.eu/fhir/laboratory/StructureDefinition/Observation-resultslab-eu-lab"
          ]
        },
        "performer": [
          {
            "display": "The Central European Lab"
          }
        ],
        "category": [
          {
            "coding": [
              {
                "system": "http://terminology.hl7.org/CodeSystem/observation-category",
                "code": "laboratory"
              }
            ]
          }
        ],
        "code": {
          "coding": [
            {
              "code": "2951-2",
              "system": "http://loinc.org",
              "display": "Sodium [Moles/volume] in Serum or Plasma"
            }
          ],
          "text": "Sodium [Moles/volume] in Serum or Plasma"
        },
        "valueQuantity": {
          "system": "http://unitsofmeasure.org",
          "value": 138.4,
          "unit": "mmol/L",
          "code": "mmol/L"
        },
        "referenceRange": [
          {
            "low": {
              "value": 135,
              "code": "mmol/L",
              "system": "http://unitsofmeasure.org"
            }
          },
          {
            "high": {
              "value": 145,
              "code": "mmol/L",
              "system": "http://unitsofmeasure.org"
            }
          }
        ],
        "text": {
          "status": "generated",
          "div": "<div xmlns=\"http://www.w3.org/1999/xhtml\"><table class=\"hl7__eu__lab__report\"><tr><th>Test</th><th>17-Jun-2021</th><th>Reference&#xA0;Range</th><th>Unit</th></tr><tr><td>Sodium [Moles/volume] in Serum or Plasma</td><td>138.4</td><td>135 - 145</td><td></td><td>mmol/L</td></tr></table></div>"
        },
        "status": "final",
        "subject": {
          "reference": "urn:uuid:75c9df1c-50d3-4886-9ece-688ecd34f282",
          "display": "Pelayo Casal"
        },
        "effectiveDateTime": "2021-06-17T05:38:59Z",
        "specimen": {
          "reference": "urn:uuid:768a6214-e1b8-4554-a1ca-a7a31324e21f"
        }
      }
    },
    {
      "fullUrl": "urn:uuid:391663a8-3b83-4e45-9d06-f0d64fbbd6e6",
      "resource": {
        "resourceType": "Observation",
        "id": "391663a8-3b83-4e45-9d06-f0d64fbbd6e6",
        "meta": {
          "profile": [
            "http://hl7.eu/fhir/laboratory/StructureDefinition/Observation-resultslab-eu-lab"
          ]
        },
        "performer": [
          {
            "display": "The Central European Lab"
          }
        ],
        "category": [
          {
            "coding": [
              {
                "system": "http://terminology.hl7.org/CodeSystem/observation-category",
                "code": "laboratory"
              }
            ]
          }
        ],
        "code": {
          "coding": [
            {
              "code": "2823-3",
              "system": "http://loinc.org",
              "display": "Potassium [Moles/volume] in Serum or Plasma"
            }
          ],
          "text": "Potassium [Moles/volume] in Serum or Plasma"
        },
        "valueQuantity": {
          "system": "http://unitsofmeasure.org",
          "value": 4.1,
          "unit": "mmol/L",
          "code": "mmol/L"
        },
        "referenceRange": [
          {
            "low": {
              "value": 3.5,
              "code": "mmol/L",
              "system": "http://unitsofmeasure.org"
            }
          },
          {
            "high": {
              "value": 5.3,
              "code": "mmol/L",
              "system": "http://unitsofmeasure.org"
            }
          }
        ],
        "text": {
          "status": "generated",
          "div": "<div xmlns=\"http://www.w3.org/1999/xhtml\"><table class=\"hl7__eu__lab__report\"><tr><th>Test</th><th>17-Jun-2021</th><th>Reference&#xA0;Range</th><th>Unit</th></tr><tr><td>Potassium [Moles/volume] in Serum or Plasma</td><td>4.1</td><td>3.5 - 5.3</td><td></td><td>mmol/L</td></tr></table></div>"
        },
        "status": "final",
        "subject": {
          "reference": "urn:uuid:75c9df1c-50d3-4886-9ece-688ecd34f282",
          "display": "Pelayo Casal"
        },
        "effectiveDateTime": "2021-06-17T05:38:59Z",
        "specimen": {
          "reference": "urn:uuid:768a6214-e1b8-4554-a1ca-a7a31324e21f"
        }
      }
    },
    {
      "fullUrl": "urn:uuid:f1061b93-5e04-44fc-9c1b-48cd41b85079",
      "resource": {
        "resourceType": "Observation",
        "id": "f1061b93-5e04-44fc-9c1b-48cd41b85079",
        "meta": {
          "profile": [
            "http://hl7.eu/fhir/laboratory/StructureDefinition/Observation-resultslab-eu-lab"
          ]
        },
        "performer": [
          {
            "display": "The Central European Lab"
          }
        ],
        "category": [
          {
            "coding": [
              {
                "system": "http://terminology.hl7.org/CodeSystem/observation-category",
                "code": "laboratory"
              }
            ]
          }
        ],
        "code": {
          "coding": [
            {
              "code": "2075-0",
              "system": "http://loinc.org",
              "display": "Chloride [Moles/volume] in Serum or Plasma"
            }
          ],
          "text": "Chloride [Moles/volume] in Serum or Plasma"
        },
        "valueQuantity": {
          "system": "http://unitsofmeasure.org",
          "value": 105.2,
          "unit": "mmol/L",
          "code": "mmol/L"
        },
        "referenceRange": [
          {
            "low": {
              "value": 98,
              "code": "mmol/L",
              "system": "http://unitsofmeasure.org"
            }
          },
          {
            "high": {
              "value": 107,
              "code": "mmol/L",
              "system": "http://unitsofmeasure.org"
            }
          }
        ],
        "text": {
          "status": "generated",
          "div": "<div xmlns=\"http://www.w3.org/1999/xhtml\"><table class=\"hl7__eu__lab__report\"><tr><th>Test</th><th>17-Jun-2021</th><th>Reference&#xA0;Range</th><th>Unit</th></tr><tr><td>Chloride [Moles/volume] in Serum or Plasma</td><td>105.2</td><td>98 - 107</td><td></td><td>mmol/L</td></tr></table></div>"
        },
        "status": "final",
        "subject": {
          "reference": "urn:uuid:75c9df1c-50d3-4886-9ece-688ecd34f282",
          "display": "Pelayo Casal"
        },
        "effectiveDateTime": "2021-06-17T05:38:59Z",
        "specimen": {
          "reference": "urn:uuid:768a6214-e1b8-4554-a1ca-a7a31324e21f"
        }
      }
    },
    {
      "fullUrl": "urn:uuid:343cd42d-bd12-4d98-8c98-4de7ccbab64b",
      "resource": {
        "resourceType": "Observation",
        "id": "343cd42d-bd12-4d98-8c98-4de7ccbab64b",
        "meta": {
          "profile": [
            "http://hl7.eu/fhir/laboratory/StructureDefinition/Observation-resultslab-eu-lab"
          ]
        },
        "performer": [
          {
            "display": "The Central European Lab"
          }
        ],
        "category": [
          {
            "coding": [
              {
                "system": "http://terminology.hl7.org/CodeSystem/observation-category",
                "code": "laboratory"
              }
            ]
          }
        ],
        "code": {
          "coding": [
            {
              "code": "2028-9",
              "system": "http://loinc.org",
              "display": "Carbon dioxide, total [Moles/volume] in Serum or Plasma"
            }
          ],
          "text": "Carbon dioxide, total [Moles/volume] in Serum or Plasma"
        },
        "valueQuantity": {
          "system": "http://unitsofmeasure.org",
          "value": 20.9,
          "unit": "mmol/L",
          "code": "mmol/L"
        },
        "referenceRange": [
          {
            "low": {
              "value": 22,
              "code": "mmol/L",
              "system": "http://unitsofmeasure.org"
            }
          },
          {
            "high": {
              "value": 29,
              "code": "mmol/L",
              "system": "http://unitsofmeasure.org"
            }
          }
        ],
        "interpretation": [
          {
            "coding": [
              {
                "code": "L",
                "system": "http://terminology.hl7.org/CodeSystem/v3-ObservationInterpretation",
                "display": "Low"
              }
            ]
          }
        ],
        "text": {
          "status": "generated",
          "div": "<div xmlns=\"http://www.w3.org/1999/xhtml\"><table class=\"hl7__eu__lab__report\"><tr><th>Test</th><th>17-Jun-2021</th><th>Reference&#xA0;Range</th><th>Unit</th></tr><tr><td>Carbon dioxide, total [Moles/volume] in Serum or Plasma</td><td>20.9</td><td>22 - 29</td><td>L</td><td>mmol/L</td></tr></table></div>"
        },
        "status": "final",
        "subject": {
          "reference": "urn:uuid:75c9df1c-50d3-4886-9ece-688ecd34f282",
          "display": "Pelayo Casal"
        },
        "effectiveDateTime": "2021-06-17T05:38:59Z",
        "specimen": {
          "reference": "urn:uuid:768a6214-e1b8-4554-a1ca-a7a31324e21f"
        }
      }
    },
    {
      "fullUrl": "urn:uuid:51d3b118-1a6a-42c9-aad2-820bcbe5340e",
      "resource": {
        "resourceType": "Observation",
        "id": "51d3b118-1a6a-42c9-aad2-820bcbe5340e",
        "meta": {
          "profile": [
            "http://hl7.eu/fhir/laboratory/StructureDefinition/Observation-resultslab-eu-lab"
          ]
        },
        "performer": [
          {
            "display": "The Central European Lab"
          }
        ],
        "category": [
          {
            "coding": [
              {
                "system": "http://terminology.hl7.org/CodeSystem/observation-category",
                "code": "laboratory"
              }
            ]
          }
        ],
        "code": {
          "coding": [
            {
              "code": "5767-9",
              "system": "http://loinc.org",
              "display": "Appearance of Urine"
            }
          ],
          "text": "Appearance of Urine"
        },
        "text": {
          "status": "generated",
          "div": "<div xmlns=\"http://www.w3.org/1999/xhtml\"><table class=\"hl7__eu__lab__report\"><tr><th>Test</th><th>17-Jun-2021</th><th>Reference&#xA0;Range</th><th>Unit</th></tr><tr><td>Appearance of Urine</td></tr></table></div>"
        },
        "status": "final",
        "subject": {
          "reference": "urn:uuid:75c9df1c-50d3-4886-9ece-688ecd34f282",
          "display": "Pelayo Casal"
        },
        "effectiveDateTime": "2021-06-17T05:38:59Z",
        "specimen": {
          "reference": "urn:uuid:d9f22f1a-526f-4fe0-89d0-8f5a4a739da3"
        }
      }
    },
    {
      "fullUrl": "urn:uuid:25a37fc0-7008-4713-be39-682975623779",
      "resource": {
        "resourceType": "Observation",
        "id": "25a37fc0-7008-4713-be39-682975623779",
        "meta": {
          "profile": [
            "http://hl7.eu/fhir/laboratory/StructureDefinition/Observation-resultslab-eu-lab"
          ]
        },
        "performer": [
          {
            "display": "The Central European Lab"
          }
        ],
        "category": [
          {
            "coding": [
              {
                "system": "http://terminology.hl7.org/CodeSystem/observation-category",
                "code": "laboratory"
              }
            ]
          }
        ],
        "code": {
          "coding": [
            {
              "code": "34533-0",
              "system": "http://loinc.org",
              "display": "Odor of Urine"
            }
          ],
          "text": "Odor of Urine"
        },
        "text": {
          "status": "generated",
          "div": "<div xmlns=\"http://www.w3.org/1999/xhtml\"><table class=\"hl7__eu__lab__report\"><tr><th>Test</th><th>17-Jun-2021</th><th>Reference&#xA0;Range</th><th>Unit</th></tr><tr><td>Odor of Urine</td></tr></table></div>"
        },
        "status": "final",
        "subject": {
          "reference": "urn:uuid:75c9df1c-50d3-4886-9ece-688ecd34f282",
          "display": "Pelayo Casal"
        },
        "effectiveDateTime": "2021-06-17T05:38:59Z",
        "specimen": {
          "reference": "urn:uuid:d9f22f1a-526f-4fe0-89d0-8f5a4a739da3"
        }
      }
    },
    {
      "fullUrl": "urn:uuid:0e4fd45e-7020-4b57-bc4f-b3ec4acda79c",
      "resource": {
        "resourceType": "Observation",
        "id": "0e4fd45e-7020-4b57-bc4f-b3ec4acda79c",
        "meta": {
          "profile": [
            "http://hl7.eu/fhir/laboratory/StructureDefinition/Observation-resultslab-eu-lab"
          ]
        },
        "performer": [
          {
            "display": "The Central European Lab"
          }
        ],
        "category": [
          {
            "coding": [
              {
                "system": "http://terminology.hl7.org/CodeSystem/observation-category",
                "code": "laboratory"
              }
            ]
          }
        ],
        "code": {
          "coding": [
            {
              "code": "32167-9",
              "system": "http://loinc.org",
              "display": "Clarity of Urine"
            }
          ],
          "text": "Clarity of Urine"
        },
        "text": {
          "status": "generated",
          "div": "<div xmlns=\"http://www.w3.org/1999/xhtml\"><table class=\"hl7__eu__lab__report\"><tr><th>Test</th><th>17-Jun-2021</th><th>Reference&#xA0;Range</th><th>Unit</th></tr><tr><td>Clarity of Urine</td></tr></table></div>"
        },
        "status": "final",
        "subject": {
          "reference": "urn:uuid:75c9df1c-50d3-4886-9ece-688ecd34f282",
          "display": "Pelayo Casal"
        },
        "effectiveDateTime": "2021-06-17T05:38:59Z",
        "specimen": {
          "reference": "urn:uuid:d9f22f1a-526f-4fe0-89d0-8f5a4a739da3"
        }
      }
    },
    {
      "fullUrl": "urn:uuid:7595ad9c-f820-460b-aba2-51fc043c8774",
      "resource": {
        "resourceType": "Observation",
        "id": "7595ad9c-f820-460b-aba2-51fc043c8774",
        "meta": {
          "profile": [
            "http://hl7.eu/fhir/laboratory/StructureDefinition/Observation-resultslab-eu-lab"
          ]
        },
        "performer": [
          {
            "display": "The Central European Lab"
          }
        ],
        "category": [
          {
            "coding": [
              {
                "system": "http://terminology.hl7.org/CodeSystem/observation-category",
                "code": "laboratory"
              }
            ]
          }
        ],
        "code": {
          "coding": [
            {
              "code": "5778-6",
              "system": "http://loinc.org",
              "display": "Color of Urine"
            }
          ],
          "text": "Color of Urine"
        },
        "text": {
          "status": "generated",
          "div": "<div xmlns=\"http://www.w3.org/1999/xhtml\"><table class=\"hl7__eu__lab__report\"><tr><th>Test</th><th>17-Jun-2021</th><th>Reference&#xA0;Range</th><th>Unit</th></tr><tr><td>Color of Urine</td></tr></table></div>"
        },
        "status": "final",
        "subject": {
          "reference": "urn:uuid:75c9df1c-50d3-4886-9ece-688ecd34f282",
          "display": "Pelayo Casal"
        },
        "effectiveDateTime": "2021-06-17T05:38:59Z",
        "specimen": {
          "reference": "urn:uuid:d9f22f1a-526f-4fe0-89d0-8f5a4a739da3"
        }
      }
    },
    {
      "fullUrl": "urn:uuid:038a5958-5a33-4210-96bb-506866367602",
      "resource": {
        "resourceType": "Observation",
        "id": "038a5958-5a33-4210-96bb-506866367602",
        "meta": {
          "profile": [
            "http://hl7.eu/fhir/laboratory/StructureDefinition/Observation-resultslab-eu-lab"
          ]
        },
        "performer": [
          {
            "display": "The Central European Lab"
          }
        ],
        "category": [
          {
            "coding": [
              {
                "system": "http://terminology.hl7.org/CodeSystem/observation-category",
                "code": "laboratory"
              }
            ]
          }
        ],
        "code": {
          "coding": [
            {
              "code": "5792-7",
              "system": "http://loinc.org",
              "display": "Glucose [Mass/volume] in Urine by Test strip"
            }
          ],
          "text": "Glucose [Mass/volume] in Urine by Test strip"
        },
        "valueQuantity": {
          "system": "http://unitsofmeasure.org",
          "value": 0.9,
          "unit": "mg/dL",
          "code": "mg/dL"
        },
        "referenceRange": [
          {
            "low": {
              "value": 0.8,
              "code": "mg/dL",
              "system": "http://unitsofmeasure.org"
            }
          },
          {
            "high": {
              "value": 0,
              "code": "mg/dL",
              "system": "http://unitsofmeasure.org"
            }
          }
        ],
        "interpretation": [
          {
            "coding": [
              {
                "code": "H",
                "system": "http://terminology.hl7.org/CodeSystem/v3-ObservationInterpretation",
                "display": "High"
              }
            ]
          }
        ],
        "text": {
          "status": "generated",
          "div": "<div xmlns=\"http://www.w3.org/1999/xhtml\"><table class=\"hl7__eu__lab__report\"><tr><th>Test</th><th>17-Jun-2021</th><th>Reference&#xA0;Range</th><th>Unit</th></tr><tr><td>Glucose [Mass/volume] in Urine by Test strip</td><td>0.9</td><td>0.8 - 0</td><td>H</td><td>mg/dL</td></tr></table></div>"
        },
        "status": "final",
        "subject": {
          "reference": "urn:uuid:75c9df1c-50d3-4886-9ece-688ecd34f282",
          "display": "Pelayo Casal"
        },
        "effectiveDateTime": "2021-06-17T05:38:59Z",
        "specimen": {
          "reference": "urn:uuid:d9f22f1a-526f-4fe0-89d0-8f5a4a739da3"
        }
      }
    },
    {
      "fullUrl": "urn:uuid:76b0936b-6f47-4e71-a89e-bd92737db443",
      "resource": {
        "resourceType": "Observation",
        "id": "76b0936b-6f47-4e71-a89e-bd92737db443",
        "meta": {
          "profile": [
            "http://hl7.eu/fhir/laboratory/StructureDefinition/Observation-resultslab-eu-lab"
          ]
        },
        "performer": [
          {
            "display": "The Central European Lab"
          }
        ],
        "category": [
          {
            "coding": [
              {
                "system": "http://terminology.hl7.org/CodeSystem/observation-category",
                "code": "laboratory"
              }
            ]
          }
        ],
        "code": {
          "coding": [
            {
              "code": "25428-4",
              "system": "http://loinc.org",
              "display": "Glucose [Presence] in Urine by Test strip"
            }
          ],
          "text": "Glucose [Presence] in Urine by Test strip"
        },
        "text": {
          "status": "generated",
          "div": "<div xmlns=\"http://www.w3.org/1999/xhtml\"><table class=\"hl7__eu__lab__report\"><tr><th>Test</th><th>17-Jun-2021</th><th>Reference&#xA0;Range</th><th>Unit</th></tr><tr><td>Glucose [Presence] in Urine by Test strip</td></tr></table></div>"
        },
        "status": "final",
        "subject": {
          "reference": "urn:uuid:75c9df1c-50d3-4886-9ece-688ecd34f282",
          "display": "Pelayo Casal"
        },
        "effectiveDateTime": "2021-06-17T05:38:59Z",
        "specimen": {
          "reference": "urn:uuid:d9f22f1a-526f-4fe0-89d0-8f5a4a739da3"
        }
      }
    },
    {
      "fullUrl": "urn:uuid:207cfdc2-b6fb-4dcf-8db9-da2b653c2f3a",
      "resource": {
        "resourceType": "Observation",
        "id": "207cfdc2-b6fb-4dcf-8db9-da2b653c2f3a",
        "meta": {
          "profile": [
            "http://hl7.eu/fhir/laboratory/StructureDefinition/Observation-resultslab-eu-lab"
          ]
        },
        "performer": [
          {
            "display": "The Central European Lab"
          }
        ],
        "category": [
          {
            "coding": [
              {
                "system": "http://terminology.hl7.org/CodeSystem/observation-category",
                "code": "laboratory"
              }
            ]
          }
        ],
        "code": {
          "coding": [
            {
              "code": "20505-4",
              "system": "http://loinc.org",
              "display": "Bilirubin.total [Mass/volume] in Urine by Test strip"
            }
          ],
          "text": "Bilirubin.total [Mass/volume] in Urine by Test strip"
        },
        "valueQuantity": {
          "system": "http://unitsofmeasure.org",
          "value": 0.6,
          "unit": "mg/dL",
          "code": "mg/dL"
        },
        "referenceRange": [
          {
            "low": {
              "value": 0.2,
              "code": "mg/dL",
              "system": "http://unitsofmeasure.org"
            }
          },
          {
            "high": {
              "value": 1.5,
              "code": "mg/dL",
              "system": "http://unitsofmeasure.org"
            }
          }
        ],
        "text": {
          "status": "generated",
          "div": "<div xmlns=\"http://www.w3.org/1999/xhtml\"><table class=\"hl7__eu__lab__report\"><tr><th>Test</th><th>17-Jun-2021</th><th>Reference&#xA0;Range</th><th>Unit</th></tr><tr><td>Bilirubin.total [Mass/volume] in Urine by Test strip</td><td>0.6</td><td>0.2 - 1.5</td><td></td><td>mg/dL</td></tr></table></div>"
        },
        "status": "final",
        "subject": {
          "reference": "urn:uuid:75c9df1c-50d3-4886-9ece-688ecd34f282",
          "display": "Pelayo Casal"
        },
        "effectiveDateTime": "2021-06-17T05:38:59Z",
        "specimen": {
          "reference": "urn:uuid:d9f22f1a-526f-4fe0-89d0-8f5a4a739da3"
        }
      }
    },
    {
      "fullUrl": "urn:uuid:33e1a864-6c9e-434b-bd66-3c116119c537",
      "resource": {
        "resourceType": "Observation",
        "id": "33e1a864-6c9e-434b-bd66-3c116119c537",
        "meta": {
          "profile": [
            "http://hl7.eu/fhir/laboratory/StructureDefinition/Observation-resultslab-eu-lab"
          ]
        },
        "performer": [
          {
            "display": "The Central European Lab"
          }
        ],
        "category": [
          {
            "coding": [
              {
                "system": "http://terminology.hl7.org/CodeSystem/observation-category",
                "code": "laboratory"
              }
            ]
          }
        ],
        "code": {
          "coding": [
            {
              "code": "5770-3",
              "system": "http://loinc.org",
              "display": "Bilirubin.total [Presence] in Urine by Test strip"
            }
          ],
          "text": "Bilirubin.total [Presence] in Urine by Test strip"
        },
        "text": {
          "status": "generated",
          "div": "<div xmlns=\"http://www.w3.org/1999/xhtml\"><table class=\"hl7__eu__lab__report\"><tr><th>Test</th><th>17-Jun-2021</th><th>Reference&#xA0;Range</th><th>Unit</th></tr><tr><td>Bilirubin.total [Presence] in Urine by Test strip</td></tr></table></div>"
        },
        "status": "final",
        "subject": {
          "reference": "urn:uuid:75c9df1c-50d3-4886-9ece-688ecd34f282",
          "display": "Pelayo Casal"
        },
        "effectiveDateTime": "2021-06-17T05:38:59Z",
        "specimen": {
          "reference": "urn:uuid:d9f22f1a-526f-4fe0-89d0-8f5a4a739da3"
        }
      }
    },
    {
      "fullUrl": "urn:uuid:b92f0bd6-4be3-462f-82da-f199bb3ab103",
      "resource": {
        "resourceType": "Observation",
        "id": "b92f0bd6-4be3-462f-82da-f199bb3ab103",
        "meta": {
          "profile": [
            "http://hl7.eu/fhir/laboratory/StructureDefinition/Observation-resultslab-eu-lab"
          ]
        },
        "performer": [
          {
            "display": "The Central European Lab"
          }
        ],
        "category": [
          {
            "coding": [
              {
                "system": "http://terminology.hl7.org/CodeSystem/observation-category",
                "code": "laboratory"
              }
            ]
          }
        ],
        "code": {
          "coding": [
            {
              "code": "5797-6",
              "system": "http://loinc.org",
              "display": "Ketones [Mass/volume] in Urine by Test strip"
            }
          ],
          "text": "Ketones [Mass/volume] in Urine by Test strip"
        },
        "valueQuantity": {
          "system": "http://unitsofmeasure.org",
          "value": 14.8,
          "unit": "mg/dL",
          "code": "mg/dL"
        },
        "referenceRange": [
          {
            "low": {
              "value": 0,
              "code": "mg/dL",
              "system": "http://unitsofmeasure.org"
            }
          },
          {
            "high": {
              "value": 4,
              "code": "mg/dL",
              "system": "http://unitsofmeasure.org"
            }
          }
        ],
        "interpretation": [
          {
            "coding": [
              {
                "code": "H",
                "system": "http://terminology.hl7.org/CodeSystem/v3-ObservationInterpretation",
                "display": "High"
              }
            ]
          }
        ],
        "text": {
          "status": "generated",
          "div": "<div xmlns=\"http://www.w3.org/1999/xhtml\"><table class=\"hl7__eu__lab__report\"><tr><th>Test</th><th>17-Jun-2021</th><th>Reference&#xA0;Range</th><th>Unit</th></tr><tr><td>Ketones [Mass/volume] in Urine by Test strip</td><td>14.8</td><td>0 - 4</td><td>H</td><td>mg/dL</td></tr></table></div>"
        },
        "status": "final",
        "subject": {
          "reference": "urn:uuid:75c9df1c-50d3-4886-9ece-688ecd34f282",
          "display": "Pelayo Casal"
        },
        "effectiveDateTime": "2021-06-17T05:38:59Z",
        "specimen": {
          "reference": "urn:uuid:d9f22f1a-526f-4fe0-89d0-8f5a4a739da3"
        }
      }
    },
    {
      "fullUrl": "urn:uuid:d6b1723b-426f-4396-8b06-1c2c9a71cb95",
      "resource": {
        "resourceType": "Observation",
        "id": "d6b1723b-426f-4396-8b06-1c2c9a71cb95",
        "meta": {
          "profile": [
            "http://hl7.eu/fhir/laboratory/StructureDefinition/Observation-resultslab-eu-lab"
          ]
        },
        "performer": [
          {
            "display": "The Central European Lab"
          }
        ],
        "category": [
          {
            "coding": [
              {
                "system": "http://terminology.hl7.org/CodeSystem/observation-category",
                "code": "laboratory"
              }
            ]
          }
        ],
        "code": {
          "coding": [
            {
              "code": "2514-8",
              "system": "http://loinc.org",
              "display": "Ketones [Presence] in Urine by Test strip"
            }
          ],
          "text": "Ketones [Presence] in Urine by Test strip"
        },
        "text": {
          "status": "generated",
          "div": "<div xmlns=\"http://www.w3.org/1999/xhtml\"><table class=\"hl7__eu__lab__report\"><tr><th>Test</th><th>17-Jun-2021</th><th>Reference&#xA0;Range</th><th>Unit</th></tr><tr><td>Ketones [Presence] in Urine by Test strip</td></tr></table></div>"
        },
        "status": "final",
        "subject": {
          "reference": "urn:uuid:75c9df1c-50d3-4886-9ece-688ecd34f282",
          "display": "Pelayo Casal"
        },
        "effectiveDateTime": "2021-06-17T05:38:59Z",
        "specimen": {
          "reference": "urn:uuid:d9f22f1a-526f-4fe0-89d0-8f5a4a739da3"
        }
      }
    },
    {
      "fullUrl": "urn:uuid:b314f1d5-ca42-4393-9fcd-3c0ff9b507ff",
      "resource": {
        "resourceType": "Observation",
        "id": "b314f1d5-ca42-4393-9fcd-3c0ff9b507ff",
        "meta": {
          "profile": [
            "http://hl7.eu/fhir/laboratory/StructureDefinition/Observation-resultslab-eu-lab"
          ]
        },
        "performer": [
          {
            "display": "The Central European Lab"
          }
        ],
        "category": [
          {
            "coding": [
              {
                "system": "http://terminology.hl7.org/CodeSystem/observation-category",
                "code": "laboratory"
              }
            ]
          }
        ],
        "code": {
          "coding": [
            {
              "code": "5811-5",
              "system": "http://loinc.org",
              "display": "Specific gravity of Urine by Test strip"
            }
          ],
          "text": "Specific gravity of Urine by Test strip"
        },
        "valueQuantity": {
          "system": "http://unitsofmeasure.org",
          "value": 1,
          "unit": "{nominal}",
          "code": "{nominal}"
        },
        "referenceRange": [
          {
            "low": {
              "value": 1.01,
              "code": "g/mL",
              "system": "http://unitsofmeasure.org"
            }
          },
          {
            "high": {
              "value": 1.03,
              "code": "g/mL",
              "system": "http://unitsofmeasure.org"
            }
          }
        ],
        "interpretation": [
          {
            "coding": [
              {
                "code": "L",
                "system": "http://terminology.hl7.org/CodeSystem/v3-ObservationInterpretation",
                "display": "Low"
              }
            ]
          }
        ],
        "text": {
          "status": "generated",
          "div": "<div xmlns=\"http://www.w3.org/1999/xhtml\"><table class=\"hl7__eu__lab__report\"><tr><th>Test</th><th>17-Jun-2021</th><th>Reference&#xA0;Range</th><th>Unit</th></tr><tr><td>Specific gravity of Urine by Test strip</td><td>1.0</td><td>1.01 - 1.03</td><td>L</td><td>{nominal}</td></tr></table></div>"
        },
        "status": "final",
        "subject": {
          "reference": "urn:uuid:75c9df1c-50d3-4886-9ece-688ecd34f282",
          "display": "Pelayo Casal"
        },
        "effectiveDateTime": "2021-06-17T05:38:59Z",
        "specimen": {
          "reference": "urn:uuid:d9f22f1a-526f-4fe0-89d0-8f5a4a739da3"
        }
      }
    },
    {
      "fullUrl": "urn:uuid:da589584-5ab4-46ab-aaea-b93c210dc66c",
      "resource": {
        "resourceType": "Observation",
        "id": "da589584-5ab4-46ab-aaea-b93c210dc66c",
        "meta": {
          "profile": [
            "http://hl7.eu/fhir/laboratory/StructureDefinition/Observation-resultslab-eu-lab"
          ]
        },
        "performer": [
          {
            "display": "The Central European Lab"
          }
        ],
        "category": [
          {
            "coding": [
              {
                "system": "http://terminology.hl7.org/CodeSystem/observation-category",
                "code": "laboratory"
              }
            ]
          }
        ],
        "code": {
          "coding": [
            {
              "code": "5803-2",
              "system": "http://loinc.org",
              "display": "pH of Urine by Test strip"
            }
          ],
          "text": "pH of Urine by Test strip"
        },
        "valueQuantity": {
          "system": "http://unitsofmeasure.org",
          "value": 6.4,
          "unit": "pH",
          "code": "pH"
        },
        "referenceRange": [
          {
            "low": {
              "value": 4.5,
              "code": "pH",
              "system": "http://unitsofmeasure.org"
            }
          },
          {
            "high": {
              "value": 7.5,
              "code": "pH",
              "system": "http://unitsofmeasure.org"
            }
          }
        ],
        "text": {
          "status": "generated",
          "div": "<div xmlns=\"http://www.w3.org/1999/xhtml\"><table class=\"hl7__eu__lab__report\"><tr><th>Test</th><th>17-Jun-2021</th><th>Reference&#xA0;Range</th><th>Unit</th></tr><tr><td>pH of Urine by Test strip</td><td>6.4</td><td>4.5 - 7.5</td><td></td><td>pH</td></tr></table></div>"
        },
        "status": "final",
        "subject": {
          "reference": "urn:uuid:75c9df1c-50d3-4886-9ece-688ecd34f282",
          "display": "Pelayo Casal"
        },
        "effectiveDateTime": "2021-06-17T05:38:59Z",
        "specimen": {
          "reference": "urn:uuid:d9f22f1a-526f-4fe0-89d0-8f5a4a739da3"
        }
      }
    },
    {
      "fullUrl": "urn:uuid:af4a67b0-ebe6-42aa-9956-1c4c70c6f927",
      "resource": {
        "resourceType": "Observation",
        "id": "af4a67b0-ebe6-42aa-9956-1c4c70c6f927",
        "meta": {
          "profile": [
            "http://hl7.eu/fhir/laboratory/StructureDefinition/Observation-resultslab-eu-lab"
          ]
        },
        "performer": [
          {
            "display": "The Central European Lab"
          }
        ],
        "category": [
          {
            "coding": [
              {
                "system": "http://terminology.hl7.org/CodeSystem/observation-category",
                "code": "laboratory"
              }
            ]
          }
        ],
        "code": {
          "coding": [
            {
              "code": "5804-0",
              "system": "http://loinc.org",
              "display": "Protein [Mass/volume] in Urine by Test strip"
            }
          ],
          "text": "Protein [Mass/volume] in Urine by Test strip"
        },
        "valueQuantity": {
          "system": "http://unitsofmeasure.org",
          "value": 338.4,
          "unit": "mg/dL",
          "code": "mg/dL"
        },
        "referenceRange": [
          {
            "low": {
              "value": 0,
              "code": "mg/dL",
              "system": "http://unitsofmeasure.org"
            }
          },
          {
            "high": {
              "value": 150,
              "code": "mg/dL",
              "system": "http://unitsofmeasure.org"
            }
          }
        ],
        "interpretation": [
          {
            "coding": [
              {
                "code": "H",
                "system": "http://terminology.hl7.org/CodeSystem/v3-ObservationInterpretation",
                "display": "High"
              }
            ]
          }
        ],
        "text": {
          "status": "generated",
          "div": "<div xmlns=\"http://www.w3.org/1999/xhtml\"><table class=\"hl7__eu__lab__report\"><tr><th>Test</th><th>17-Jun-2021</th><th>Reference&#xA0;Range</th><th>Unit</th></tr><tr><td>Protein [Mass/volume] in Urine by Test strip</td><td>338.4</td><td>0 - 150</td><td>H</td><td>mg/dL</td></tr></table></div>"
        },
        "status": "final",
        "subject": {
          "reference": "urn:uuid:75c9df1c-50d3-4886-9ece-688ecd34f282",
          "display": "Pelayo Casal"
        },
        "effectiveDateTime": "2021-06-17T05:38:59Z",
        "specimen": {
          "reference": "urn:uuid:d9f22f1a-526f-4fe0-89d0-8f5a4a739da3"
        }
      }
    },
    {
      "fullUrl": "urn:uuid:ba2609c1-9a5b-47c7-b602-9d32af5fd1ac",
      "resource": {
        "resourceType": "Observation",
        "id": "ba2609c1-9a5b-47c7-b602-9d32af5fd1ac",
        "meta": {
          "profile": [
            "http://hl7.eu/fhir/laboratory/StructureDefinition/Observation-resultslab-eu-lab"
          ]
        },
        "performer": [
          {
            "display": "The Central European Lab"
          }
        ],
        "category": [
          {
            "coding": [
              {
                "system": "http://terminology.hl7.org/CodeSystem/observation-category",
                "code": "laboratory"
              }
            ]
          }
        ],
        "code": {
          "coding": [
            {
              "code": "20454-5",
              "system": "http://loinc.org",
              "display": "Protein [Presence] in Urine by Test strip"
            }
          ],
          "text": "Protein [Presence] in Urine by Test strip"
        },
        "text": {
          "status": "generated",
          "div": "<div xmlns=\"http://www.w3.org/1999/xhtml\"><table class=\"hl7__eu__lab__report\"><tr><th>Test</th><th>17-Jun-2021</th><th>Reference&#xA0;Range</th><th>Unit</th></tr><tr><td>Protein [Presence] in Urine by Test strip</td></tr></table></div>"
        },
        "status": "final",
        "subject": {
          "reference": "urn:uuid:75c9df1c-50d3-4886-9ece-688ecd34f282",
          "display": "Pelayo Casal"
        },
        "effectiveDateTime": "2021-06-17T05:38:59Z",
        "specimen": {
          "reference": "urn:uuid:d9f22f1a-526f-4fe0-89d0-8f5a4a739da3"
        }
      }
    },
    {
      "fullUrl": "urn:uuid:7c36d7ba-e205-4dea-88e4-f965c3359e4d",
      "resource": {
        "resourceType": "Observation",
        "id": "7c36d7ba-e205-4dea-88e4-f965c3359e4d",
        "meta": {
          "profile": [
            "http://hl7.eu/fhir/laboratory/StructureDefinition/Observation-resultslab-eu-lab"
          ]
        },
        "performer": [
          {
            "display": "The Central European Lab"
          }
        ],
        "category": [
          {
            "coding": [
              {
                "system": "http://terminology.hl7.org/CodeSystem/observation-category",
                "code": "laboratory"
              }
            ]
          }
        ],
        "code": {
          "coding": [
            {
              "code": "5802-4",
              "system": "http://loinc.org",
              "display": "Nitrite [Presence] in Urine by Test strip"
            }
          ],
          "text": "Nitrite [Presence] in Urine by Test strip"
        },
        "text": {
          "status": "generated",
          "div": "<div xmlns=\"http://www.w3.org/1999/xhtml\"><table class=\"hl7__eu__lab__report\"><tr><th>Test</th><th>17-Jun-2021</th><th>Reference&#xA0;Range</th><th>Unit</th></tr><tr><td>Nitrite [Presence] in Urine by Test strip</td></tr></table></div>"
        },
        "status": "final",
        "subject": {
          "reference": "urn:uuid:75c9df1c-50d3-4886-9ece-688ecd34f282",
          "display": "Pelayo Casal"
        },
        "effectiveDateTime": "2021-06-17T05:38:59Z",
        "specimen": {
          "reference": "urn:uuid:d9f22f1a-526f-4fe0-89d0-8f5a4a739da3"
        }
      }
    },
    {
      "fullUrl": "urn:uuid:acd05c6c-89f5-4b98-a570-aaad068dea4a",
      "resource": {
        "resourceType": "Observation",
        "id": "acd05c6c-89f5-4b98-a570-aaad068dea4a",
        "meta": {
          "profile": [
            "http://hl7.eu/fhir/laboratory/StructureDefinition/Observation-resultslab-eu-lab"
          ]
        },
        "performer": [
          {
            "display": "The Central European Lab"
          }
        ],
        "category": [
          {
            "coding": [
              {
                "system": "http://terminology.hl7.org/CodeSystem/observation-category",
                "code": "laboratory"
              }
            ]
          }
        ],
        "code": {
          "coding": [
            {
              "code": "5794-3",
              "system": "http://loinc.org",
              "display": "Hemoglobin [Presence] in Urine by Test strip"
            }
          ],
          "text": "Hemoglobin [Presence] in Urine by Test strip"
        },
        "text": {
          "status": "generated",
          "div": "<div xmlns=\"http://www.w3.org/1999/xhtml\"><table class=\"hl7__eu__lab__report\"><tr><th>Test</th><th>17-Jun-2021</th><th>Reference&#xA0;Range</th><th>Unit</th></tr><tr><td>Hemoglobin [Presence] in Urine by Test strip</td></tr></table></div>"
        },
        "status": "final",
        "subject": {
          "reference": "urn:uuid:75c9df1c-50d3-4886-9ece-688ecd34f282",
          "display": "Pelayo Casal"
        },
        "effectiveDateTime": "2021-06-17T05:38:59Z",
        "specimen": {
          "reference": "urn:uuid:d9f22f1a-526f-4fe0-89d0-8f5a4a739da3"
        }
      }
    },
    {
      "fullUrl": "urn:uuid:96ce2bc4-82df-4f21-b84a-f77cb6cf3e65",
      "resource": {
        "resourceType": "Observation",
        "id": "96ce2bc4-82df-4f21-b84a-f77cb6cf3e65",
        "meta": {
          "profile": [
            "http://hl7.eu/fhir/laboratory/StructureDefinition/Observation-resultslab-eu-lab"
          ]
        },
        "performer": [
          {
            "display": "The Central European Lab"
          }
        ],
        "category": [
          {
            "coding": [
              {
                "system": "http://terminology.hl7.org/CodeSystem/observation-category",
                "code": "laboratory"
              }
            ]
          }
        ],
        "code": {
          "coding": [
            {
              "code": "5799-2",
              "system": "http://loinc.org",
              "display": "Leukocyte esterase [Presence] in Urine by Test strip"
            }
          ],
          "text": "Leukocyte esterase [Presence] in Urine by Test strip"
        },
        "text": {
          "status": "generated",
          "div": "<div xmlns=\"http://www.w3.org/1999/xhtml\"><table class=\"hl7__eu__lab__report\"><tr><th>Test</th><th>17-Jun-2021</th><th>Reference&#xA0;Range</th><th>Unit</th></tr><tr><td>Leukocyte esterase [Presence] in Urine by Test strip</td></tr></table></div>"
        },
        "status": "final",
        "subject": {
          "reference": "urn:uuid:75c9df1c-50d3-4886-9ece-688ecd34f282",
          "display": "Pelayo Casal"
        },
        "effectiveDateTime": "2021-06-17T05:38:59Z",
        "specimen": {
          "reference": "urn:uuid:d9f22f1a-526f-4fe0-89d0-8f5a4a739da3"
        }
      }
    },
    {
      "fullUrl": "urn:uuid:fed47c25-d18c-4769-bf8a-2e929ed87bc5",
      "resource": {
        "resourceType": "Observation",
        "id": "fed47c25-d18c-4769-bf8a-2e929ed87bc5",
        "meta": {
          "profile": [
            "http://hl7.eu/fhir/laboratory/StructureDefinition/Observation-resultslab-eu-lab"
          ]
        },
        "performer": [
          {
            "display": "The Central European Lab"
          }
        ],
        "category": [
          {
            "coding": [
              {
                "system": "http://terminology.hl7.org/CodeSystem/observation-category",
                "code": "laboratory"
              }
            ]
          }
        ],
        "code": {
          "coding": [
            {
              "code": "4548-4",
              "system": "http://loinc.org",
              "display": "Hemoglobin A1c/Hemoglobin.total in Blood"
            }
          ],
          "text": "Hemoglobin A1c/Hemoglobin.total in Blood"
        },
        "valueQuantity": {
          "system": "http://unitsofmeasure.org",
          "value": 2.9,
          "unit": "%",
          "code": "%"
        },
        "referenceRange": [
          {
            "low": {
              "value": 4.5,
              "code": "%",
              "system": "http://unitsofmeasure.org"
            }
          },
          {
            "high": {
              "value": 6.4,
              "code": "%",
              "system": "http://unitsofmeasure.org"
            }
          }
        ],
        "interpretation": [
          {
            "coding": [
              {
                "code": "L",
                "system": "http://terminology.hl7.org/CodeSystem/v3-ObservationInterpretation",
                "display": "Low"
              }
            ]
          }
        ],
        "text": {
          "status": "generated",
          "div": "<div xmlns=\"http://www.w3.org/1999/xhtml\"><table class=\"hl7__eu__lab__report\"><tr><th>Test</th><th>17-Jun-2021</th><th>Reference&#xA0;Range</th><th>Unit</th></tr><tr><td>Hemoglobin A1c/Hemoglobin.total in Blood</td><td>2.9</td><td>4.5 - 6.4</td><td>L</td><td>%</td></tr></table></div>"
        },
        "status": "final",
        "subject": {
          "reference": "urn:uuid:75c9df1c-50d3-4886-9ece-688ecd34f282",
          "display": "Pelayo Casal"
        },
        "effectiveDateTime": "2021-06-17T05:38:59Z",
        "specimen": {
          "reference": "urn:uuid:f32d38f9-1937-4954-9925-babc307cd2f6"
        }
      }
    },
    {
      "fullUrl": "urn:uuid:b8ec977a-555e-45e4-9bc0-09afeb685fe2",
      "resource": {
        "resourceType": "Device",
        "id": "b8ec977a-555e-45e4-9bc0-09afeb685fe2",
        "deviceName": [
          {
            "name": "SYNDERAI Synthetic Generator",
            "type": "manufacturer-name"
          }
        ],
        "version": [
          {
            "value": "5.0"
          }
        ],
        "text": {
          "status": "generated",
          "div": "<div xmlns=\"http://www.w3.org/1999/xhtml\">SYNDERAI Synthetic Generator v5.0</div>"
        },
        "status": "active\"",
        "distinctIdentifier": "synderai-generator-50",
        "manufacturer": "SYNDERAI Project"
      }
    },
    {
      "fullUrl": "urn:uuid:df4276c9-f08e-4ba1-a5a1-3c856f168b06",
      "resource": {
        "resourceType": "Provenance",
        "id": "df4276c9-f08e-4ba1-a5a1-3c856f168b06",
        "target": [
          {
            "reference": "Patient/75c9df1c-50d3-4886-9ece-688ecd34f282"
          },
          {
            "reference": "Bundle/e7e4ff22-c065-444a-96bf-5b01886b122c"
          },
          {
            "reference": "Composition/eac98934-fcd3-4ed8-b9d0-35c6224900c6"
          },
          {
            "reference": "PractitionerRole/d3e52780-d007-4125-97fb-0a1de6c045a0"
          },
          {
            "reference": "Practitioner/88796afd-a410-420d-85a5-f3064c9609e2"
          },
          {
            "reference": "PractitionerRole/3ff499d2-c6d3-4879-8fbb-95b14ed65ff1"
          },
          {
            "reference": "Organization/755e3605-4d76-4d99-9bda-f088a088f57f"
          }
        ],
        "activity": {
          "text": "Synthetic Example Data Generation"
        },
        "policy": [
          "https://synderai.net/synderai-synthetic-data-policy"
        ],
        "agent": [
          {
            "type": {
              "text": "author"
            },
            "who": {
              "reference": "Device/b8ec977a-555e-45e4-9bc0-09afeb685fe2"
            }
          }
        ],
        "reason": [
          {
            "text": "Interoperability Testing and Training (non-clinical use)"
          }
        ],
        "text": {
          "status": "generated",
          "div": "<div xmlns=\"http://www.w3.org/1999/xhtml\">Provenance for SYNDERAI Synthetic Example Data Resource</div>"
        },
        "recorded": "2021-06-17T07:38:59Z"
      }
    },
    {
      "fullUrl": "urn:uuid:d3e52780-d007-4125-97fb-0a1de6c045a0",
      "resource": {
        "resourceType": "PractitionerRole",
        "id": "d3e52780-d007-4125-97fb-0a1de6c045a0",
        "meta": {
          "profile": [
            "http://hl7.eu/fhir/base/StructureDefinition/practitionerRole-eu"
          ]
        },
        "text": {
          "status": "generated",
          "div": "<div xmlns=\"http://www.w3.org/1999/xhtml\">Laboratory Role Id: d3e52780-d007-4125-97fb-0a1de6c045a0</div>"
        },
        "practitioner": {
          "reference": "urn:uuid:88796afd-a410-420d-85a5-f3064c9609e2"
        }
      }
    },
    {
      "fullUrl": "urn:uuid:88796afd-a410-420d-85a5-f3064c9609e2",
      "resource": {
        "resourceType": "Practitioner",
        "id": "88796afd-a410-420d-85a5-f3064c9609e2",
        "meta": {
          "profile": [
            "http://hl7.eu/fhir/base/StructureDefinition/practitioner-eu"
          ]
        },
        "identifier": [
          {
            "assigner": {
              "display": "HL7 Europe"
            },
            "system": "urn:oid:2.16.840.1.113883.2.51.999",
            "value": "9bd4d99d-1d16-4526-9659-af8aa840cdda"
          }
        ],
        "name": [
          {
            "prefix": [
              "dr"
            ],
            "given": [
              "Ex"
            ],
            "family": "Ample"
          }
        ],
        "address": [
          {
            "line": [
              "Laboratoire Central Européenne",
              "Boulevard du Jardin Botanique 32"
            ],
            "postalCode": "1000",
            "city": "Brussels",
            "country": "Belgium"
          }
        ],
        "text": {
          "status": "generated",
          "div": "<div xmlns=\"http://www.w3.org/1999/xhtml\">Laboratory: Laboratoire Central Européenne, 1000 Brussels, Belgium</div>"
        }
      }
    }
  ],
  "type": "document",
  "timestamp": "2021-06-17T07:38:59Z"
}
