{
  "resourceType": "Bundle",
  "id": "f44e47f2-af6b-40dc-b6f5-333b03d0fefd",
  "meta": {
    "profile": [
      "http://hl7.eu/fhir/laboratory/StructureDefinition/Bundle-eu-lab"
    ]
  },
  "identifier": {
    "assigner": {
      "display": "HL7 Europe"
    },
    "system": "urn:oid:2.16.840.1.113883.2.51.999",
    "value": "0188b3e9-502b-4c09-a37d-b9335888c4ba"
  },
  "entry": [
    {
      "fullUrl": "urn:uuid:b647ed48-c62c-4d43-af47-6794d4734cc9",
      "resource": {
        "resourceType": "Composition",
        "id": "b647ed48-c62c-4d43-af47-6794d4734cc9",
        "meta": {
          "profile": [
            "http://hl7.eu/fhir/laboratory/StructureDefinition/Composition-eu-lab"
          ]
        },
        "identifier": {
          "assigner": {
            "display": "HL7 Europe"
          },
          "system": "urn:oid:2.16.840.1.113883.2.51.999",
          "value": "02d57f65-2808-4dea-a9f2-1920c865052e"
        },
        "author": [
          {
            "reference": "urn:uuid:df0a3464-2b31-4b94-9021-36ed159ffb17"
          }
        ],
        "category": [
          {
            "coding": [
              {
                "code": "26436-6",
                "system": "http://loinc.org",
                "display": "Laboratory studies (set)"
              }
            ]
          }
        ],
        "type": {
          "coding": [
            {
              "code": "11502-2",
              "system": "http://loinc.org",
              "display": "Laboratory report"
            }
          ],
          "text": "Laboratory Report"
        },
        "section": [
          {
            "code": {
              "coding": [
                {
                  "code": "26436-6",
                  "system": "http://loinc.org",
                  "display": "Laboratory studies (set)"
                }
              ],
              "text": "Laboratory studies"
            },
            "section": [
              {
                "code": {
                  "coding": [
                    {
                      "code": "$18719-5",
                      "system": "http://loinc.org",
                      "display": "Chemistry studies (set)"
                    }
                  ],
                  "text": "Chemistry"
                },
                "entry": [
                  {
                    "reference": "urn:uuid:022894e7-bbb5-47af-b597-8c35fcc23a81"
                  },
                  {
                    "reference": "urn:uuid:01721d18-abc2-4448-950f-b13976c5a2c6"
                  },
                  {
                    "reference": "urn:uuid:88256c4f-bc4e-4f51-b718-2477ef202814"
                  },
                  {
                    "reference": "urn:uuid:40a23f5c-081e-4d87-85e5-f242c04e8fae"
                  },
                  {
                    "reference": "urn:uuid:847b0a53-2614-4ab6-8b1c-b0a84cd1cf51"
                  },
                  {
                    "reference": "urn:uuid:6bad872d-9698-41f5-b624-847859d9890c"
                  },
                  {
                    "reference": "urn:uuid:7d37539f-cac5-43be-8bcf-c37e505aae91"
                  },
                  {
                    "reference": "urn:uuid:36a7592a-54be-4f6d-8aca-9a980417d04c"
                  },
                  {
                    "reference": "urn:uuid:237fdf07-6f80-4dfc-aff1-e41491e65b78"
                  },
                  {
                    "reference": "urn:uuid:c783ae63-93bf-4ae3-b70d-8ba7a515ff80"
                  },
                  {
                    "reference": "urn:uuid:8f3ae8ef-40aa-4bfd-a45d-fa7b95cb8cb0"
                  },
                  {
                    "reference": "urn:uuid:38a464dc-25c0-40d3-8f72-dd50bec3754f"
                  },
                  {
                    "reference": "urn:uuid:f38d6389-fdf3-4ffb-98a3-6e361b5e92cf"
                  },
                  {
                    "reference": "urn:uuid:801294c9-8e86-435e-a705-28d128e711d9"
                  }
                ],
                "text": {
                  "status": "generated",
                  "div": "<div xmlns=\"http://www.w3.org/1999/xhtml\"><h3>Chemistry</h3><table class=\"hl7__eu__lab__report\"><thead><tr><th>Test</th><th>19-JUL-2019</th><th>Reference&#xA0;Range</th><th>Unit</th></tr></thead><tbody><tr><td>Hemoglobin A1c/Hemoglobin.total in Blood</td><td><strong>7.0 H</strong></td><td>4 - 6</td><td>%</td></tr><tr><td>Glucose [Mass/volume] in Blood</td><td>111.9</td><td>70 - 140</td><td>mg/dL</td></tr><tr><td>Urea nitrogen [Mass/volume] in Blood</td><td>15.7</td><td>7 - 25</td><td>mg/dL</td></tr><tr><td>Creatinine [Mass/volume] in Blood</td><td>0.7</td><td>0.6 - 1.1</td><td>mg/dL</td></tr><tr><td>Calcium [Mass/volume] in Blood</td><td>9.9</td><td>8.5 - 10.4</td><td>mg/dL</td></tr><tr><td>Sodium [Moles/volume] in Blood</td><td>140.9</td><td>135 - 145</td><td>mmol/L</td></tr><tr><td>Potassium [Moles/volume] in Blood</td><td>4.8</td><td>3.5 - 5.1</td><td>mmol/L</td></tr><tr><td>Chloride [Moles/volume] in Blood</td><td>101.2</td><td>98 - 107</td><td>mmol/L</td></tr><tr><td>Carbon dioxide, total [Moles/volume] in Blood</td><td><strong>20.4 L</strong></td><td>22 - 29</td><td>mmol/L</td></tr><tr><td>Cholesterol [Mass/volume] in Serum or Plasma</td><td><strong>206.2 H</strong></td><td>125 - 200</td><td>mg/dL</td></tr><tr><td>Triglyceride [Mass/volume] in Serum or Plasma</td><td><strong>168.1 H</strong></td><td>35 - 150</td><td>mg/dL</td></tr><tr><td>Cholesterol in LDL [Mass/volume] in Serum or Plasma by Direct assay</td><td><strong>132.4 H</strong></td><td>0 - 130</td><td>mg/dL</td></tr><tr><td>Cholesterol in HDL [Mass/volume] in Serum or Plasma</td><td>40.1</td><td>40 - 100</td><td>mg/dL</td></tr><tr><td>Microalbumin/Creatinine [Mass Ratio] in Urine</td><td>9.4</td><td>0 - 30</td><td>mg/g</td></tr></tbody></table></div>"
                },
                "title": "Chemistry"
              }
            ],
            "title": "Laboratory Report"
          },
          {
            "text": {
              "status": "generated",
              "div": "<div xmlns=\"http://www.w3.org/1999/xhtml\"><h3>Annotation</h3><table class=\"hl7__eu__lab__report\"><tr><th>Conclusion and Recommendations based on this report and previous findings known to us</th></tr><tr><td>The patient shows poor glycemic control (elevated HbA1c), mild dyslipidemia (high total cholesterol, LDL, and triglycerides), and low total CO₂, which may suggest mild metabolic acidosis. Renal function and electrolytes are within normal limits, and there is no evidence of microalbuminuria. Recommend optimization of diabetes and lipid management and further evaluation of acid-base status if clinically indicated.</td></tr></table></div>"
            },
            "code": {
              "coding": [
                {
                  "system": "http://loinc.org",
                  "code": "48767-8",
                  "display": "Annotation comment"
                }
              ]
            },
            "title": "Annotation comment"
          }
        ],
        "status": "final",
        "subject": {
          "reference": "urn:uuid:ba68bd0c-b2a8-4d95-a70a-3530c0a45617",
          "display": "Martine Couturier"
        },
        "date": "2019-07-19T22:13:15Z",
        "title": "Laboratory Report",
        "confidentiality": "N"
      }
    },
    {
      "fullUrl": "urn:uuid:80d15aa8-d6b9-451a-8c13-a55ddb600a02",
      "resource": {
        "resourceType": "DiagnosticReport",
        "id": "80d15aa8-d6b9-451a-8c13-a55ddb600a02",
        "meta": {
          "profile": [
            "http://hl7.eu/fhir/laboratory/StructureDefinition/DiagnosticReport-eu-lab"
          ]
        },
        "identifier": [
          {
            "assigner": {
              "display": "HL7 Europe"
            },
            "system": "urn:oid:2.16.840.1.113883.2.51.999",
            "value": "254d0a2d-ba2f-438b-a3e4-affc36461c38"
          }
        ],
        "extension": [
          {
            "url": "http://hl7.org/fhir/5.0/StructureDefinition/extension-DiagnosticReport.composition",
            "valueReference": {
              "reference": "urn:uuid:02d57f65-2808-4dea-a9f2-1920c865052e"
            }
          }
        ],
        "category": [
          {
            "coding": [
              {
                "code": "26436-6",
                "system": "http://loinc.org",
                "display": "Laboratory studies (set)"
              }
            ]
          }
        ],
        "specimen": [
          {
            "reference": "urn:uuid:eba058af-b740-4645-84a2-29db89fafa36"
          },
          {
            "reference": "urn:uuid:eee25160-7eeb-43d3-99b1-b0f7ed2fb0e7"
          },
          {
            "reference": "urn:uuid:c91da0b9-ed6e-45e2-ac62-2a0915903b72"
          }
        ],
        "result": [
          {
            "reference": "urn:uuid:022894e7-bbb5-47af-b597-8c35fcc23a81"
          },
          {
            "reference": "urn:uuid:01721d18-abc2-4448-950f-b13976c5a2c6"
          },
          {
            "reference": "urn:uuid:88256c4f-bc4e-4f51-b718-2477ef202814"
          },
          {
            "reference": "urn:uuid:40a23f5c-081e-4d87-85e5-f242c04e8fae"
          },
          {
            "reference": "urn:uuid:847b0a53-2614-4ab6-8b1c-b0a84cd1cf51"
          },
          {
            "reference": "urn:uuid:6bad872d-9698-41f5-b624-847859d9890c"
          },
          {
            "reference": "urn:uuid:7d37539f-cac5-43be-8bcf-c37e505aae91"
          },
          {
            "reference": "urn:uuid:36a7592a-54be-4f6d-8aca-9a980417d04c"
          },
          {
            "reference": "urn:uuid:237fdf07-6f80-4dfc-aff1-e41491e65b78"
          },
          {
            "reference": "urn:uuid:c783ae63-93bf-4ae3-b70d-8ba7a515ff80"
          },
          {
            "reference": "urn:uuid:8f3ae8ef-40aa-4bfd-a45d-fa7b95cb8cb0"
          },
          {
            "reference": "urn:uuid:38a464dc-25c0-40d3-8f72-dd50bec3754f"
          },
          {
            "reference": "urn:uuid:f38d6389-fdf3-4ffb-98a3-6e361b5e92cf"
          },
          {
            "reference": "urn:uuid:801294c9-8e86-435e-a705-28d128e711d9"
          }
        ],
        "status": "registered",
        "code": {
          "coding": [
            {
              "code": "11502-2",
              "system": "http://loinc.org",
              "display": "Laboratory report"
            }
          ]
        },
        "subject": {
          "reference": "urn:uuid:ba68bd0c-b2a8-4d95-a70a-3530c0a45617",
          "display": "Martine Couturier"
        }
      }
    },
    {
      "fullUrl": "urn:uuid:ba68bd0c-b2a8-4d95-a70a-3530c0a45617",
      "resource": {
        "resourceType": "Patient",
        "id": "ba68bd0c-b2a8-4d95-a70a-3530c0a45617",
        "meta": {
          "security": [
            {
              "system": "http://terminology.hl7.org/CodeSystem/v3-ActReason",
              "code": "HTEST"
            },
            {
              "system": "http://terminology.hl7.org/CodeSystem/v3-ActReason",
              "code": "TRAIN"
            }
          ],
          "tag": [
            {
              "system": "https://synderai.net/fhir/CodeSystem/tags",
              "code": "synthetic",
              "display": "SYNDERAI Synthetic data"
            }
          ],
          "profile": [
            "http://hl7.eu/fhir/base/StructureDefinition/patient-eu-core"
          ]
        },
        "identifier": [
          {
            "type": {
              "coding": [
                {
                  "code": "PT",
                  "system": "http://terminology.hl7.org/CodeSystem/v2-0203"
                }
              ]
            },
            "system": "http://ec.europa.eu/identifier/eci",
            "value": "6614-983327-0"
          },
          {
            "type": {
              "coding": [
                {
                  "code": "MR",
                  "system": "http://terminology.hl7.org/CodeSystem/v2-0203"
                }
              ]
            },
            "system": "http://local.setting.eu/identifier",
            "value": "decdc04d-a1c8-929f-4aad-63136dd70efd"
          }
        ],
        "name": [
          {
            "family": "Couturier"
          },
          {
            "given": [
              "Martine"
            ]
          },
          {
            "text": "Martine Couturier"
          }
        ],
        "address": [
          {
            "line": [
              "458, rue de Bègue"
            ],
            "use": "home",
            "type": "physical",
            "postalCode": "03110",
            "city": "Boutin",
            "country": "France"
          }
        ],
        "telecom": [
          {
            "system": "phone",
            "value": "+33 4 11 66 35 81"
          }
        ],
        "extension": [
          {
            "url": "http://hl7.org/fhir/StructureDefinition/patient-nationality",
            "valueCodeableConcept": {
              "coding": [
                {
                  "code": "FR",
                  "system": "http://hl7.org/fhir/ValueSet/country"
                }
              ]
            }
          }
        ],
        "text": {
          "status": "generated",
          "div": "<div xmlns=\"http://www.w3.org/1999/xhtml\"><table class=\"hl7__ips\"><tr><td>Martine Couturier</td><td>female</td><td>13-Nov-1961</td></tr></table></div>"
        },
        "gender": "female",
        "birthDate": "1961-11-13"
      }
    },
    {
      "fullUrl": "urn:uuid:6a5c799b-a028-4a96-945a-be0c15e5b35a",
      "resource": {
        "resourceType": "ServiceRequest",
        "id": "6a5c799b-a028-4a96-945a-be0c15e5b35a",
        "meta": {
          "profile": [
            "http://hl7.eu/fhir/laboratory/StructureDefinition/ServiceRequest-eu-lab"
          ]
        },
        "identifier": [
          {
            "system": "http://example.org",
            "value": "a567bc8f-1143-4518-95d7-6ad00a5158a7"
          }
        ],
        "specimen": [
          {
            "reference": "urn:uuid:eba058af-b740-4645-84a2-29db89fafa36"
          },
          {
            "reference": "urn:uuid:eee25160-7eeb-43d3-99b1-b0f7ed2fb0e7"
          },
          {
            "reference": "urn:uuid:c91da0b9-ed6e-45e2-ac62-2a0915903b72"
          }
        ],
        "reasonCode": [
          {
            "coding": [
              {
                "code": "368581000119106",
                "system": "http://snomed.info/sct",
                "display": "Neuropathy due to type 2 diabetes mellitus"
              }
            ]
          },
          {
            "coding": [
              {
                "code": "302870006",
                "system": "http://snomed.info/sct",
                "display": "Hypertriglyceridemia"
              }
            ]
          },
          {
            "coding": [
              {
                "code": "44054006",
                "system": "http://snomed.info/sct",
                "display": "Type 2 diabetes mellitus"
              }
            ]
          },
          {
            "coding": [
              {
                "code": "237602007",
                "system": "http://snomed.info/sct",
                "display": "Metabolic syndrome X"
              }
            ]
          },
          {
            "coding": [
              {
                "code": "271737000",
                "system": "http://snomed.info/sct",
                "display": "Anemia"
              }
            ]
          },
          {
            "coding": [
              {
                "code": "15777000",
                "system": "http://snomed.info/sct",
                "display": "Prediabetes"
              }
            ]
          }
        ],
        "status": "active",
        "intent": "order",
        "code": {
          "coding": [
            {
              "code": "108252007",
              "system": "http://snomed.info/sct",
              "display": "Laboratory procedure"
            }
          ]
        },
        "subject": {
          "reference": "urn:uuid:ba68bd0c-b2a8-4d95-a70a-3530c0a45617",
          "display": "Martine Couturier"
        },
        "requester": {
          "reference": "urn:uuid:94dcb1cc-d248-4658-a079-4a5a38cae8d6"
        }
      }
    },
    {
      "fullUrl": "urn:uuid:94dcb1cc-d248-4658-a079-4a5a38cae8d6",
      "resource": {
        "resourceType": "PractitionerRole",
        "id": "94dcb1cc-d248-4658-a079-4a5a38cae8d6",
        "meta": {
          "profile": [
            "http://hl7.eu/fhir/base/StructureDefinition/practitionerRole-eu"
          ]
        },
        "text": {
          "status": "generated",
          "div": "<div xmlns=\"http://www.w3.org/1999/xhtml\">Provider Role Id: 94dcb1cc-d248-4658-a079-4a5a38cae8d6</div>"
        },
        "organization": {
          "reference": "urn:uuid:945bbcc3-d6ff-49ab-9802-0a1846bd49ef"
        }
      }
    },
    {
      "fullUrl": "urn:uuid:945bbcc3-d6ff-49ab-9802-0a1846bd49ef",
      "resource": {
        "resourceType": "Organization",
        "id": "945bbcc3-d6ff-49ab-9802-0a1846bd49ef",
        "meta": {
          "profile": [
            "http://hl7.eu/fhir/base/StructureDefinition/organization-eu"
          ]
        },
        "identifier": [
          {
            "assigner": {
              "display": "HL7 Europe"
            },
            "system": "urn:oid:2.16.840.1.113883.2.51.999",
            "value": "3eefa7ef-3fc7-4cc7-a036-6fa1a0a0c8f0"
          }
        ],
        "address": [
          {
            "line": [
              "Boulevard Denière 1"
            ],
            "city": "Vichy",
            "postalCode": "03200",
            "country": "France"
          }
        ],
        "text": {
          "status": "generated",
          "div": "<div xmlns=\"http://www.w3.org/1999/xhtml\">Provider Organization: Centre hospitalier Jacques Lacarin</div>"
        },
        "name": "Centre hospitalier Jacques Lacarin"
      }
    },
    {
      "fullUrl": "urn:uuid:eba058af-b740-4645-84a2-29db89fafa36",
      "resource": {
        "resourceType": "Specimen",
        "id": "eba058af-b740-4645-84a2-29db89fafa36",
        "meta": {
          "profile": [
            "http://hl7.eu/fhir/laboratory/StructureDefinition/Specimen-eu-lab"
          ]
        },
        "collection": {
          "collectedDateTime": "2019-07-19"
        },
        "text": {
          "status": "generated",
          "div": "<div xmlns=\"http://www.w3.org/1999/xhtml\"><table class=\"hl7__eu__lab__report\"><tr><th>Specimen</th><th>Collection Date</th></tr><tr><td>Whole blood specimen (specimen)</td><td><span class=\"nb\">19-Jul-2019</span></td></tr></table></div>"
        },
        "type": {
          "coding": [
            {
              "code": "258580003",
              "system": "http://snomed.info/sct",
              "display": "Whole blood specimen (specimen)"
            }
          ]
        }
      }
    },
    {
      "fullUrl": "urn:uuid:eee25160-7eeb-43d3-99b1-b0f7ed2fb0e7",
      "resource": {
        "resourceType": "Specimen",
        "id": "eee25160-7eeb-43d3-99b1-b0f7ed2fb0e7",
        "meta": {
          "profile": [
            "http://hl7.eu/fhir/laboratory/StructureDefinition/Specimen-eu-lab"
          ]
        },
        "collection": {
          "collectedDateTime": "2019-07-19"
        },
        "text": {
          "status": "generated",
          "div": "<div xmlns=\"http://www.w3.org/1999/xhtml\"><table class=\"hl7__eu__lab__report\"><tr><th>Specimen</th><th>Collection Date</th></tr><tr><td>Acellular blood (serum or plasma) specimen</td><td><span class=\"nb\">19-Jul-2019</span></td></tr></table></div>"
        },
        "type": {
          "coding": [
            {
              "code": "122592007",
              "system": "http://snomed.info/sct",
              "display": "Acellular blood (serum or plasma) specimen"
            }
          ]
        }
      }
    },
    {
      "fullUrl": "urn:uuid:c91da0b9-ed6e-45e2-ac62-2a0915903b72",
      "resource": {
        "resourceType": "Specimen",
        "id": "c91da0b9-ed6e-45e2-ac62-2a0915903b72",
        "meta": {
          "profile": [
            "http://hl7.eu/fhir/laboratory/StructureDefinition/Specimen-eu-lab"
          ]
        },
        "collection": {
          "collectedDateTime": "2019-07-19"
        },
        "text": {
          "status": "generated",
          "div": "<div xmlns=\"http://www.w3.org/1999/xhtml\"><table class=\"hl7__eu__lab__report\"><tr><th>Specimen</th><th>Collection Date</th></tr><tr><td>Urine specimen</td><td><span class=\"nb\">19-Jul-2019</span></td></tr></table></div>"
        },
        "type": {
          "coding": [
            {
              "code": "122575003",
              "system": "http://snomed.info/sct",
              "display": "Urine specimen"
            }
          ]
        }
      }
    },
    {
      "fullUrl": "urn:uuid:022894e7-bbb5-47af-b597-8c35fcc23a81",
      "resource": {
        "resourceType": "Observation",
        "id": "022894e7-bbb5-47af-b597-8c35fcc23a81",
        "meta": {
          "profile": [
            "http://hl7.eu/fhir/laboratory/StructureDefinition/Observation-resultslab-eu-lab"
          ]
        },
        "performer": [
          {
            "display": "The Central European Lab"
          }
        ],
        "category": [
          {
            "coding": [
              {
                "system": "http://terminology.hl7.org/CodeSystem/observation-category",
                "code": "laboratory"
              }
            ]
          }
        ],
        "code": {
          "coding": [
            {
              "code": "4548-4",
              "system": "http://loinc.org",
              "display": "Hemoglobin A1c/Hemoglobin.total in Blood"
            }
          ],
          "text": "Hemoglobin A1c/Hemoglobin.total in Blood"
        },
        "valueQuantity": {
          "system": "http://unitsofmeasure.org",
          "value": 7,
          "unit": "%",
          "code": "%"
        },
        "referenceRange": [
          {
            "low": {
              "value": 4,
              "code": "%",
              "system": "http://unitsofmeasure.org"
            }
          },
          {
            "high": {
              "value": 6,
              "code": "%",
              "system": "http://unitsofmeasure.org"
            }
          }
        ],
        "interpretation": [
          {
            "coding": [
              {
                "code": "H",
                "system": "http://terminology.hl7.org/CodeSystem/v3-ObservationInterpretation",
                "display": "High"
              }
            ]
          }
        ],
        "text": {
          "status": "generated",
          "div": "<div xmlns=\"http://www.w3.org/1999/xhtml\"><table class=\"hl7__eu__lab__report\"><tr><th>Test</th><th>19-Jul-2019</th><th>Reference&#xA0;Range</th><th>Unit</th></tr><tr><td>Hemoglobin A1c/Hemoglobin.total in Blood</td><td>7.0</td><td>4 - 6</td><td>H</td><td>%</td></tr></table></div>"
        },
        "status": "final",
        "subject": {
          "reference": "urn:uuid:ba68bd0c-b2a8-4d95-a70a-3530c0a45617",
          "display": "Martine Couturier"
        },
        "effectiveDateTime": "2019-07-19T20:13:15Z",
        "specimen": {
          "reference": "urn:uuid:eba058af-b740-4645-84a2-29db89fafa36"
        }
      }
    },
    {
      "fullUrl": "urn:uuid:01721d18-abc2-4448-950f-b13976c5a2c6",
      "resource": {
        "resourceType": "Observation",
        "id": "01721d18-abc2-4448-950f-b13976c5a2c6",
        "meta": {
          "profile": [
            "http://hl7.eu/fhir/laboratory/StructureDefinition/Observation-resultslab-eu-lab"
          ]
        },
        "performer": [
          {
            "display": "The Central European Lab"
          }
        ],
        "category": [
          {
            "coding": [
              {
                "system": "http://terminology.hl7.org/CodeSystem/observation-category",
                "code": "laboratory"
              }
            ]
          }
        ],
        "code": {
          "coding": [
            {
              "code": "2339-0",
              "system": "http://loinc.org",
              "display": "Glucose [Mass/volume] in Blood"
            }
          ],
          "text": "Glucose [Mass/volume] in Blood"
        },
        "valueQuantity": {
          "system": "http://unitsofmeasure.org",
          "value": 111.9,
          "unit": "mg/dL",
          "code": "mg/dL"
        },
        "referenceRange": [
          {
            "low": {
              "value": 70,
              "code": "mg/dL",
              "system": "http://unitsofmeasure.org"
            }
          },
          {
            "high": {
              "value": 140,
              "code": "mg/dL",
              "system": "http://unitsofmeasure.org"
            }
          }
        ],
        "text": {
          "status": "generated",
          "div": "<div xmlns=\"http://www.w3.org/1999/xhtml\"><table class=\"hl7__eu__lab__report\"><tr><th>Test</th><th>19-Jul-2019</th><th>Reference&#xA0;Range</th><th>Unit</th></tr><tr><td>Glucose [Mass/volume] in Blood</td><td>111.9</td><td>70 - 140</td><td></td><td>mg/dL</td></tr></table></div>"
        },
        "status": "final",
        "subject": {
          "reference": "urn:uuid:ba68bd0c-b2a8-4d95-a70a-3530c0a45617",
          "display": "Martine Couturier"
        },
        "effectiveDateTime": "2019-07-19T20:13:15Z",
        "specimen": {
          "reference": "urn:uuid:eba058af-b740-4645-84a2-29db89fafa36"
        }
      }
    },
    {
      "fullUrl": "urn:uuid:88256c4f-bc4e-4f51-b718-2477ef202814",
      "resource": {
        "resourceType": "Observation",
        "id": "88256c4f-bc4e-4f51-b718-2477ef202814",
        "meta": {
          "profile": [
            "http://hl7.eu/fhir/laboratory/StructureDefinition/Observation-resultslab-eu-lab"
          ]
        },
        "performer": [
          {
            "display": "The Central European Lab"
          }
        ],
        "category": [
          {
            "coding": [
              {
                "system": "http://terminology.hl7.org/CodeSystem/observation-category",
                "code": "laboratory"
              }
            ]
          }
        ],
        "code": {
          "coding": [
            {
              "code": "6299-2",
              "system": "http://loinc.org",
              "display": "Urea nitrogen [Mass/volume] in Blood"
            }
          ],
          "text": "Urea nitrogen [Mass/volume] in Blood"
        },
        "valueQuantity": {
          "system": "http://unitsofmeasure.org",
          "value": 15.7,
          "unit": "mg/dL",
          "code": "mg/dL"
        },
        "referenceRange": [
          {
            "low": {
              "value": 7,
              "code": "mg/dL",
              "system": "http://unitsofmeasure.org"
            }
          },
          {
            "high": {
              "value": 25,
              "code": "mg/dL",
              "system": "http://unitsofmeasure.org"
            }
          }
        ],
        "text": {
          "status": "generated",
          "div": "<div xmlns=\"http://www.w3.org/1999/xhtml\"><table class=\"hl7__eu__lab__report\"><tr><th>Test</th><th>19-Jul-2019</th><th>Reference&#xA0;Range</th><th>Unit</th></tr><tr><td>Urea nitrogen [Mass/volume] in Blood</td><td>15.7</td><td>7 - 25</td><td></td><td>mg/dL</td></tr></table></div>"
        },
        "status": "final",
        "subject": {
          "reference": "urn:uuid:ba68bd0c-b2a8-4d95-a70a-3530c0a45617",
          "display": "Martine Couturier"
        },
        "effectiveDateTime": "2019-07-19T20:13:15Z",
        "specimen": {
          "reference": "urn:uuid:eba058af-b740-4645-84a2-29db89fafa36"
        }
      }
    },
    {
      "fullUrl": "urn:uuid:40a23f5c-081e-4d87-85e5-f242c04e8fae",
      "resource": {
        "resourceType": "Observation",
        "id": "40a23f5c-081e-4d87-85e5-f242c04e8fae",
        "meta": {
          "profile": [
            "http://hl7.eu/fhir/laboratory/StructureDefinition/Observation-resultslab-eu-lab"
          ]
        },
        "performer": [
          {
            "display": "The Central European Lab"
          }
        ],
        "category": [
          {
            "coding": [
              {
                "system": "http://terminology.hl7.org/CodeSystem/observation-category",
                "code": "laboratory"
              }
            ]
          }
        ],
        "code": {
          "coding": [
            {
              "code": "38483-4",
              "system": "http://loinc.org",
              "display": "Creatinine [Mass/volume] in Blood"
            }
          ],
          "text": "Creatinine [Mass/volume] in Blood"
        },
        "valueQuantity": {
          "system": "http://unitsofmeasure.org",
          "value": 0.7,
          "unit": "mg/dL",
          "code": "mg/dL"
        },
        "referenceRange": [
          {
            "low": {
              "value": 0.6,
              "code": "mg/dL",
              "system": "http://unitsofmeasure.org"
            }
          },
          {
            "high": {
              "value": 1.1,
              "code": "mg/dL",
              "system": "http://unitsofmeasure.org"
            }
          }
        ],
        "text": {
          "status": "generated",
          "div": "<div xmlns=\"http://www.w3.org/1999/xhtml\"><table class=\"hl7__eu__lab__report\"><tr><th>Test</th><th>19-Jul-2019</th><th>Reference&#xA0;Range</th><th>Unit</th></tr><tr><td>Creatinine [Mass/volume] in Blood</td><td>0.7</td><td>0.6 - 1.1</td><td></td><td>mg/dL</td></tr></table></div>"
        },
        "status": "final",
        "subject": {
          "reference": "urn:uuid:ba68bd0c-b2a8-4d95-a70a-3530c0a45617",
          "display": "Martine Couturier"
        },
        "effectiveDateTime": "2019-07-19T20:13:15Z",
        "specimen": {
          "reference": "urn:uuid:eba058af-b740-4645-84a2-29db89fafa36"
        }
      }
    },
    {
      "fullUrl": "urn:uuid:847b0a53-2614-4ab6-8b1c-b0a84cd1cf51",
      "resource": {
        "resourceType": "Observation",
        "id": "847b0a53-2614-4ab6-8b1c-b0a84cd1cf51",
        "meta": {
          "profile": [
            "http://hl7.eu/fhir/laboratory/StructureDefinition/Observation-resultslab-eu-lab"
          ]
        },
        "performer": [
          {
            "display": "The Central European Lab"
          }
        ],
        "category": [
          {
            "coding": [
              {
                "system": "http://terminology.hl7.org/CodeSystem/observation-category",
                "code": "laboratory"
              }
            ]
          }
        ],
        "code": {
          "coding": [
            {
              "code": "49765-1",
              "system": "http://loinc.org",
              "display": "Calcium [Mass/volume] in Blood"
            }
          ],
          "text": "Calcium [Mass/volume] in Blood"
        },
        "valueQuantity": {
          "system": "http://unitsofmeasure.org",
          "value": 9.9,
          "unit": "mg/dL",
          "code": "mg/dL"
        },
        "referenceRange": [
          {
            "low": {
              "value": 8.5,
              "code": "mg/dL",
              "system": "http://unitsofmeasure.org"
            }
          },
          {
            "high": {
              "value": 10.4,
              "code": "mg/dL",
              "system": "http://unitsofmeasure.org"
            }
          }
        ],
        "text": {
          "status": "generated",
          "div": "<div xmlns=\"http://www.w3.org/1999/xhtml\"><table class=\"hl7__eu__lab__report\"><tr><th>Test</th><th>19-Jul-2019</th><th>Reference&#xA0;Range</th><th>Unit</th></tr><tr><td>Calcium [Mass/volume] in Blood</td><td>9.9</td><td>8.5 - 10.4</td><td></td><td>mg/dL</td></tr></table></div>"
        },
        "status": "final",
        "subject": {
          "reference": "urn:uuid:ba68bd0c-b2a8-4d95-a70a-3530c0a45617",
          "display": "Martine Couturier"
        },
        "effectiveDateTime": "2019-07-19T20:13:15Z",
        "specimen": {
          "reference": "urn:uuid:eba058af-b740-4645-84a2-29db89fafa36"
        }
      }
    },
    {
      "fullUrl": "urn:uuid:6bad872d-9698-41f5-b624-847859d9890c",
      "resource": {
        "resourceType": "Observation",
        "id": "6bad872d-9698-41f5-b624-847859d9890c",
        "meta": {
          "profile": [
            "http://hl7.eu/fhir/laboratory/StructureDefinition/Observation-resultslab-eu-lab"
          ]
        },
        "performer": [
          {
            "display": "The Central European Lab"
          }
        ],
        "category": [
          {
            "coding": [
              {
                "system": "http://terminology.hl7.org/CodeSystem/observation-category",
                "code": "laboratory"
              }
            ]
          }
        ],
        "code": {
          "coding": [
            {
              "code": "2947-0",
              "system": "http://loinc.org",
              "display": "Sodium [Moles/volume] in Blood"
            }
          ],
          "text": "Sodium [Moles/volume] in Blood"
        },
        "valueQuantity": {
          "system": "http://unitsofmeasure.org",
          "value": 140.9,
          "unit": "mmol/L",
          "code": "mmol/L"
        },
        "referenceRange": [
          {
            "low": {
              "value": 135,
              "code": "mmol/L",
              "system": "http://unitsofmeasure.org"
            }
          },
          {
            "high": {
              "value": 145,
              "code": "mmol/L",
              "system": "http://unitsofmeasure.org"
            }
          }
        ],
        "text": {
          "status": "generated",
          "div": "<div xmlns=\"http://www.w3.org/1999/xhtml\"><table class=\"hl7__eu__lab__report\"><tr><th>Test</th><th>19-Jul-2019</th><th>Reference&#xA0;Range</th><th>Unit</th></tr><tr><td>Sodium [Moles/volume] in Blood</td><td>140.9</td><td>135 - 145</td><td></td><td>mmol/L</td></tr></table></div>"
        },
        "status": "final",
        "subject": {
          "reference": "urn:uuid:ba68bd0c-b2a8-4d95-a70a-3530c0a45617",
          "display": "Martine Couturier"
        },
        "effectiveDateTime": "2019-07-19T20:13:15Z",
        "specimen": {
          "reference": "urn:uuid:eba058af-b740-4645-84a2-29db89fafa36"
        }
      }
    },
    {
      "fullUrl": "urn:uuid:7d37539f-cac5-43be-8bcf-c37e505aae91",
      "resource": {
        "resourceType": "Observation",
        "id": "7d37539f-cac5-43be-8bcf-c37e505aae91",
        "meta": {
          "profile": [
            "http://hl7.eu/fhir/laboratory/StructureDefinition/Observation-resultslab-eu-lab"
          ]
        },
        "performer": [
          {
            "display": "The Central European Lab"
          }
        ],
        "category": [
          {
            "coding": [
              {
                "system": "http://terminology.hl7.org/CodeSystem/observation-category",
                "code": "laboratory"
              }
            ]
          }
        ],
        "code": {
          "coding": [
            {
              "code": "6298-4",
              "system": "http://loinc.org",
              "display": "Potassium [Moles/volume] in Blood"
            }
          ],
          "text": "Potassium [Moles/volume] in Blood"
        },
        "valueQuantity": {
          "system": "http://unitsofmeasure.org",
          "value": 4.8,
          "unit": "mmol/L",
          "code": "mmol/L"
        },
        "referenceRange": [
          {
            "low": {
              "value": 3.5,
              "code": "mmol/L",
              "system": "http://unitsofmeasure.org"
            }
          },
          {
            "high": {
              "value": 5.1,
              "code": "mmol/L",
              "system": "http://unitsofmeasure.org"
            }
          }
        ],
        "text": {
          "status": "generated",
          "div": "<div xmlns=\"http://www.w3.org/1999/xhtml\"><table class=\"hl7__eu__lab__report\"><tr><th>Test</th><th>19-Jul-2019</th><th>Reference&#xA0;Range</th><th>Unit</th></tr><tr><td>Potassium [Moles/volume] in Blood</td><td>4.8</td><td>3.5 - 5.1</td><td></td><td>mmol/L</td></tr></table></div>"
        },
        "status": "final",
        "subject": {
          "reference": "urn:uuid:ba68bd0c-b2a8-4d95-a70a-3530c0a45617",
          "display": "Martine Couturier"
        },
        "effectiveDateTime": "2019-07-19T20:13:15Z",
        "specimen": {
          "reference": "urn:uuid:eba058af-b740-4645-84a2-29db89fafa36"
        }
      }
    },
    {
      "fullUrl": "urn:uuid:36a7592a-54be-4f6d-8aca-9a980417d04c",
      "resource": {
        "resourceType": "Observation",
        "id": "36a7592a-54be-4f6d-8aca-9a980417d04c",
        "meta": {
          "profile": [
            "http://hl7.eu/fhir/laboratory/StructureDefinition/Observation-resultslab-eu-lab"
          ]
        },
        "performer": [
          {
            "display": "The Central European Lab"
          }
        ],
        "category": [
          {
            "coding": [
              {
                "system": "http://terminology.hl7.org/CodeSystem/observation-category",
                "code": "laboratory"
              }
            ]
          }
        ],
        "code": {
          "coding": [
            {
              "code": "2069-3",
              "system": "http://loinc.org",
              "display": "Chloride [Moles/volume] in Blood"
            }
          ],
          "text": "Chloride [Moles/volume] in Blood"
        },
        "valueQuantity": {
          "system": "http://unitsofmeasure.org",
          "value": 101.2,
          "unit": "mmol/L",
          "code": "mmol/L"
        },
        "referenceRange": [
          {
            "low": {
              "value": 98,
              "code": "mmol/L",
              "system": "http://unitsofmeasure.org"
            }
          },
          {
            "high": {
              "value": 107,
              "code": "mmol/L",
              "system": "http://unitsofmeasure.org"
            }
          }
        ],
        "text": {
          "status": "generated",
          "div": "<div xmlns=\"http://www.w3.org/1999/xhtml\"><table class=\"hl7__eu__lab__report\"><tr><th>Test</th><th>19-Jul-2019</th><th>Reference&#xA0;Range</th><th>Unit</th></tr><tr><td>Chloride [Moles/volume] in Blood</td><td>101.2</td><td>98 - 107</td><td></td><td>mmol/L</td></tr></table></div>"
        },
        "status": "final",
        "subject": {
          "reference": "urn:uuid:ba68bd0c-b2a8-4d95-a70a-3530c0a45617",
          "display": "Martine Couturier"
        },
        "effectiveDateTime": "2019-07-19T20:13:15Z",
        "specimen": {
          "reference": "urn:uuid:eba058af-b740-4645-84a2-29db89fafa36"
        }
      }
    },
    {
      "fullUrl": "urn:uuid:237fdf07-6f80-4dfc-aff1-e41491e65b78",
      "resource": {
        "resourceType": "Observation",
        "id": "237fdf07-6f80-4dfc-aff1-e41491e65b78",
        "meta": {
          "profile": [
            "http://hl7.eu/fhir/laboratory/StructureDefinition/Observation-resultslab-eu-lab"
          ]
        },
        "performer": [
          {
            "display": "The Central European Lab"
          }
        ],
        "category": [
          {
            "coding": [
              {
                "system": "http://terminology.hl7.org/CodeSystem/observation-category",
                "code": "laboratory"
              }
            ]
          }
        ],
        "code": {
          "coding": [
            {
              "code": "20565-8",
              "system": "http://loinc.org",
              "display": "Carbon dioxide, total [Moles/volume] in Blood"
            }
          ],
          "text": "Carbon dioxide, total [Moles/volume] in Blood"
        },
        "valueQuantity": {
          "system": "http://unitsofmeasure.org",
          "value": 20.4,
          "unit": "mmol/L",
          "code": "mmol/L"
        },
        "referenceRange": [
          {
            "low": {
              "value": 22,
              "code": "mmol/L",
              "system": "http://unitsofmeasure.org"
            }
          },
          {
            "high": {
              "value": 29,
              "code": "mmol/L",
              "system": "http://unitsofmeasure.org"
            }
          }
        ],
        "interpretation": [
          {
            "coding": [
              {
                "code": "L",
                "system": "http://terminology.hl7.org/CodeSystem/v3-ObservationInterpretation",
                "display": "Low"
              }
            ]
          }
        ],
        "text": {
          "status": "generated",
          "div": "<div xmlns=\"http://www.w3.org/1999/xhtml\"><table class=\"hl7__eu__lab__report\"><tr><th>Test</th><th>19-Jul-2019</th><th>Reference&#xA0;Range</th><th>Unit</th></tr><tr><td>Carbon dioxide, total [Moles/volume] in Blood</td><td>20.4</td><td>22 - 29</td><td>L</td><td>mmol/L</td></tr></table></div>"
        },
        "status": "final",
        "subject": {
          "reference": "urn:uuid:ba68bd0c-b2a8-4d95-a70a-3530c0a45617",
          "display": "Martine Couturier"
        },
        "effectiveDateTime": "2019-07-19T20:13:15Z",
        "specimen": {
          "reference": "urn:uuid:eba058af-b740-4645-84a2-29db89fafa36"
        }
      }
    },
    {
      "fullUrl": "urn:uuid:c783ae63-93bf-4ae3-b70d-8ba7a515ff80",
      "resource": {
        "resourceType": "Observation",
        "id": "c783ae63-93bf-4ae3-b70d-8ba7a515ff80",
        "meta": {
          "profile": [
            "http://hl7.eu/fhir/laboratory/StructureDefinition/Observation-resultslab-eu-lab"
          ]
        },
        "performer": [
          {
            "display": "The Central European Lab"
          }
        ],
        "category": [
          {
            "coding": [
              {
                "system": "http://terminology.hl7.org/CodeSystem/observation-category",
                "code": "laboratory"
              }
            ]
          }
        ],
        "code": {
          "coding": [
            {
              "code": "2093-3",
              "system": "http://loinc.org",
              "display": "Cholesterol [Mass/volume] in Serum or Plasma"
            }
          ],
          "text": "Cholesterol [Mass/volume] in Serum or Plasma"
        },
        "valueQuantity": {
          "system": "http://unitsofmeasure.org",
          "value": 206.2,
          "unit": "mg/dL",
          "code": "mg/dL"
        },
        "referenceRange": [
          {
            "low": {
              "value": 125,
              "code": "mg/dL",
              "system": "http://unitsofmeasure.org"
            }
          },
          {
            "high": {
              "value": 200,
              "code": "mg/dL",
              "system": "http://unitsofmeasure.org"
            }
          }
        ],
        "interpretation": [
          {
            "coding": [
              {
                "code": "H",
                "system": "http://terminology.hl7.org/CodeSystem/v3-ObservationInterpretation",
                "display": "High"
              }
            ]
          }
        ],
        "text": {
          "status": "generated",
          "div": "<div xmlns=\"http://www.w3.org/1999/xhtml\"><table class=\"hl7__eu__lab__report\"><tr><th>Test</th><th>19-Jul-2019</th><th>Reference&#xA0;Range</th><th>Unit</th></tr><tr><td>Cholesterol [Mass/volume] in Serum or Plasma</td><td>206.2</td><td>125 - 200</td><td>H</td><td>mg/dL</td></tr></table></div>"
        },
        "status": "final",
        "subject": {
          "reference": "urn:uuid:ba68bd0c-b2a8-4d95-a70a-3530c0a45617",
          "display": "Martine Couturier"
        },
        "effectiveDateTime": "2019-07-19T20:13:15Z",
        "specimen": {
          "reference": "urn:uuid:eee25160-7eeb-43d3-99b1-b0f7ed2fb0e7"
        }
      }
    },
    {
      "fullUrl": "urn:uuid:8f3ae8ef-40aa-4bfd-a45d-fa7b95cb8cb0",
      "resource": {
        "resourceType": "Observation",
        "id": "8f3ae8ef-40aa-4bfd-a45d-fa7b95cb8cb0",
        "meta": {
          "profile": [
            "http://hl7.eu/fhir/laboratory/StructureDefinition/Observation-resultslab-eu-lab"
          ]
        },
        "performer": [
          {
            "display": "The Central European Lab"
          }
        ],
        "category": [
          {
            "coding": [
              {
                "system": "http://terminology.hl7.org/CodeSystem/observation-category",
                "code": "laboratory"
              }
            ]
          }
        ],
        "code": {
          "coding": [
            {
              "code": "2571-8",
              "system": "http://loinc.org",
              "display": "Triglyceride [Mass/volume] in Serum or Plasma"
            }
          ],
          "text": "Triglyceride [Mass/volume] in Serum or Plasma"
        },
        "valueQuantity": {
          "system": "http://unitsofmeasure.org",
          "value": 168.1,
          "unit": "mg/dL",
          "code": "mg/dL"
        },
        "referenceRange": [
          {
            "low": {
              "value": 35,
              "code": "mg/dL",
              "system": "http://unitsofmeasure.org"
            }
          },
          {
            "high": {
              "value": 150,
              "code": "mg/dL",
              "system": "http://unitsofmeasure.org"
            }
          }
        ],
        "interpretation": [
          {
            "coding": [
              {
                "code": "H",
                "system": "http://terminology.hl7.org/CodeSystem/v3-ObservationInterpretation",
                "display": "High"
              }
            ]
          }
        ],
        "text": {
          "status": "generated",
          "div": "<div xmlns=\"http://www.w3.org/1999/xhtml\"><table class=\"hl7__eu__lab__report\"><tr><th>Test</th><th>19-Jul-2019</th><th>Reference&#xA0;Range</th><th>Unit</th></tr><tr><td>Triglyceride [Mass/volume] in Serum or Plasma</td><td>168.1</td><td>35 - 150</td><td>H</td><td>mg/dL</td></tr></table></div>"
        },
        "status": "final",
        "subject": {
          "reference": "urn:uuid:ba68bd0c-b2a8-4d95-a70a-3530c0a45617",
          "display": "Martine Couturier"
        },
        "effectiveDateTime": "2019-07-19T20:13:15Z",
        "specimen": {
          "reference": "urn:uuid:eee25160-7eeb-43d3-99b1-b0f7ed2fb0e7"
        }
      }
    },
    {
      "fullUrl": "urn:uuid:38a464dc-25c0-40d3-8f72-dd50bec3754f",
      "resource": {
        "resourceType": "Observation",
        "id": "38a464dc-25c0-40d3-8f72-dd50bec3754f",
        "meta": {
          "profile": [
            "http://hl7.eu/fhir/laboratory/StructureDefinition/Observation-resultslab-eu-lab"
          ]
        },
        "performer": [
          {
            "display": "The Central European Lab"
          }
        ],
        "category": [
          {
            "coding": [
              {
                "system": "http://terminology.hl7.org/CodeSystem/observation-category",
                "code": "laboratory"
              }
            ]
          }
        ],
        "code": {
          "coding": [
            {
              "code": "18262-6",
              "system": "http://loinc.org",
              "display": "Cholesterol in LDL [Mass/volume] in Serum or Plasma by Direct assay"
            }
          ],
          "text": "Cholesterol in LDL [Mass/volume] in Serum or Plasma by Direct assay"
        },
        "valueQuantity": {
          "system": "http://unitsofmeasure.org",
          "value": 132.4,
          "unit": "mg/dL",
          "code": "mg/dL"
        },
        "referenceRange": [
          {
            "low": {
              "value": 0,
              "code": "mg/dL",
              "system": "http://unitsofmeasure.org"
            }
          },
          {
            "high": {
              "value": 130,
              "code": "mg/dL",
              "system": "http://unitsofmeasure.org"
            }
          }
        ],
        "interpretation": [
          {
            "coding": [
              {
                "code": "H",
                "system": "http://terminology.hl7.org/CodeSystem/v3-ObservationInterpretation",
                "display": "High"
              }
            ]
          }
        ],
        "text": {
          "status": "generated",
          "div": "<div xmlns=\"http://www.w3.org/1999/xhtml\"><table class=\"hl7__eu__lab__report\"><tr><th>Test</th><th>19-Jul-2019</th><th>Reference&#xA0;Range</th><th>Unit</th></tr><tr><td>Cholesterol in LDL [Mass/volume] in Serum or Plasma by Direct assay</td><td>132.4</td><td>0 - 130</td><td>H</td><td>mg/dL</td></tr></table></div>"
        },
        "status": "final",
        "subject": {
          "reference": "urn:uuid:ba68bd0c-b2a8-4d95-a70a-3530c0a45617",
          "display": "Martine Couturier"
        },
        "effectiveDateTime": "2019-07-19T20:13:15Z",
        "specimen": {
          "reference": "urn:uuid:eee25160-7eeb-43d3-99b1-b0f7ed2fb0e7"
        }
      }
    },
    {
      "fullUrl": "urn:uuid:f38d6389-fdf3-4ffb-98a3-6e361b5e92cf",
      "resource": {
        "resourceType": "Observation",
        "id": "f38d6389-fdf3-4ffb-98a3-6e361b5e92cf",
        "meta": {
          "profile": [
            "http://hl7.eu/fhir/laboratory/StructureDefinition/Observation-resultslab-eu-lab"
          ]
        },
        "performer": [
          {
            "display": "The Central European Lab"
          }
        ],
        "category": [
          {
            "coding": [
              {
                "system": "http://terminology.hl7.org/CodeSystem/observation-category",
                "code": "laboratory"
              }
            ]
          }
        ],
        "code": {
          "coding": [
            {
              "code": "2085-9",
              "system": "http://loinc.org",
              "display": "Cholesterol in HDL [Mass/volume] in Serum or Plasma"
            }
          ],
          "text": "Cholesterol in HDL [Mass/volume] in Serum or Plasma"
        },
        "valueQuantity": {
          "system": "http://unitsofmeasure.org",
          "value": 40.1,
          "unit": "mg/dL",
          "code": "mg/dL"
        },
        "referenceRange": [
          {
            "low": {
              "value": 40,
              "code": "mg/dL",
              "system": "http://unitsofmeasure.org"
            }
          },
          {
            "high": {
              "value": 100,
              "code": "mg/dL",
              "system": "http://unitsofmeasure.org"
            }
          }
        ],
        "text": {
          "status": "generated",
          "div": "<div xmlns=\"http://www.w3.org/1999/xhtml\"><table class=\"hl7__eu__lab__report\"><tr><th>Test</th><th>19-Jul-2019</th><th>Reference&#xA0;Range</th><th>Unit</th></tr><tr><td>Cholesterol in HDL [Mass/volume] in Serum or Plasma</td><td>40.1</td><td>40 - 100</td><td></td><td>mg/dL</td></tr></table></div>"
        },
        "status": "final",
        "subject": {
          "reference": "urn:uuid:ba68bd0c-b2a8-4d95-a70a-3530c0a45617",
          "display": "Martine Couturier"
        },
        "effectiveDateTime": "2019-07-19T20:13:15Z",
        "specimen": {
          "reference": "urn:uuid:eee25160-7eeb-43d3-99b1-b0f7ed2fb0e7"
        }
      }
    },
    {
      "fullUrl": "urn:uuid:801294c9-8e86-435e-a705-28d128e711d9",
      "resource": {
        "resourceType": "Observation",
        "id": "801294c9-8e86-435e-a705-28d128e711d9",
        "meta": {
          "profile": [
            "http://hl7.eu/fhir/laboratory/StructureDefinition/Observation-resultslab-eu-lab"
          ]
        },
        "performer": [
          {
            "display": "The Central European Lab"
          }
        ],
        "category": [
          {
            "coding": [
              {
                "system": "http://terminology.hl7.org/CodeSystem/observation-category",
                "code": "laboratory"
              }
            ]
          }
        ],
        "code": {
          "coding": [
            {
              "code": "14959-1",
              "system": "http://loinc.org",
              "display": "Microalbumin/Creatinine [Mass Ratio] in Urine"
            }
          ],
          "text": "Microalbumin/Creatinine [Mass Ratio] in Urine"
        },
        "valueQuantity": {
          "system": "http://unitsofmeasure.org",
          "value": 9.4,
          "unit": "mg/g",
          "code": "mg/g"
        },
        "referenceRange": [
          {
            "low": {
              "value": 0,
              "code": "mg/g",
              "system": "http://unitsofmeasure.org"
            }
          },
          {
            "high": {
              "value": 30,
              "code": "mg/g",
              "system": "http://unitsofmeasure.org"
            }
          }
        ],
        "text": {
          "status": "generated",
          "div": "<div xmlns=\"http://www.w3.org/1999/xhtml\"><table class=\"hl7__eu__lab__report\"><tr><th>Test</th><th>19-Jul-2019</th><th>Reference&#xA0;Range</th><th>Unit</th></tr><tr><td>Microalbumin/Creatinine [Mass Ratio] in Urine</td><td>9.4</td><td>0 - 30</td><td></td><td>mg/g</td></tr></table></div>"
        },
        "status": "final",
        "subject": {
          "reference": "urn:uuid:ba68bd0c-b2a8-4d95-a70a-3530c0a45617",
          "display": "Martine Couturier"
        },
        "effectiveDateTime": "2019-07-19T20:13:15Z",
        "specimen": {
          "reference": "urn:uuid:c91da0b9-ed6e-45e2-ac62-2a0915903b72"
        }
      }
    },
    {
      "fullUrl": "urn:uuid:c104c91f-3ba1-49bd-b118-eeeec4385789",
      "resource": {
        "resourceType": "Device",
        "id": "c104c91f-3ba1-49bd-b118-eeeec4385789",
        "deviceName": [
          {
            "name": "SYNDERAI Synthetic Generator",
            "type": "manufacturer-name"
          }
        ],
        "version": [
          {
            "value": "5.0"
          }
        ],
        "text": {
          "status": "generated",
          "div": "<div xmlns=\"http://www.w3.org/1999/xhtml\">SYNDERAI Synthetic Generator v5.0</div>"
        },
        "status": "active\"",
        "distinctIdentifier": "synderai-generator-50",
        "manufacturer": "SYNDERAI Project"
      }
    },
    {
      "fullUrl": "urn:uuid:584a64c3-c19c-4d03-9bbf-00da27e47559",
      "resource": {
        "resourceType": "Provenance",
        "id": "584a64c3-c19c-4d03-9bbf-00da27e47559",
        "target": [
          {
            "reference": "Patient/ba68bd0c-b2a8-4d95-a70a-3530c0a45617"
          },
          {
            "reference": "Bundle/f44e47f2-af6b-40dc-b6f5-333b03d0fefd"
          },
          {
            "reference": "Composition/b647ed48-c62c-4d43-af47-6794d4734cc9"
          },
          {
            "reference": "PractitionerRole/df0a3464-2b31-4b94-9021-36ed159ffb17"
          },
          {
            "reference": "Practitioner/97d48a75-f290-4077-a202-1e5eaf3c310d"
          },
          {
            "reference": "PractitionerRole/94dcb1cc-d248-4658-a079-4a5a38cae8d6"
          },
          {
            "reference": "Organization/945bbcc3-d6ff-49ab-9802-0a1846bd49ef"
          }
        ],
        "activity": {
          "text": "Synthetic Example Data Generation"
        },
        "policy": [
          "https://synderai.net/synderai-synthetic-data-policy"
        ],
        "agent": [
          {
            "type": {
              "text": "author"
            },
            "who": {
              "reference": "Device/c104c91f-3ba1-49bd-b118-eeeec4385789"
            }
          }
        ],
        "reason": [
          {
            "text": "Interoperability Testing and Training (non-clinical use)"
          }
        ],
        "text": {
          "status": "generated",
          "div": "<div xmlns=\"http://www.w3.org/1999/xhtml\">Provenance for SYNDERAI Synthetic Example Data Resource</div>"
        },
        "recorded": "2019-07-19T22:13:15Z"
      }
    },
    {
      "fullUrl": "urn:uuid:df0a3464-2b31-4b94-9021-36ed159ffb17",
      "resource": {
        "resourceType": "PractitionerRole",
        "id": "df0a3464-2b31-4b94-9021-36ed159ffb17",
        "meta": {
          "profile": [
            "http://hl7.eu/fhir/base/StructureDefinition/practitionerRole-eu"
          ]
        },
        "text": {
          "status": "generated",
          "div": "<div xmlns=\"http://www.w3.org/1999/xhtml\">Laboratory Role Id: df0a3464-2b31-4b94-9021-36ed159ffb17</div>"
        },
        "practitioner": {
          "reference": "urn:uuid:97d48a75-f290-4077-a202-1e5eaf3c310d"
        }
      }
    },
    {
      "fullUrl": "urn:uuid:97d48a75-f290-4077-a202-1e5eaf3c310d",
      "resource": {
        "resourceType": "Practitioner",
        "id": "97d48a75-f290-4077-a202-1e5eaf3c310d",
        "meta": {
          "profile": [
            "http://hl7.eu/fhir/base/StructureDefinition/practitioner-eu"
          ]
        },
        "identifier": [
          {
            "assigner": {
              "display": "HL7 Europe"
            },
            "system": "urn:oid:2.16.840.1.113883.2.51.999",
            "value": "80d426c0-a7c9-4772-81e4-456e9fc0ac0b"
          }
        ],
        "name": [
          {
            "prefix": [
              "dr"
            ],
            "given": [
              "Ex"
            ],
            "family": "Ample"
          }
        ],
        "address": [
          {
            "line": [
              "Laboratoire Central Européenne",
              "Boulevard du Jardin Botanique 32"
            ],
            "postalCode": "1000",
            "city": "Brussels",
            "country": "Belgium"
          }
        ],
        "text": {
          "status": "generated",
          "div": "<div xmlns=\"http://www.w3.org/1999/xhtml\">Laboratory: Laboratoire Central Européenne, 1000 Brussels, Belgium</div>"
        }
      }
    }
  ],
  "type": "document",
  "timestamp": "2019-07-19T22:13:15Z"
}
