{
  "resourceType": "Bundle",
  "id": "3e298b48-033b-41ee-9e18-490a8d2aa2dc",
  "meta": {
    "profile": [
      "http://hl7.eu/fhir/laboratory/StructureDefinition/Bundle-eu-lab"
    ]
  },
  "identifier": {
    "assigner": {
      "display": "HL7 Europe"
    },
    "system": "urn:oid:2.16.840.1.113883.2.51.999",
    "value": "82702b21-444c-41e8-84e5-aee0d6cc7ffa"
  },
  "entry": [
    {
      "fullUrl": "urn:uuid:18c2b26e-fe0f-4d09-ac80-9ed229f753c1",
      "resource": {
        "resourceType": "Composition",
        "id": "18c2b26e-fe0f-4d09-ac80-9ed229f753c1",
        "meta": {
          "profile": [
            "http://hl7.eu/fhir/laboratory/StructureDefinition/Composition-eu-lab"
          ]
        },
        "identifier": {
          "assigner": {
            "display": "HL7 Europe"
          },
          "system": "urn:oid:2.16.840.1.113883.2.51.999",
          "value": "f9bf8309-bd44-4328-a1f9-e555e12c9a52"
        },
        "author": [
          {
            "reference": "urn:uuid:a54eb51a-a085-4353-acc3-a49ddf1f2f98"
          }
        ],
        "category": [
          {
            "coding": [
              {
                "code": "26436-6",
                "system": "http://loinc.org",
                "display": "Laboratory studies (set)"
              }
            ]
          }
        ],
        "type": {
          "coding": [
            {
              "code": "11502-2",
              "system": "http://loinc.org",
              "display": "Laboratory report"
            }
          ],
          "text": "Laboratory Report"
        },
        "section": [
          {
            "code": {
              "coding": [
                {
                  "code": "26436-6",
                  "system": "http://loinc.org",
                  "display": "Laboratory studies (set)"
                }
              ],
              "text": "Laboratory studies"
            },
            "section": [
              {
                "code": {
                  "coding": [
                    {
                      "code": "$18719-5",
                      "system": "http://loinc.org",
                      "display": "Chemistry studies (set)"
                    }
                  ],
                  "text": "Chemistry"
                },
                "entry": [
                  {
                    "reference": "urn:uuid:04eb028a-1072-4a54-96d1-db7aa85aa03f"
                  },
                  {
                    "reference": "urn:uuid:3fb55c6f-e699-4e12-9c45-3caad42fa9b4"
                  },
                  {
                    "reference": "urn:uuid:fa90597d-ae29-4724-977a-285211cd32b0"
                  },
                  {
                    "reference": "urn:uuid:aebeb52a-8d7b-4869-a171-31cb0db56337"
                  },
                  {
                    "reference": "urn:uuid:1709d97d-6a23-474e-8cde-cdd5ae0a6a9d"
                  },
                  {
                    "reference": "urn:uuid:c518501d-2956-49c9-91da-bb80220ee4d7"
                  },
                  {
                    "reference": "urn:uuid:246a8b08-391d-4e8d-b839-90694b62d8d9"
                  },
                  {
                    "reference": "urn:uuid:a0fad48e-959b-4c99-8e97-8a9d68e7e111"
                  },
                  {
                    "reference": "urn:uuid:287f34cd-4b5a-47bb-a027-46cec5c9ce59"
                  }
                ],
                "text": {
                  "status": "generated",
                  "div": "<div xmlns=\"http://www.w3.org/1999/xhtml\"><h3>Chemistry</h3><table class=\"hl7__eu__lab__report\"><thead><tr><th>Test</th><th>31-DEC-2015</th><th>Reference&#xA0;Range</th><th>Unit</th></tr></thead><tbody><tr><td>Hemoglobin A1c/Hemoglobin.total in Blood</td><td>5.8</td><td>4.5 - 6.4</td><td>%</td></tr><tr><td>Glucose [Mass/volume] in Blood</td><td>78.5</td><td>70 - 99</td><td>mg/dL</td></tr><tr><td>Urea nitrogen [Mass/volume] in Blood</td><td>10.3</td><td>7 - 20</td><td>mg/dL</td></tr><tr><td>Creatinine [Mass/volume] in Blood</td><td>1.2</td><td>0.7 - 1.3</td><td>mg/dL</td></tr><tr><td>Calcium [Mass/volume] in Blood</td><td>9.0</td><td>8.5 - 10.5</td><td>mg/dL</td></tr><tr><td>Sodium [Moles/volume] in Blood</td><td>143.8</td><td>135 - 145</td><td>mmol/L</td></tr><tr><td>Potassium [Moles/volume] in Blood</td><td>4.9</td><td>3.5 - 5.3</td><td>mmol/L</td></tr><tr><td>Chloride [Moles/volume] in Blood</td><td>107.1</td><td>98 - 110</td><td>mmol/L</td></tr><tr><td>Carbon dioxide, total [Moles/volume] in Blood</td><td>27.2</td><td>22 - 29</td><td>mmol/L</td></tr></tbody></table></div>"
                },
                "title": "Chemistry"
              }
            ],
            "title": "Laboratory Report"
          },
          {
            "text": {
              "status": "generated",
              "div": "<div xmlns=\"http://www.w3.org/1999/xhtml\"><h3>Annotation</h3><table class=\"hl7__eu__lab__report\"><tr><th>Conclusion and Recommendations based on this report and previous findings known to us</th></tr><tr><td>All measured parameters are within normal limits. Glycemic control (HbA1c, glucose) is adequate, and renal function (urea, creatinine), electrolytes, and calcium are normal. No laboratory abnormalities detected at this time. Recommend routine follow-up as clinically indicated.</td></tr></table></div>"
            },
            "code": {
              "coding": [
                {
                  "system": "http://loinc.org",
                  "code": "48767-8",
                  "display": "Annotation comment"
                }
              ]
            },
            "title": "Annotation comment"
          }
        ],
        "status": "final",
        "subject": {
          "reference": "urn:uuid:37c6f08a-c28a-43c6-a8f2-005757236daf",
          "display": "Alfred Rémy"
        },
        "date": "2015-12-31T07:54:36Z",
        "title": "Laboratory Report",
        "confidentiality": "N"
      }
    },
    {
      "fullUrl": "urn:uuid:1a461e9d-b75c-4820-9622-0125dbc7746c",
      "resource": {
        "resourceType": "DiagnosticReport",
        "id": "1a461e9d-b75c-4820-9622-0125dbc7746c",
        "meta": {
          "profile": [
            "http://hl7.eu/fhir/laboratory/StructureDefinition/DiagnosticReport-eu-lab"
          ]
        },
        "identifier": [
          {
            "assigner": {
              "display": "HL7 Europe"
            },
            "system": "urn:oid:2.16.840.1.113883.2.51.999",
            "value": "09a46848-7a56-4936-967f-4dc69f96c4bc"
          }
        ],
        "extension": [
          {
            "url": "http://hl7.org/fhir/5.0/StructureDefinition/extension-DiagnosticReport.composition",
            "valueReference": {
              "reference": "urn:uuid:f9bf8309-bd44-4328-a1f9-e555e12c9a52"
            }
          }
        ],
        "category": [
          {
            "coding": [
              {
                "code": "26436-6",
                "system": "http://loinc.org",
                "display": "Laboratory studies (set)"
              }
            ]
          }
        ],
        "specimen": [
          {
            "reference": "urn:uuid:ba6653a1-d40a-41ba-8f5d-2281f089cc12"
          }
        ],
        "result": [
          {
            "reference": "urn:uuid:04eb028a-1072-4a54-96d1-db7aa85aa03f"
          },
          {
            "reference": "urn:uuid:3fb55c6f-e699-4e12-9c45-3caad42fa9b4"
          },
          {
            "reference": "urn:uuid:fa90597d-ae29-4724-977a-285211cd32b0"
          },
          {
            "reference": "urn:uuid:aebeb52a-8d7b-4869-a171-31cb0db56337"
          },
          {
            "reference": "urn:uuid:1709d97d-6a23-474e-8cde-cdd5ae0a6a9d"
          },
          {
            "reference": "urn:uuid:c518501d-2956-49c9-91da-bb80220ee4d7"
          },
          {
            "reference": "urn:uuid:246a8b08-391d-4e8d-b839-90694b62d8d9"
          },
          {
            "reference": "urn:uuid:a0fad48e-959b-4c99-8e97-8a9d68e7e111"
          },
          {
            "reference": "urn:uuid:287f34cd-4b5a-47bb-a027-46cec5c9ce59"
          }
        ],
        "status": "registered",
        "code": {
          "coding": [
            {
              "code": "11502-2",
              "system": "http://loinc.org",
              "display": "Laboratory report"
            }
          ]
        },
        "subject": {
          "reference": "urn:uuid:37c6f08a-c28a-43c6-a8f2-005757236daf",
          "display": "Alfred Rémy"
        }
      }
    },
    {
      "fullUrl": "urn:uuid:37c6f08a-c28a-43c6-a8f2-005757236daf",
      "resource": {
        "resourceType": "Patient",
        "id": "37c6f08a-c28a-43c6-a8f2-005757236daf",
        "meta": {
          "security": [
            {
              "system": "http://terminology.hl7.org/CodeSystem/v3-ActReason",
              "code": "HTEST"
            },
            {
              "system": "http://terminology.hl7.org/CodeSystem/v3-ActReason",
              "code": "TRAIN"
            }
          ],
          "tag": [
            {
              "system": "https://synderai.net/fhir/CodeSystem/tags",
              "code": "synthetic",
              "display": "SYNDERAI Synthetic data"
            }
          ],
          "profile": [
            "http://hl7.eu/fhir/base/StructureDefinition/patient-eu-core"
          ]
        },
        "identifier": [
          {
            "type": {
              "coding": [
                {
                  "code": "PT",
                  "system": "http://terminology.hl7.org/CodeSystem/v2-0203"
                }
              ]
            },
            "system": "http://ec.europa.eu/identifier/eci",
            "value": "9962-084919-2"
          },
          {
            "type": {
              "coding": [
                {
                  "code": "MR",
                  "system": "http://terminology.hl7.org/CodeSystem/v2-0203"
                }
              ]
            },
            "system": "http://local.setting.eu/identifier",
            "value": "cc3b7d7f-bed4-5811-99b9-3468e2f4203c"
          }
        ],
        "name": [
          {
            "family": "Rémy"
          },
          {
            "given": [
              "Alfred"
            ]
          },
          {
            "text": "Alfred Rémy"
          }
        ],
        "address": [
          {
            "line": [
              "88, rue de Jacquot"
            ],
            "use": "home",
            "type": "physical",
            "postalCode": "75018",
            "city": "Paris",
            "country": "France"
          }
        ],
        "telecom": [
          {
            "system": "phone",
            "value": "+33 (0)4 73 74 17 67"
          }
        ],
        "extension": [
          {
            "url": "http://hl7.org/fhir/StructureDefinition/patient-nationality",
            "valueCodeableConcept": {
              "coding": [
                {
                  "code": "FR",
                  "system": "http://hl7.org/fhir/ValueSet/country"
                }
              ]
            }
          }
        ],
        "text": {
          "status": "generated",
          "div": "<div xmlns=\"http://www.w3.org/1999/xhtml\"><table class=\"hl7__ips\"><tr><td>Alfred Rémy</td><td>male</td><td>05-Jul-1967</td></tr></table></div>"
        },
        "gender": "male",
        "birthDate": "1967-07-05"
      }
    },
    {
      "fullUrl": "urn:uuid:0fdf2a91-584b-4ce8-aa5d-fbb239b81409",
      "resource": {
        "resourceType": "ServiceRequest",
        "id": "0fdf2a91-584b-4ce8-aa5d-fbb239b81409",
        "meta": {
          "profile": [
            "http://hl7.eu/fhir/laboratory/StructureDefinition/ServiceRequest-eu-lab"
          ]
        },
        "identifier": [
          {
            "system": "http://example.org",
            "value": "7bce750c-5e2c-4a72-8df2-78888e795516"
          }
        ],
        "specimen": [
          {
            "reference": "urn:uuid:ba6653a1-d40a-41ba-8f5d-2281f089cc12"
          }
        ],
        "reasonCode": [
          {
            "coding": [
              {
                "code": "271737000",
                "system": "http://snomed.info/sct",
                "display": "Anemia"
              }
            ]
          },
          {
            "coding": [
              {
                "code": "15777000",
                "system": "http://snomed.info/sct",
                "display": "Prediabetes"
              }
            ]
          }
        ],
        "status": "active",
        "intent": "order",
        "code": {
          "coding": [
            {
              "code": "108252007",
              "system": "http://snomed.info/sct",
              "display": "Laboratory procedure"
            }
          ]
        },
        "subject": {
          "reference": "urn:uuid:37c6f08a-c28a-43c6-a8f2-005757236daf",
          "display": "Alfred Rémy"
        },
        "requester": {
          "reference": "urn:uuid:e568806b-1cae-43bd-9de0-a9ca3258fa21"
        }
      }
    },
    {
      "fullUrl": "urn:uuid:e568806b-1cae-43bd-9de0-a9ca3258fa21",
      "resource": {
        "resourceType": "PractitionerRole",
        "id": "e568806b-1cae-43bd-9de0-a9ca3258fa21",
        "meta": {
          "profile": [
            "http://hl7.eu/fhir/base/StructureDefinition/practitionerRole-eu"
          ]
        },
        "text": {
          "status": "generated",
          "div": "<div xmlns=\"http://www.w3.org/1999/xhtml\">Provider Role Id: e568806b-1cae-43bd-9de0-a9ca3258fa21</div>"
        },
        "organization": {
          "reference": "urn:uuid:33ad2f5d-3514-42a8-a451-95a63dece099"
        }
      }
    },
    {
      "fullUrl": "urn:uuid:33ad2f5d-3514-42a8-a451-95a63dece099",
      "resource": {
        "resourceType": "Organization",
        "id": "33ad2f5d-3514-42a8-a451-95a63dece099",
        "meta": {
          "profile": [
            "http://hl7.eu/fhir/base/StructureDefinition/organization-eu"
          ]
        },
        "identifier": [
          {
            "assigner": {
              "display": "HL7 Europe"
            },
            "system": "urn:oid:2.16.840.1.113883.2.51.999",
            "value": "0990a88e-e716-4251-97d7-4bd45a1286ad"
          }
        ],
        "address": [
          {
            "city": "Paris",
            "postalCode": "75005",
            "country": "France"
          }
        ],
        "text": {
          "status": "generated",
          "div": "<div xmlns=\"http://www.w3.org/1999/xhtml\">Provider Organization: Maison des parents Irène Joliot-Curie</div>"
        },
        "name": "Maison des parents Irène Joliot-Curie"
      }
    },
    {
      "fullUrl": "urn:uuid:ba6653a1-d40a-41ba-8f5d-2281f089cc12",
      "resource": {
        "resourceType": "Specimen",
        "id": "ba6653a1-d40a-41ba-8f5d-2281f089cc12",
        "meta": {
          "profile": [
            "http://hl7.eu/fhir/laboratory/StructureDefinition/Specimen-eu-lab"
          ]
        },
        "collection": {
          "collectedDateTime": "2015-12-31"
        },
        "text": {
          "status": "generated",
          "div": "<div xmlns=\"http://www.w3.org/1999/xhtml\"><table class=\"hl7__eu__lab__report\"><tr><th>Specimen</th><th>Collection Date</th></tr><tr><td>Whole blood specimen (specimen)</td><td><span class=\"nb\">31-Dec-2015</span></td></tr></table></div>"
        },
        "type": {
          "coding": [
            {
              "code": "258580003",
              "system": "http://snomed.info/sct",
              "display": "Whole blood specimen (specimen)"
            }
          ]
        }
      }
    },
    {
      "fullUrl": "urn:uuid:04eb028a-1072-4a54-96d1-db7aa85aa03f",
      "resource": {
        "resourceType": "Observation",
        "id": "04eb028a-1072-4a54-96d1-db7aa85aa03f",
        "meta": {
          "profile": [
            "http://hl7.eu/fhir/laboratory/StructureDefinition/Observation-resultslab-eu-lab"
          ]
        },
        "performer": [
          {
            "display": "The Central European Lab"
          }
        ],
        "category": [
          {
            "coding": [
              {
                "system": "http://terminology.hl7.org/CodeSystem/observation-category",
                "code": "laboratory"
              }
            ]
          }
        ],
        "code": {
          "coding": [
            {
              "code": "4548-4",
              "system": "http://loinc.org",
              "display": "Hemoglobin A1c/Hemoglobin.total in Blood"
            }
          ],
          "text": "Hemoglobin A1c/Hemoglobin.total in Blood"
        },
        "valueQuantity": {
          "system": "http://unitsofmeasure.org",
          "value": 5.8,
          "unit": "%",
          "code": "%"
        },
        "referenceRange": [
          {
            "low": {
              "value": 4.5,
              "code": "%",
              "system": "http://unitsofmeasure.org"
            }
          },
          {
            "high": {
              "value": 6.4,
              "code": "%",
              "system": "http://unitsofmeasure.org"
            }
          }
        ],
        "text": {
          "status": "generated",
          "div": "<div xmlns=\"http://www.w3.org/1999/xhtml\"><table class=\"hl7__eu__lab__report\"><tr><th>Test</th><th>31-Dec-2015</th><th>Reference&#xA0;Range</th><th>Unit</th></tr><tr><td>Hemoglobin A1c/Hemoglobin.total in Blood</td><td>5.8</td><td>4.5 - 6.4</td><td></td><td>%</td></tr></table></div>"
        },
        "status": "final",
        "subject": {
          "reference": "urn:uuid:37c6f08a-c28a-43c6-a8f2-005757236daf",
          "display": "Alfred Rémy"
        },
        "effectiveDateTime": "2015-12-31T06:54:36Z",
        "specimen": {
          "reference": "urn:uuid:ba6653a1-d40a-41ba-8f5d-2281f089cc12"
        }
      }
    },
    {
      "fullUrl": "urn:uuid:3fb55c6f-e699-4e12-9c45-3caad42fa9b4",
      "resource": {
        "resourceType": "Observation",
        "id": "3fb55c6f-e699-4e12-9c45-3caad42fa9b4",
        "meta": {
          "profile": [
            "http://hl7.eu/fhir/laboratory/StructureDefinition/Observation-resultslab-eu-lab"
          ]
        },
        "performer": [
          {
            "display": "The Central European Lab"
          }
        ],
        "category": [
          {
            "coding": [
              {
                "system": "http://terminology.hl7.org/CodeSystem/observation-category",
                "code": "laboratory"
              }
            ]
          }
        ],
        "code": {
          "coding": [
            {
              "code": "2339-0",
              "system": "http://loinc.org",
              "display": "Glucose [Mass/volume] in Blood"
            }
          ],
          "text": "Glucose [Mass/volume] in Blood"
        },
        "valueQuantity": {
          "system": "http://unitsofmeasure.org",
          "value": 78.5,
          "unit": "mg/dL",
          "code": "mg/dL"
        },
        "referenceRange": [
          {
            "low": {
              "value": 70,
              "code": "mg/dL",
              "system": "http://unitsofmeasure.org"
            }
          },
          {
            "high": {
              "value": 99,
              "code": "mg/dL",
              "system": "http://unitsofmeasure.org"
            }
          }
        ],
        "text": {
          "status": "generated",
          "div": "<div xmlns=\"http://www.w3.org/1999/xhtml\"><table class=\"hl7__eu__lab__report\"><tr><th>Test</th><th>31-Dec-2015</th><th>Reference&#xA0;Range</th><th>Unit</th></tr><tr><td>Glucose [Mass/volume] in Blood</td><td>78.5</td><td>70 - 99</td><td></td><td>mg/dL</td></tr></table></div>"
        },
        "status": "final",
        "subject": {
          "reference": "urn:uuid:37c6f08a-c28a-43c6-a8f2-005757236daf",
          "display": "Alfred Rémy"
        },
        "effectiveDateTime": "2015-12-31T06:54:36Z",
        "specimen": {
          "reference": "urn:uuid:ba6653a1-d40a-41ba-8f5d-2281f089cc12"
        }
      }
    },
    {
      "fullUrl": "urn:uuid:fa90597d-ae29-4724-977a-285211cd32b0",
      "resource": {
        "resourceType": "Observation",
        "id": "fa90597d-ae29-4724-977a-285211cd32b0",
        "meta": {
          "profile": [
            "http://hl7.eu/fhir/laboratory/StructureDefinition/Observation-resultslab-eu-lab"
          ]
        },
        "performer": [
          {
            "display": "The Central European Lab"
          }
        ],
        "category": [
          {
            "coding": [
              {
                "system": "http://terminology.hl7.org/CodeSystem/observation-category",
                "code": "laboratory"
              }
            ]
          }
        ],
        "code": {
          "coding": [
            {
              "code": "6299-2",
              "system": "http://loinc.org",
              "display": "Urea nitrogen [Mass/volume] in Blood"
            }
          ],
          "text": "Urea nitrogen [Mass/volume] in Blood"
        },
        "valueQuantity": {
          "system": "http://unitsofmeasure.org",
          "value": 10.3,
          "unit": "mg/dL",
          "code": "mg/dL"
        },
        "referenceRange": [
          {
            "low": {
              "value": 7,
              "code": "mg/dL",
              "system": "http://unitsofmeasure.org"
            }
          },
          {
            "high": {
              "value": 20,
              "code": "mg/dL",
              "system": "http://unitsofmeasure.org"
            }
          }
        ],
        "text": {
          "status": "generated",
          "div": "<div xmlns=\"http://www.w3.org/1999/xhtml\"><table class=\"hl7__eu__lab__report\"><tr><th>Test</th><th>31-Dec-2015</th><th>Reference&#xA0;Range</th><th>Unit</th></tr><tr><td>Urea nitrogen [Mass/volume] in Blood</td><td>10.3</td><td>7 - 20</td><td></td><td>mg/dL</td></tr></table></div>"
        },
        "status": "final",
        "subject": {
          "reference": "urn:uuid:37c6f08a-c28a-43c6-a8f2-005757236daf",
          "display": "Alfred Rémy"
        },
        "effectiveDateTime": "2015-12-31T06:54:36Z",
        "specimen": {
          "reference": "urn:uuid:ba6653a1-d40a-41ba-8f5d-2281f089cc12"
        }
      }
    },
    {
      "fullUrl": "urn:uuid:aebeb52a-8d7b-4869-a171-31cb0db56337",
      "resource": {
        "resourceType": "Observation",
        "id": "aebeb52a-8d7b-4869-a171-31cb0db56337",
        "meta": {
          "profile": [
            "http://hl7.eu/fhir/laboratory/StructureDefinition/Observation-resultslab-eu-lab"
          ]
        },
        "performer": [
          {
            "display": "The Central European Lab"
          }
        ],
        "category": [
          {
            "coding": [
              {
                "system": "http://terminology.hl7.org/CodeSystem/observation-category",
                "code": "laboratory"
              }
            ]
          }
        ],
        "code": {
          "coding": [
            {
              "code": "38483-4",
              "system": "http://loinc.org",
              "display": "Creatinine [Mass/volume] in Blood"
            }
          ],
          "text": "Creatinine [Mass/volume] in Blood"
        },
        "valueQuantity": {
          "system": "http://unitsofmeasure.org",
          "value": 1.2,
          "unit": "mg/dL",
          "code": "mg/dL"
        },
        "referenceRange": [
          {
            "low": {
              "value": 0.7,
              "code": "mg/dL",
              "system": "http://unitsofmeasure.org"
            }
          },
          {
            "high": {
              "value": 1.3,
              "code": "mg/dL",
              "system": "http://unitsofmeasure.org"
            }
          }
        ],
        "text": {
          "status": "generated",
          "div": "<div xmlns=\"http://www.w3.org/1999/xhtml\"><table class=\"hl7__eu__lab__report\"><tr><th>Test</th><th>31-Dec-2015</th><th>Reference&#xA0;Range</th><th>Unit</th></tr><tr><td>Creatinine [Mass/volume] in Blood</td><td>1.2</td><td>0.7 - 1.3</td><td></td><td>mg/dL</td></tr></table></div>"
        },
        "status": "final",
        "subject": {
          "reference": "urn:uuid:37c6f08a-c28a-43c6-a8f2-005757236daf",
          "display": "Alfred Rémy"
        },
        "effectiveDateTime": "2015-12-31T06:54:36Z",
        "specimen": {
          "reference": "urn:uuid:ba6653a1-d40a-41ba-8f5d-2281f089cc12"
        }
      }
    },
    {
      "fullUrl": "urn:uuid:1709d97d-6a23-474e-8cde-cdd5ae0a6a9d",
      "resource": {
        "resourceType": "Observation",
        "id": "1709d97d-6a23-474e-8cde-cdd5ae0a6a9d",
        "meta": {
          "profile": [
            "http://hl7.eu/fhir/laboratory/StructureDefinition/Observation-resultslab-eu-lab"
          ]
        },
        "performer": [
          {
            "display": "The Central European Lab"
          }
        ],
        "category": [
          {
            "coding": [
              {
                "system": "http://terminology.hl7.org/CodeSystem/observation-category",
                "code": "laboratory"
              }
            ]
          }
        ],
        "code": {
          "coding": [
            {
              "code": "49765-1",
              "system": "http://loinc.org",
              "display": "Calcium [Mass/volume] in Blood"
            }
          ],
          "text": "Calcium [Mass/volume] in Blood"
        },
        "valueQuantity": {
          "system": "http://unitsofmeasure.org",
          "value": 9,
          "unit": "mg/dL",
          "code": "mg/dL"
        },
        "referenceRange": [
          {
            "low": {
              "value": 8.5,
              "code": "mg/dL",
              "system": "http://unitsofmeasure.org"
            }
          },
          {
            "high": {
              "value": 10.5,
              "code": "mg/dL",
              "system": "http://unitsofmeasure.org"
            }
          }
        ],
        "text": {
          "status": "generated",
          "div": "<div xmlns=\"http://www.w3.org/1999/xhtml\"><table class=\"hl7__eu__lab__report\"><tr><th>Test</th><th>31-Dec-2015</th><th>Reference&#xA0;Range</th><th>Unit</th></tr><tr><td>Calcium [Mass/volume] in Blood</td><td>9.0</td><td>8.5 - 10.5</td><td></td><td>mg/dL</td></tr></table></div>"
        },
        "status": "final",
        "subject": {
          "reference": "urn:uuid:37c6f08a-c28a-43c6-a8f2-005757236daf",
          "display": "Alfred Rémy"
        },
        "effectiveDateTime": "2015-12-31T06:54:36Z",
        "specimen": {
          "reference": "urn:uuid:ba6653a1-d40a-41ba-8f5d-2281f089cc12"
        }
      }
    },
    {
      "fullUrl": "urn:uuid:c518501d-2956-49c9-91da-bb80220ee4d7",
      "resource": {
        "resourceType": "Observation",
        "id": "c518501d-2956-49c9-91da-bb80220ee4d7",
        "meta": {
          "profile": [
            "http://hl7.eu/fhir/laboratory/StructureDefinition/Observation-resultslab-eu-lab"
          ]
        },
        "performer": [
          {
            "display": "The Central European Lab"
          }
        ],
        "category": [
          {
            "coding": [
              {
                "system": "http://terminology.hl7.org/CodeSystem/observation-category",
                "code": "laboratory"
              }
            ]
          }
        ],
        "code": {
          "coding": [
            {
              "code": "2947-0",
              "system": "http://loinc.org",
              "display": "Sodium [Moles/volume] in Blood"
            }
          ],
          "text": "Sodium [Moles/volume] in Blood"
        },
        "valueQuantity": {
          "system": "http://unitsofmeasure.org",
          "value": 143.8,
          "unit": "mmol/L",
          "code": "mmol/L"
        },
        "referenceRange": [
          {
            "low": {
              "value": 135,
              "code": "mmol/L",
              "system": "http://unitsofmeasure.org"
            }
          },
          {
            "high": {
              "value": 145,
              "code": "mmol/L",
              "system": "http://unitsofmeasure.org"
            }
          }
        ],
        "text": {
          "status": "generated",
          "div": "<div xmlns=\"http://www.w3.org/1999/xhtml\"><table class=\"hl7__eu__lab__report\"><tr><th>Test</th><th>31-Dec-2015</th><th>Reference&#xA0;Range</th><th>Unit</th></tr><tr><td>Sodium [Moles/volume] in Blood</td><td>143.8</td><td>135 - 145</td><td></td><td>mmol/L</td></tr></table></div>"
        },
        "status": "final",
        "subject": {
          "reference": "urn:uuid:37c6f08a-c28a-43c6-a8f2-005757236daf",
          "display": "Alfred Rémy"
        },
        "effectiveDateTime": "2015-12-31T06:54:36Z",
        "specimen": {
          "reference": "urn:uuid:ba6653a1-d40a-41ba-8f5d-2281f089cc12"
        }
      }
    },
    {
      "fullUrl": "urn:uuid:246a8b08-391d-4e8d-b839-90694b62d8d9",
      "resource": {
        "resourceType": "Observation",
        "id": "246a8b08-391d-4e8d-b839-90694b62d8d9",
        "meta": {
          "profile": [
            "http://hl7.eu/fhir/laboratory/StructureDefinition/Observation-resultslab-eu-lab"
          ]
        },
        "performer": [
          {
            "display": "The Central European Lab"
          }
        ],
        "category": [
          {
            "coding": [
              {
                "system": "http://terminology.hl7.org/CodeSystem/observation-category",
                "code": "laboratory"
              }
            ]
          }
        ],
        "code": {
          "coding": [
            {
              "code": "6298-4",
              "system": "http://loinc.org",
              "display": "Potassium [Moles/volume] in Blood"
            }
          ],
          "text": "Potassium [Moles/volume] in Blood"
        },
        "valueQuantity": {
          "system": "http://unitsofmeasure.org",
          "value": 4.9,
          "unit": "mmol/L",
          "code": "mmol/L"
        },
        "referenceRange": [
          {
            "low": {
              "value": 3.5,
              "code": "mmol/L",
              "system": "http://unitsofmeasure.org"
            }
          },
          {
            "high": {
              "value": 5.3,
              "code": "mmol/L",
              "system": "http://unitsofmeasure.org"
            }
          }
        ],
        "text": {
          "status": "generated",
          "div": "<div xmlns=\"http://www.w3.org/1999/xhtml\"><table class=\"hl7__eu__lab__report\"><tr><th>Test</th><th>31-Dec-2015</th><th>Reference&#xA0;Range</th><th>Unit</th></tr><tr><td>Potassium [Moles/volume] in Blood</td><td>4.9</td><td>3.5 - 5.3</td><td></td><td>mmol/L</td></tr></table></div>"
        },
        "status": "final",
        "subject": {
          "reference": "urn:uuid:37c6f08a-c28a-43c6-a8f2-005757236daf",
          "display": "Alfred Rémy"
        },
        "effectiveDateTime": "2015-12-31T06:54:36Z",
        "specimen": {
          "reference": "urn:uuid:ba6653a1-d40a-41ba-8f5d-2281f089cc12"
        }
      }
    },
    {
      "fullUrl": "urn:uuid:a0fad48e-959b-4c99-8e97-8a9d68e7e111",
      "resource": {
        "resourceType": "Observation",
        "id": "a0fad48e-959b-4c99-8e97-8a9d68e7e111",
        "meta": {
          "profile": [
            "http://hl7.eu/fhir/laboratory/StructureDefinition/Observation-resultslab-eu-lab"
          ]
        },
        "performer": [
          {
            "display": "The Central European Lab"
          }
        ],
        "category": [
          {
            "coding": [
              {
                "system": "http://terminology.hl7.org/CodeSystem/observation-category",
                "code": "laboratory"
              }
            ]
          }
        ],
        "code": {
          "coding": [
            {
              "code": "2069-3",
              "system": "http://loinc.org",
              "display": "Chloride [Moles/volume] in Blood"
            }
          ],
          "text": "Chloride [Moles/volume] in Blood"
        },
        "valueQuantity": {
          "system": "http://unitsofmeasure.org",
          "value": 107.1,
          "unit": "mmol/L",
          "code": "mmol/L"
        },
        "referenceRange": [
          {
            "low": {
              "value": 98,
              "code": "mmol/L",
              "system": "http://unitsofmeasure.org"
            }
          },
          {
            "high": {
              "value": 110,
              "code": "mmol/L",
              "system": "http://unitsofmeasure.org"
            }
          }
        ],
        "text": {
          "status": "generated",
          "div": "<div xmlns=\"http://www.w3.org/1999/xhtml\"><table class=\"hl7__eu__lab__report\"><tr><th>Test</th><th>31-Dec-2015</th><th>Reference&#xA0;Range</th><th>Unit</th></tr><tr><td>Chloride [Moles/volume] in Blood</td><td>107.1</td><td>98 - 110</td><td></td><td>mmol/L</td></tr></table></div>"
        },
        "status": "final",
        "subject": {
          "reference": "urn:uuid:37c6f08a-c28a-43c6-a8f2-005757236daf",
          "display": "Alfred Rémy"
        },
        "effectiveDateTime": "2015-12-31T06:54:36Z",
        "specimen": {
          "reference": "urn:uuid:ba6653a1-d40a-41ba-8f5d-2281f089cc12"
        }
      }
    },
    {
      "fullUrl": "urn:uuid:287f34cd-4b5a-47bb-a027-46cec5c9ce59",
      "resource": {
        "resourceType": "Observation",
        "id": "287f34cd-4b5a-47bb-a027-46cec5c9ce59",
        "meta": {
          "profile": [
            "http://hl7.eu/fhir/laboratory/StructureDefinition/Observation-resultslab-eu-lab"
          ]
        },
        "performer": [
          {
            "display": "The Central European Lab"
          }
        ],
        "category": [
          {
            "coding": [
              {
                "system": "http://terminology.hl7.org/CodeSystem/observation-category",
                "code": "laboratory"
              }
            ]
          }
        ],
        "code": {
          "coding": [
            {
              "code": "20565-8",
              "system": "http://loinc.org",
              "display": "Carbon dioxide, total [Moles/volume] in Blood"
            }
          ],
          "text": "Carbon dioxide, total [Moles/volume] in Blood"
        },
        "valueQuantity": {
          "system": "http://unitsofmeasure.org",
          "value": 27.2,
          "unit": "mmol/L",
          "code": "mmol/L"
        },
        "referenceRange": [
          {
            "low": {
              "value": 22,
              "code": "mmol/L",
              "system": "http://unitsofmeasure.org"
            }
          },
          {
            "high": {
              "value": 29,
              "code": "mmol/L",
              "system": "http://unitsofmeasure.org"
            }
          }
        ],
        "text": {
          "status": "generated",
          "div": "<div xmlns=\"http://www.w3.org/1999/xhtml\"><table class=\"hl7__eu__lab__report\"><tr><th>Test</th><th>31-Dec-2015</th><th>Reference&#xA0;Range</th><th>Unit</th></tr><tr><td>Carbon dioxide, total [Moles/volume] in Blood</td><td>27.2</td><td>22 - 29</td><td></td><td>mmol/L</td></tr></table></div>"
        },
        "status": "final",
        "subject": {
          "reference": "urn:uuid:37c6f08a-c28a-43c6-a8f2-005757236daf",
          "display": "Alfred Rémy"
        },
        "effectiveDateTime": "2015-12-31T06:54:36Z",
        "specimen": {
          "reference": "urn:uuid:ba6653a1-d40a-41ba-8f5d-2281f089cc12"
        }
      }
    },
    {
      "fullUrl": "urn:uuid:832476ae-d8f9-49dd-befe-bb9a7e9e62f0",
      "resource": {
        "resourceType": "Device",
        "id": "832476ae-d8f9-49dd-befe-bb9a7e9e62f0",
        "deviceName": [
          {
            "name": "SYNDERAI Synthetic Generator",
            "type": "manufacturer-name"
          }
        ],
        "version": [
          {
            "value": "5.0"
          }
        ],
        "text": {
          "status": "generated",
          "div": "<div xmlns=\"http://www.w3.org/1999/xhtml\">SYNDERAI Synthetic Generator v5.0</div>"
        },
        "status": "active\"",
        "distinctIdentifier": "synderai-generator-50",
        "manufacturer": "SYNDERAI Project"
      }
    },
    {
      "fullUrl": "urn:uuid:9f7aafff-030a-4951-92cb-545b6bbed1d0",
      "resource": {
        "resourceType": "Provenance",
        "id": "9f7aafff-030a-4951-92cb-545b6bbed1d0",
        "target": [
          {
            "reference": "Patient/37c6f08a-c28a-43c6-a8f2-005757236daf"
          },
          {
            "reference": "Bundle/3e298b48-033b-41ee-9e18-490a8d2aa2dc"
          },
          {
            "reference": "Composition/18c2b26e-fe0f-4d09-ac80-9ed229f753c1"
          },
          {
            "reference": "PractitionerRole/a54eb51a-a085-4353-acc3-a49ddf1f2f98"
          },
          {
            "reference": "Practitioner/498afb28-77d4-49de-b19e-2437dee879bc"
          },
          {
            "reference": "PractitionerRole/e568806b-1cae-43bd-9de0-a9ca3258fa21"
          },
          {
            "reference": "Organization/33ad2f5d-3514-42a8-a451-95a63dece099"
          }
        ],
        "activity": {
          "text": "Synthetic Example Data Generation"
        },
        "policy": [
          "https://synderai.net/synderai-synthetic-data-policy"
        ],
        "agent": [
          {
            "type": {
              "text": "author"
            },
            "who": {
              "reference": "Device/832476ae-d8f9-49dd-befe-bb9a7e9e62f0"
            }
          }
        ],
        "reason": [
          {
            "text": "Interoperability Testing and Training (non-clinical use)"
          }
        ],
        "text": {
          "status": "generated",
          "div": "<div xmlns=\"http://www.w3.org/1999/xhtml\">Provenance for SYNDERAI Synthetic Example Data Resource</div>"
        },
        "recorded": "2015-12-31T07:54:36Z"
      }
    },
    {
      "fullUrl": "urn:uuid:a54eb51a-a085-4353-acc3-a49ddf1f2f98",
      "resource": {
        "resourceType": "PractitionerRole",
        "id": "a54eb51a-a085-4353-acc3-a49ddf1f2f98",
        "meta": {
          "profile": [
            "http://hl7.eu/fhir/base/StructureDefinition/practitionerRole-eu"
          ]
        },
        "text": {
          "status": "generated",
          "div": "<div xmlns=\"http://www.w3.org/1999/xhtml\">Laboratory Role Id: a54eb51a-a085-4353-acc3-a49ddf1f2f98</div>"
        },
        "practitioner": {
          "reference": "urn:uuid:498afb28-77d4-49de-b19e-2437dee879bc"
        }
      }
    },
    {
      "fullUrl": "urn:uuid:498afb28-77d4-49de-b19e-2437dee879bc",
      "resource": {
        "resourceType": "Practitioner",
        "id": "498afb28-77d4-49de-b19e-2437dee879bc",
        "meta": {
          "profile": [
            "http://hl7.eu/fhir/base/StructureDefinition/practitioner-eu"
          ]
        },
        "identifier": [
          {
            "assigner": {
              "display": "HL7 Europe"
            },
            "system": "urn:oid:2.16.840.1.113883.2.51.999",
            "value": "2674a3d0-15d2-47b0-9db5-8da79e3692ea"
          }
        ],
        "name": [
          {
            "prefix": [
              "dr"
            ],
            "given": [
              "Ex"
            ],
            "family": "Ample"
          }
        ],
        "address": [
          {
            "line": [
              "Laboratoire Central Européenne",
              "Boulevard du Jardin Botanique 32"
            ],
            "postalCode": "1000",
            "city": "Brussels",
            "country": "Belgium"
          }
        ],
        "text": {
          "status": "generated",
          "div": "<div xmlns=\"http://www.w3.org/1999/xhtml\">Laboratory: Laboratoire Central Européenne, 1000 Brussels, Belgium</div>"
        }
      }
    }
  ],
  "type": "document",
  "timestamp": "2015-12-31T07:54:36Z"
}
