{
  "resourceType": "Bundle",
  "id": "7314e1bf-e4c1-4bf8-afb6-ae1d61ec1e99",
  "meta": {
    "profile": [
      "http://hl7.eu/fhir/laboratory/StructureDefinition/Bundle-eu-lab"
    ]
  },
  "identifier": {
    "assigner": {
      "display": "HL7 Europe"
    },
    "system": "urn:oid:2.16.840.1.113883.2.51.999",
    "value": "4b4c7897-29f1-4ae0-bbc6-e8aff1deb3f3"
  },
  "entry": [
    {
      "fullUrl": "urn:uuid:f9fa310b-83df-4110-b4fd-597e38039cb6",
      "resource": {
        "resourceType": "Composition",
        "id": "f9fa310b-83df-4110-b4fd-597e38039cb6",
        "meta": {
          "profile": [
            "http://hl7.eu/fhir/laboratory/StructureDefinition/Composition-eu-lab"
          ]
        },
        "identifier": {
          "assigner": {
            "display": "HL7 Europe"
          },
          "system": "urn:oid:2.16.840.1.113883.2.51.999",
          "value": "cd7d8ae3-5970-409c-94e3-4de193f7c438"
        },
        "author": [
          {
            "reference": "urn:uuid:e880e67b-7ab2-464c-9b51-f283d7c1bbea"
          }
        ],
        "category": [
          {
            "coding": [
              {
                "code": "26436-6",
                "system": "http://loinc.org",
                "display": "Laboratory studies (set)"
              }
            ]
          }
        ],
        "type": {
          "coding": [
            {
              "code": "11502-2",
              "system": "http://loinc.org",
              "display": "Laboratory report"
            }
          ],
          "text": "Laboratory Report"
        },
        "section": [
          {
            "code": {
              "coding": [
                {
                  "code": "26436-6",
                  "system": "http://loinc.org",
                  "display": "Laboratory studies (set)"
                }
              ],
              "text": "Laboratory studies"
            },
            "section": [
              {
                "code": {
                  "coding": [
                    {
                      "code": "$18719-5",
                      "system": "http://loinc.org",
                      "display": "Chemistry studies (set)"
                    }
                  ],
                  "text": "Chemistry"
                },
                "entry": [
                  {
                    "reference": "urn:uuid:1a51822c-9127-4fcf-bc81-6b2de07a5348"
                  },
                  {
                    "reference": "urn:uuid:46a33a5b-c227-4bfa-87d1-aba8ad0be885"
                  },
                  {
                    "reference": "urn:uuid:cdf31531-ea92-4e0a-bd12-aabf47c4341b"
                  },
                  {
                    "reference": "urn:uuid:b2b3ed42-0165-43e1-bbee-698dbec72d18"
                  },
                  {
                    "reference": "urn:uuid:e12779b1-6f3d-49a0-b488-6c618c6b77e5"
                  },
                  {
                    "reference": "urn:uuid:4a55640d-4d98-4cc3-9b53-b933d59c891e"
                  },
                  {
                    "reference": "urn:uuid:4758ddca-c1b5-439e-a450-b1fb316a2267"
                  },
                  {
                    "reference": "urn:uuid:6930155d-f1f9-44d8-9284-e789db8ab694"
                  },
                  {
                    "reference": "urn:uuid:a864ce84-6b16-4065-83ed-fd7d05d73ee9"
                  }
                ],
                "text": {
                  "status": "generated",
                  "div": "<div xmlns=\"http://www.w3.org/1999/xhtml\"><h3>Chemistry</h3><table class=\"hl7__eu__lab__report\"><thead><tr><th>Test</th><th>04-MAY-2022</th><th>Reference&#xA0;Range</th><th>Unit</th></tr></thead><tbody><tr><td>Hemoglobin A1c/Hemoglobin.total in Blood</td><td><strong>2.9 L</strong></td><td>4.5 - 6.4</td><td>%</td></tr><tr><td>Glucose [Mass/volume] in Blood</td><td>83.2</td><td>70 - 140</td><td>mg/dL</td></tr><tr><td>Urea nitrogen [Mass/volume] in Blood</td><td>7.8</td><td>7 - 30</td><td>mg/dL</td></tr><tr><td>Creatinine [Mass/volume] in Blood</td><td>0.7</td><td>0.5 - 1.3</td><td>mg/dL</td></tr><tr><td>Calcium [Mass/volume] in Blood</td><td>10.1</td><td>8.6 - 10.2</td><td>mg/dL</td></tr><tr><td>Sodium [Moles/volume] in Blood</td><td>139.6</td><td>135 - 145</td><td>mmol/L</td></tr><tr><td>Potassium [Moles/volume] in Blood</td><td>4.1</td><td>3.5 - 5.1</td><td>mmol/L</td></tr><tr><td>Chloride [Moles/volume] in Blood</td><td>104.6</td><td>98 - 114</td><td>mmol/L</td></tr><tr><td>Carbon dioxide, total [Moles/volume] in Blood</td><td><strong>20.1 L</strong></td><td>22 - 32</td><td>mmol/L</td></tr></tbody></table></div>"
                },
                "title": "Chemistry"
              }
            ],
            "title": "Laboratory Report"
          },
          {
            "text": {
              "status": "generated",
              "div": "<div xmlns=\"http://www.w3.org/1999/xhtml\"><h3>Annotation</h3><table class=\"hl7__eu__lab__report\"><tr><th>Conclusion and Recommendations based on this report and previous findings known to us</th></tr><tr><td>The patient shows a markedly low HbA1c, which may suggest recent hypoglycemia, anemia, or altered red cell turnover; clinical correlation is advised. All other parameters are within normal limits except for mildly decreased total CO₂, which may indicate mild metabolic acidosis or compensated respiratory alkalosis. No acute renal or electrolyte disturbances are evident.</td></tr></table></div>"
            },
            "code": {
              "coding": [
                {
                  "system": "http://loinc.org",
                  "code": "48767-8",
                  "display": "Annotation comment"
                }
              ]
            },
            "title": "Annotation comment"
          }
        ],
        "status": "final",
        "subject": {
          "reference": "urn:uuid:281e821e-5701-4cdf-9cbc-561eba890e3d",
          "display": "Maria Nohlmans"
        },
        "date": "2022-05-04T13:02:39Z",
        "title": "Laboratory Report",
        "confidentiality": "N"
      }
    },
    {
      "fullUrl": "urn:uuid:ebe73fb4-91b9-489f-970a-a3f7cbbd986b",
      "resource": {
        "resourceType": "DiagnosticReport",
        "id": "ebe73fb4-91b9-489f-970a-a3f7cbbd986b",
        "meta": {
          "profile": [
            "http://hl7.eu/fhir/laboratory/StructureDefinition/DiagnosticReport-eu-lab"
          ]
        },
        "identifier": [
          {
            "assigner": {
              "display": "HL7 Europe"
            },
            "system": "urn:oid:2.16.840.1.113883.2.51.999",
            "value": "291aebef-5732-47e2-8f5d-a48ec21a560f"
          }
        ],
        "extension": [
          {
            "url": "http://hl7.org/fhir/5.0/StructureDefinition/extension-DiagnosticReport.composition",
            "valueReference": {
              "reference": "urn:uuid:cd7d8ae3-5970-409c-94e3-4de193f7c438"
            }
          }
        ],
        "category": [
          {
            "coding": [
              {
                "code": "26436-6",
                "system": "http://loinc.org",
                "display": "Laboratory studies (set)"
              }
            ]
          }
        ],
        "specimen": [
          {
            "reference": "urn:uuid:9a7bc3d1-c6c4-4d94-bde1-9f6db7ab689a"
          }
        ],
        "result": [
          {
            "reference": "urn:uuid:1a51822c-9127-4fcf-bc81-6b2de07a5348"
          },
          {
            "reference": "urn:uuid:46a33a5b-c227-4bfa-87d1-aba8ad0be885"
          },
          {
            "reference": "urn:uuid:cdf31531-ea92-4e0a-bd12-aabf47c4341b"
          },
          {
            "reference": "urn:uuid:b2b3ed42-0165-43e1-bbee-698dbec72d18"
          },
          {
            "reference": "urn:uuid:e12779b1-6f3d-49a0-b488-6c618c6b77e5"
          },
          {
            "reference": "urn:uuid:4a55640d-4d98-4cc3-9b53-b933d59c891e"
          },
          {
            "reference": "urn:uuid:4758ddca-c1b5-439e-a450-b1fb316a2267"
          },
          {
            "reference": "urn:uuid:6930155d-f1f9-44d8-9284-e789db8ab694"
          },
          {
            "reference": "urn:uuid:a864ce84-6b16-4065-83ed-fd7d05d73ee9"
          }
        ],
        "status": "registered",
        "code": {
          "coding": [
            {
              "code": "11502-2",
              "system": "http://loinc.org",
              "display": "Laboratory report"
            }
          ]
        },
        "subject": {
          "reference": "urn:uuid:281e821e-5701-4cdf-9cbc-561eba890e3d",
          "display": "Maria Nohlmans"
        }
      }
    },
    {
      "fullUrl": "urn:uuid:281e821e-5701-4cdf-9cbc-561eba890e3d",
      "resource": {
        "resourceType": "Patient",
        "id": "281e821e-5701-4cdf-9cbc-561eba890e3d",
        "meta": {
          "security": [
            {
              "system": "http://terminology.hl7.org/CodeSystem/v3-ActReason",
              "code": "HTEST"
            },
            {
              "system": "http://terminology.hl7.org/CodeSystem/v3-ActReason",
              "code": "TRAIN"
            }
          ],
          "tag": [
            {
              "system": "https://synderai.net/fhir/CodeSystem/tags",
              "code": "synthetic",
              "display": "SYNDERAI Synthetic data"
            }
          ],
          "profile": [
            "http://hl7.eu/fhir/base/StructureDefinition/patient-eu-core"
          ]
        },
        "identifier": [
          {
            "type": {
              "coding": [
                {
                  "code": "PT",
                  "system": "http://terminology.hl7.org/CodeSystem/v2-0203"
                }
              ]
            },
            "system": "http://ec.europa.eu/identifier/eci",
            "value": "6886-506417-1"
          },
          {
            "type": {
              "coding": [
                {
                  "code": "MR",
                  "system": "http://terminology.hl7.org/CodeSystem/v2-0203"
                }
              ]
            },
            "system": "http://local.setting.eu/identifier",
            "value": "2cb21ed6-b617-b1f3-2290-589a710de5ee"
          }
        ],
        "name": [
          {
            "family": "Nohlmans"
          },
          {
            "given": [
              "Maria"
            ]
          },
          {
            "text": "Maria Nohlmans"
          }
        ],
        "address": [
          {
            "line": [
              "Alfons-Wulff-Weg 1"
            ],
            "use": "home",
            "type": "physical",
            "postalCode": "25813",
            "city": "Husum",
            "country": "Germany"
          }
        ],
        "telecom": [
          {
            "system": "phone",
            "value": "+49(0)1911 105501"
          }
        ],
        "extension": [
          {
            "url": "http://hl7.org/fhir/StructureDefinition/patient-nationality",
            "valueCodeableConcept": {
              "coding": [
                {
                  "code": "DE",
                  "system": "http://hl7.org/fhir/ValueSet/country"
                }
              ]
            }
          }
        ],
        "text": {
          "status": "generated",
          "div": "<div xmlns=\"http://www.w3.org/1999/xhtml\"><table class=\"hl7__ips\"><tr><td>Maria Nohlmans</td><td>female</td><td>11-Jun-1947</td></tr></table></div>"
        },
        "gender": "female",
        "birthDate": "1947-06-11"
      }
    },
    {
      "fullUrl": "urn:uuid:7d4dcf23-a5a9-4f7b-b23c-6bf5e5141910",
      "resource": {
        "resourceType": "ServiceRequest",
        "id": "7d4dcf23-a5a9-4f7b-b23c-6bf5e5141910",
        "meta": {
          "profile": [
            "http://hl7.eu/fhir/laboratory/StructureDefinition/ServiceRequest-eu-lab"
          ]
        },
        "identifier": [
          {
            "system": "http://example.org",
            "value": "50ed44b0-ee85-43aa-a07f-708c8e1466e5"
          }
        ],
        "specimen": [
          {
            "reference": "urn:uuid:9a7bc3d1-c6c4-4d94-bde1-9f6db7ab689a"
          }
        ],
        "reasonCode": [
          {
            "coding": [
              {
                "code": "401314000",
                "system": "http://snomed.info/sct",
                "display": "Acute non-ST segment elevation myocardial infarction"
              }
            ]
          },
          {
            "coding": [
              {
                "code": "157141000119108",
                "system": "http://snomed.info/sct",
                "display": "Proteinuria due to type 2 diabetes mellitus"
              }
            ]
          },
          {
            "coding": [
              {
                "code": "237602007",
                "system": "http://snomed.info/sct",
                "display": "Metabolic syndrome X"
              }
            ]
          },
          {
            "coding": [
              {
                "code": "90781000119102",
                "system": "http://snomed.info/sct",
                "display": "Microalbuminuria due to type 2 diabetes mellitus"
              }
            ]
          },
          {
            "coding": [
              {
                "code": "127013003",
                "system": "http://snomed.info/sct",
                "display": "Disorder of kidney due to diabetes mellitus"
              }
            ]
          },
          {
            "coding": [
              {
                "code": "59621000",
                "system": "http://snomed.info/sct",
                "display": "Essential hypertension"
              }
            ]
          },
          {
            "coding": [
              {
                "code": "271737000",
                "system": "http://snomed.info/sct",
                "display": "Anemia"
              }
            ]
          },
          {
            "coding": [
              {
                "code": "15777000",
                "system": "http://snomed.info/sct",
                "display": "Prediabetes"
              }
            ]
          }
        ],
        "status": "active",
        "intent": "order",
        "code": {
          "coding": [
            {
              "code": "108252007",
              "system": "http://snomed.info/sct",
              "display": "Laboratory procedure"
            }
          ]
        },
        "subject": {
          "reference": "urn:uuid:281e821e-5701-4cdf-9cbc-561eba890e3d",
          "display": "Maria Nohlmans"
        },
        "requester": {
          "reference": "urn:uuid:4300c2df-fdba-4243-8416-ce5cac951c05"
        }
      }
    },
    {
      "fullUrl": "urn:uuid:4300c2df-fdba-4243-8416-ce5cac951c05",
      "resource": {
        "resourceType": "PractitionerRole",
        "id": "4300c2df-fdba-4243-8416-ce5cac951c05",
        "meta": {
          "profile": [
            "http://hl7.eu/fhir/base/StructureDefinition/practitionerRole-eu"
          ]
        },
        "text": {
          "status": "generated",
          "div": "<div xmlns=\"http://www.w3.org/1999/xhtml\">Provider Role Id: 4300c2df-fdba-4243-8416-ce5cac951c05</div>"
        },
        "organization": {
          "reference": "urn:uuid:212556d1-b6dc-4a29-be0d-311e033a56c3"
        }
      }
    },
    {
      "fullUrl": "urn:uuid:212556d1-b6dc-4a29-be0d-311e033a56c3",
      "resource": {
        "resourceType": "Organization",
        "id": "212556d1-b6dc-4a29-be0d-311e033a56c3",
        "meta": {
          "profile": [
            "http://hl7.eu/fhir/base/StructureDefinition/organization-eu"
          ]
        },
        "identifier": [
          {
            "assigner": {
              "display": "HL7 Europe"
            },
            "system": "urn:oid:2.16.840.1.113883.2.51.999",
            "value": "ce60812e-1cd4-461f-876c-6f95e64d47c3"
          }
        ],
        "address": [
          {
            "line": [
              "Brinckmannstraße 35"
            ],
            "city": "Husum",
            "postalCode": "25813",
            "country": "Germany"
          }
        ],
        "text": {
          "status": "generated",
          "div": "<div xmlns=\"http://www.w3.org/1999/xhtml\">Provider Organization: Dr. Wolfram Hussels Kieferorthopäde</div>"
        },
        "name": "Dr. Wolfram Hussels Kieferorthopäde"
      }
    },
    {
      "fullUrl": "urn:uuid:9a7bc3d1-c6c4-4d94-bde1-9f6db7ab689a",
      "resource": {
        "resourceType": "Specimen",
        "id": "9a7bc3d1-c6c4-4d94-bde1-9f6db7ab689a",
        "meta": {
          "profile": [
            "http://hl7.eu/fhir/laboratory/StructureDefinition/Specimen-eu-lab"
          ]
        },
        "collection": {
          "collectedDateTime": "2022-05-04"
        },
        "text": {
          "status": "generated",
          "div": "<div xmlns=\"http://www.w3.org/1999/xhtml\"><table class=\"hl7__eu__lab__report\"><tr><th>Specimen</th><th>Collection Date</th></tr><tr><td>Whole blood specimen (specimen)</td><td><span class=\"nb\">04-May-2022</span></td></tr></table></div>"
        },
        "type": {
          "coding": [
            {
              "code": "258580003",
              "system": "http://snomed.info/sct",
              "display": "Whole blood specimen (specimen)"
            }
          ]
        }
      }
    },
    {
      "fullUrl": "urn:uuid:1a51822c-9127-4fcf-bc81-6b2de07a5348",
      "resource": {
        "resourceType": "Observation",
        "id": "1a51822c-9127-4fcf-bc81-6b2de07a5348",
        "meta": {
          "profile": [
            "http://hl7.eu/fhir/laboratory/StructureDefinition/Observation-resultslab-eu-lab"
          ]
        },
        "performer": [
          {
            "display": "The Central European Lab"
          }
        ],
        "category": [
          {
            "coding": [
              {
                "system": "http://terminology.hl7.org/CodeSystem/observation-category",
                "code": "laboratory"
              }
            ]
          }
        ],
        "code": {
          "coding": [
            {
              "code": "4548-4",
              "system": "http://loinc.org",
              "display": "Hemoglobin A1c/Hemoglobin.total in Blood"
            }
          ],
          "text": "Hemoglobin A1c/Hemoglobin.total in Blood"
        },
        "valueQuantity": {
          "system": "http://unitsofmeasure.org",
          "value": 2.9,
          "unit": "%",
          "code": "%"
        },
        "referenceRange": [
          {
            "low": {
              "value": 4.5,
              "code": "%",
              "system": "http://unitsofmeasure.org"
            }
          },
          {
            "high": {
              "value": 6.4,
              "code": "%",
              "system": "http://unitsofmeasure.org"
            }
          }
        ],
        "interpretation": [
          {
            "coding": [
              {
                "code": "L",
                "system": "http://terminology.hl7.org/CodeSystem/v3-ObservationInterpretation",
                "display": "Low"
              }
            ]
          }
        ],
        "text": {
          "status": "generated",
          "div": "<div xmlns=\"http://www.w3.org/1999/xhtml\"><table class=\"hl7__eu__lab__report\"><tr><th>Test</th><th>04-May-2022</th><th>Reference&#xA0;Range</th><th>Unit</th></tr><tr><td>Hemoglobin A1c/Hemoglobin.total in Blood</td><td>2.9</td><td>4.5 - 6.4</td><td>L</td><td>%</td></tr></table></div>"
        },
        "status": "final",
        "subject": {
          "reference": "urn:uuid:281e821e-5701-4cdf-9cbc-561eba890e3d",
          "display": "Maria Nohlmans"
        },
        "effectiveDateTime": "2022-05-04T11:02:39Z",
        "specimen": {
          "reference": "urn:uuid:9a7bc3d1-c6c4-4d94-bde1-9f6db7ab689a"
        }
      }
    },
    {
      "fullUrl": "urn:uuid:46a33a5b-c227-4bfa-87d1-aba8ad0be885",
      "resource": {
        "resourceType": "Observation",
        "id": "46a33a5b-c227-4bfa-87d1-aba8ad0be885",
        "meta": {
          "profile": [
            "http://hl7.eu/fhir/laboratory/StructureDefinition/Observation-resultslab-eu-lab"
          ]
        },
        "performer": [
          {
            "display": "The Central European Lab"
          }
        ],
        "category": [
          {
            "coding": [
              {
                "system": "http://terminology.hl7.org/CodeSystem/observation-category",
                "code": "laboratory"
              }
            ]
          }
        ],
        "code": {
          "coding": [
            {
              "code": "2339-0",
              "system": "http://loinc.org",
              "display": "Glucose [Mass/volume] in Blood"
            }
          ],
          "text": "Glucose [Mass/volume] in Blood"
        },
        "valueQuantity": {
          "system": "http://unitsofmeasure.org",
          "value": 83.2,
          "unit": "mg/dL",
          "code": "mg/dL"
        },
        "referenceRange": [
          {
            "low": {
              "value": 70,
              "code": "mg/dL",
              "system": "http://unitsofmeasure.org"
            }
          },
          {
            "high": {
              "value": 140,
              "code": "mg/dL",
              "system": "http://unitsofmeasure.org"
            }
          }
        ],
        "text": {
          "status": "generated",
          "div": "<div xmlns=\"http://www.w3.org/1999/xhtml\"><table class=\"hl7__eu__lab__report\"><tr><th>Test</th><th>04-May-2022</th><th>Reference&#xA0;Range</th><th>Unit</th></tr><tr><td>Glucose [Mass/volume] in Blood</td><td>83.2</td><td>70 - 140</td><td></td><td>mg/dL</td></tr></table></div>"
        },
        "status": "final",
        "subject": {
          "reference": "urn:uuid:281e821e-5701-4cdf-9cbc-561eba890e3d",
          "display": "Maria Nohlmans"
        },
        "effectiveDateTime": "2022-05-04T11:02:39Z",
        "specimen": {
          "reference": "urn:uuid:9a7bc3d1-c6c4-4d94-bde1-9f6db7ab689a"
        }
      }
    },
    {
      "fullUrl": "urn:uuid:cdf31531-ea92-4e0a-bd12-aabf47c4341b",
      "resource": {
        "resourceType": "Observation",
        "id": "cdf31531-ea92-4e0a-bd12-aabf47c4341b",
        "meta": {
          "profile": [
            "http://hl7.eu/fhir/laboratory/StructureDefinition/Observation-resultslab-eu-lab"
          ]
        },
        "performer": [
          {
            "display": "The Central European Lab"
          }
        ],
        "category": [
          {
            "coding": [
              {
                "system": "http://terminology.hl7.org/CodeSystem/observation-category",
                "code": "laboratory"
              }
            ]
          }
        ],
        "code": {
          "coding": [
            {
              "code": "6299-2",
              "system": "http://loinc.org",
              "display": "Urea nitrogen [Mass/volume] in Blood"
            }
          ],
          "text": "Urea nitrogen [Mass/volume] in Blood"
        },
        "valueQuantity": {
          "system": "http://unitsofmeasure.org",
          "value": 7.8,
          "unit": "mg/dL",
          "code": "mg/dL"
        },
        "referenceRange": [
          {
            "low": {
              "value": 7,
              "code": "mg/dL",
              "system": "http://unitsofmeasure.org"
            }
          },
          {
            "high": {
              "value": 30,
              "code": "mg/dL",
              "system": "http://unitsofmeasure.org"
            }
          }
        ],
        "text": {
          "status": "generated",
          "div": "<div xmlns=\"http://www.w3.org/1999/xhtml\"><table class=\"hl7__eu__lab__report\"><tr><th>Test</th><th>04-May-2022</th><th>Reference&#xA0;Range</th><th>Unit</th></tr><tr><td>Urea nitrogen [Mass/volume] in Blood</td><td>7.8</td><td>7 - 30</td><td></td><td>mg/dL</td></tr></table></div>"
        },
        "status": "final",
        "subject": {
          "reference": "urn:uuid:281e821e-5701-4cdf-9cbc-561eba890e3d",
          "display": "Maria Nohlmans"
        },
        "effectiveDateTime": "2022-05-04T11:02:39Z",
        "specimen": {
          "reference": "urn:uuid:9a7bc3d1-c6c4-4d94-bde1-9f6db7ab689a"
        }
      }
    },
    {
      "fullUrl": "urn:uuid:b2b3ed42-0165-43e1-bbee-698dbec72d18",
      "resource": {
        "resourceType": "Observation",
        "id": "b2b3ed42-0165-43e1-bbee-698dbec72d18",
        "meta": {
          "profile": [
            "http://hl7.eu/fhir/laboratory/StructureDefinition/Observation-resultslab-eu-lab"
          ]
        },
        "performer": [
          {
            "display": "The Central European Lab"
          }
        ],
        "category": [
          {
            "coding": [
              {
                "system": "http://terminology.hl7.org/CodeSystem/observation-category",
                "code": "laboratory"
              }
            ]
          }
        ],
        "code": {
          "coding": [
            {
              "code": "38483-4",
              "system": "http://loinc.org",
              "display": "Creatinine [Mass/volume] in Blood"
            }
          ],
          "text": "Creatinine [Mass/volume] in Blood"
        },
        "valueQuantity": {
          "system": "http://unitsofmeasure.org",
          "value": 0.7,
          "unit": "mg/dL",
          "code": "mg/dL"
        },
        "referenceRange": [
          {
            "low": {
              "value": 0.5,
              "code": "mg/dL",
              "system": "http://unitsofmeasure.org"
            }
          },
          {
            "high": {
              "value": 1.3,
              "code": "mg/dL",
              "system": "http://unitsofmeasure.org"
            }
          }
        ],
        "text": {
          "status": "generated",
          "div": "<div xmlns=\"http://www.w3.org/1999/xhtml\"><table class=\"hl7__eu__lab__report\"><tr><th>Test</th><th>04-May-2022</th><th>Reference&#xA0;Range</th><th>Unit</th></tr><tr><td>Creatinine [Mass/volume] in Blood</td><td>0.7</td><td>0.5 - 1.3</td><td></td><td>mg/dL</td></tr></table></div>"
        },
        "status": "final",
        "subject": {
          "reference": "urn:uuid:281e821e-5701-4cdf-9cbc-561eba890e3d",
          "display": "Maria Nohlmans"
        },
        "effectiveDateTime": "2022-05-04T11:02:39Z",
        "specimen": {
          "reference": "urn:uuid:9a7bc3d1-c6c4-4d94-bde1-9f6db7ab689a"
        }
      }
    },
    {
      "fullUrl": "urn:uuid:e12779b1-6f3d-49a0-b488-6c618c6b77e5",
      "resource": {
        "resourceType": "Observation",
        "id": "e12779b1-6f3d-49a0-b488-6c618c6b77e5",
        "meta": {
          "profile": [
            "http://hl7.eu/fhir/laboratory/StructureDefinition/Observation-resultslab-eu-lab"
          ]
        },
        "performer": [
          {
            "display": "The Central European Lab"
          }
        ],
        "category": [
          {
            "coding": [
              {
                "system": "http://terminology.hl7.org/CodeSystem/observation-category",
                "code": "laboratory"
              }
            ]
          }
        ],
        "code": {
          "coding": [
            {
              "code": "49765-1",
              "system": "http://loinc.org",
              "display": "Calcium [Mass/volume] in Blood"
            }
          ],
          "text": "Calcium [Mass/volume] in Blood"
        },
        "valueQuantity": {
          "system": "http://unitsofmeasure.org",
          "value": 10.1,
          "unit": "mg/dL",
          "code": "mg/dL"
        },
        "referenceRange": [
          {
            "low": {
              "value": 8.6,
              "code": "mg/dL",
              "system": "http://unitsofmeasure.org"
            }
          },
          {
            "high": {
              "value": 10.2,
              "code": "mg/dL",
              "system": "http://unitsofmeasure.org"
            }
          }
        ],
        "text": {
          "status": "generated",
          "div": "<div xmlns=\"http://www.w3.org/1999/xhtml\"><table class=\"hl7__eu__lab__report\"><tr><th>Test</th><th>04-May-2022</th><th>Reference&#xA0;Range</th><th>Unit</th></tr><tr><td>Calcium [Mass/volume] in Blood</td><td>10.1</td><td>8.6 - 10.2</td><td></td><td>mg/dL</td></tr></table></div>"
        },
        "status": "final",
        "subject": {
          "reference": "urn:uuid:281e821e-5701-4cdf-9cbc-561eba890e3d",
          "display": "Maria Nohlmans"
        },
        "effectiveDateTime": "2022-05-04T11:02:39Z",
        "specimen": {
          "reference": "urn:uuid:9a7bc3d1-c6c4-4d94-bde1-9f6db7ab689a"
        }
      }
    },
    {
      "fullUrl": "urn:uuid:4a55640d-4d98-4cc3-9b53-b933d59c891e",
      "resource": {
        "resourceType": "Observation",
        "id": "4a55640d-4d98-4cc3-9b53-b933d59c891e",
        "meta": {
          "profile": [
            "http://hl7.eu/fhir/laboratory/StructureDefinition/Observation-resultslab-eu-lab"
          ]
        },
        "performer": [
          {
            "display": "The Central European Lab"
          }
        ],
        "category": [
          {
            "coding": [
              {
                "system": "http://terminology.hl7.org/CodeSystem/observation-category",
                "code": "laboratory"
              }
            ]
          }
        ],
        "code": {
          "coding": [
            {
              "code": "2947-0",
              "system": "http://loinc.org",
              "display": "Sodium [Moles/volume] in Blood"
            }
          ],
          "text": "Sodium [Moles/volume] in Blood"
        },
        "valueQuantity": {
          "system": "http://unitsofmeasure.org",
          "value": 139.6,
          "unit": "mmol/L",
          "code": "mmol/L"
        },
        "referenceRange": [
          {
            "low": {
              "value": 135,
              "code": "mmol/L",
              "system": "http://unitsofmeasure.org"
            }
          },
          {
            "high": {
              "value": 145,
              "code": "mmol/L",
              "system": "http://unitsofmeasure.org"
            }
          }
        ],
        "text": {
          "status": "generated",
          "div": "<div xmlns=\"http://www.w3.org/1999/xhtml\"><table class=\"hl7__eu__lab__report\"><tr><th>Test</th><th>04-May-2022</th><th>Reference&#xA0;Range</th><th>Unit</th></tr><tr><td>Sodium [Moles/volume] in Blood</td><td>139.6</td><td>135 - 145</td><td></td><td>mmol/L</td></tr></table></div>"
        },
        "status": "final",
        "subject": {
          "reference": "urn:uuid:281e821e-5701-4cdf-9cbc-561eba890e3d",
          "display": "Maria Nohlmans"
        },
        "effectiveDateTime": "2022-05-04T11:02:39Z",
        "specimen": {
          "reference": "urn:uuid:9a7bc3d1-c6c4-4d94-bde1-9f6db7ab689a"
        }
      }
    },
    {
      "fullUrl": "urn:uuid:4758ddca-c1b5-439e-a450-b1fb316a2267",
      "resource": {
        "resourceType": "Observation",
        "id": "4758ddca-c1b5-439e-a450-b1fb316a2267",
        "meta": {
          "profile": [
            "http://hl7.eu/fhir/laboratory/StructureDefinition/Observation-resultslab-eu-lab"
          ]
        },
        "performer": [
          {
            "display": "The Central European Lab"
          }
        ],
        "category": [
          {
            "coding": [
              {
                "system": "http://terminology.hl7.org/CodeSystem/observation-category",
                "code": "laboratory"
              }
            ]
          }
        ],
        "code": {
          "coding": [
            {
              "code": "6298-4",
              "system": "http://loinc.org",
              "display": "Potassium [Moles/volume] in Blood"
            }
          ],
          "text": "Potassium [Moles/volume] in Blood"
        },
        "valueQuantity": {
          "system": "http://unitsofmeasure.org",
          "value": 4.1,
          "unit": "mmol/L",
          "code": "mmol/L"
        },
        "referenceRange": [
          {
            "low": {
              "value": 3.5,
              "code": "mmol/L",
              "system": "http://unitsofmeasure.org"
            }
          },
          {
            "high": {
              "value": 5.1,
              "code": "mmol/L",
              "system": "http://unitsofmeasure.org"
            }
          }
        ],
        "text": {
          "status": "generated",
          "div": "<div xmlns=\"http://www.w3.org/1999/xhtml\"><table class=\"hl7__eu__lab__report\"><tr><th>Test</th><th>04-May-2022</th><th>Reference&#xA0;Range</th><th>Unit</th></tr><tr><td>Potassium [Moles/volume] in Blood</td><td>4.1</td><td>3.5 - 5.1</td><td></td><td>mmol/L</td></tr></table></div>"
        },
        "status": "final",
        "subject": {
          "reference": "urn:uuid:281e821e-5701-4cdf-9cbc-561eba890e3d",
          "display": "Maria Nohlmans"
        },
        "effectiveDateTime": "2022-05-04T11:02:39Z",
        "specimen": {
          "reference": "urn:uuid:9a7bc3d1-c6c4-4d94-bde1-9f6db7ab689a"
        }
      }
    },
    {
      "fullUrl": "urn:uuid:6930155d-f1f9-44d8-9284-e789db8ab694",
      "resource": {
        "resourceType": "Observation",
        "id": "6930155d-f1f9-44d8-9284-e789db8ab694",
        "meta": {
          "profile": [
            "http://hl7.eu/fhir/laboratory/StructureDefinition/Observation-resultslab-eu-lab"
          ]
        },
        "performer": [
          {
            "display": "The Central European Lab"
          }
        ],
        "category": [
          {
            "coding": [
              {
                "system": "http://terminology.hl7.org/CodeSystem/observation-category",
                "code": "laboratory"
              }
            ]
          }
        ],
        "code": {
          "coding": [
            {
              "code": "2069-3",
              "system": "http://loinc.org",
              "display": "Chloride [Moles/volume] in Blood"
            }
          ],
          "text": "Chloride [Moles/volume] in Blood"
        },
        "valueQuantity": {
          "system": "http://unitsofmeasure.org",
          "value": 104.6,
          "unit": "mmol/L",
          "code": "mmol/L"
        },
        "referenceRange": [
          {
            "low": {
              "value": 98,
              "code": "mmol/L",
              "system": "http://unitsofmeasure.org"
            }
          },
          {
            "high": {
              "value": 114,
              "code": "mmol/L",
              "system": "http://unitsofmeasure.org"
            }
          }
        ],
        "text": {
          "status": "generated",
          "div": "<div xmlns=\"http://www.w3.org/1999/xhtml\"><table class=\"hl7__eu__lab__report\"><tr><th>Test</th><th>04-May-2022</th><th>Reference&#xA0;Range</th><th>Unit</th></tr><tr><td>Chloride [Moles/volume] in Blood</td><td>104.6</td><td>98 - 114</td><td></td><td>mmol/L</td></tr></table></div>"
        },
        "status": "final",
        "subject": {
          "reference": "urn:uuid:281e821e-5701-4cdf-9cbc-561eba890e3d",
          "display": "Maria Nohlmans"
        },
        "effectiveDateTime": "2022-05-04T11:02:39Z",
        "specimen": {
          "reference": "urn:uuid:9a7bc3d1-c6c4-4d94-bde1-9f6db7ab689a"
        }
      }
    },
    {
      "fullUrl": "urn:uuid:a864ce84-6b16-4065-83ed-fd7d05d73ee9",
      "resource": {
        "resourceType": "Observation",
        "id": "a864ce84-6b16-4065-83ed-fd7d05d73ee9",
        "meta": {
          "profile": [
            "http://hl7.eu/fhir/laboratory/StructureDefinition/Observation-resultslab-eu-lab"
          ]
        },
        "performer": [
          {
            "display": "The Central European Lab"
          }
        ],
        "category": [
          {
            "coding": [
              {
                "system": "http://terminology.hl7.org/CodeSystem/observation-category",
                "code": "laboratory"
              }
            ]
          }
        ],
        "code": {
          "coding": [
            {
              "code": "20565-8",
              "system": "http://loinc.org",
              "display": "Carbon dioxide, total [Moles/volume] in Blood"
            }
          ],
          "text": "Carbon dioxide, total [Moles/volume] in Blood"
        },
        "valueQuantity": {
          "system": "http://unitsofmeasure.org",
          "value": 20.1,
          "unit": "mmol/L",
          "code": "mmol/L"
        },
        "referenceRange": [
          {
            "low": {
              "value": 22,
              "code": "mmol/L",
              "system": "http://unitsofmeasure.org"
            }
          },
          {
            "high": {
              "value": 32,
              "code": "mmol/L",
              "system": "http://unitsofmeasure.org"
            }
          }
        ],
        "interpretation": [
          {
            "coding": [
              {
                "code": "L",
                "system": "http://terminology.hl7.org/CodeSystem/v3-ObservationInterpretation",
                "display": "Low"
              }
            ]
          }
        ],
        "text": {
          "status": "generated",
          "div": "<div xmlns=\"http://www.w3.org/1999/xhtml\"><table class=\"hl7__eu__lab__report\"><tr><th>Test</th><th>04-May-2022</th><th>Reference&#xA0;Range</th><th>Unit</th></tr><tr><td>Carbon dioxide, total [Moles/volume] in Blood</td><td>20.1</td><td>22 - 32</td><td>L</td><td>mmol/L</td></tr></table></div>"
        },
        "status": "final",
        "subject": {
          "reference": "urn:uuid:281e821e-5701-4cdf-9cbc-561eba890e3d",
          "display": "Maria Nohlmans"
        },
        "effectiveDateTime": "2022-05-04T11:02:39Z",
        "specimen": {
          "reference": "urn:uuid:9a7bc3d1-c6c4-4d94-bde1-9f6db7ab689a"
        }
      }
    },
    {
      "fullUrl": "urn:uuid:4b51b0fb-372f-4097-bd68-1b2caf5e2473",
      "resource": {
        "resourceType": "Device",
        "id": "4b51b0fb-372f-4097-bd68-1b2caf5e2473",
        "deviceName": [
          {
            "name": "SYNDERAI Synthetic Generator",
            "type": "manufacturer-name"
          }
        ],
        "version": [
          {
            "value": "5.0"
          }
        ],
        "text": {
          "status": "generated",
          "div": "<div xmlns=\"http://www.w3.org/1999/xhtml\">SYNDERAI Synthetic Generator v5.0</div>"
        },
        "status": "active\"",
        "distinctIdentifier": "synderai-generator-50",
        "manufacturer": "SYNDERAI Project"
      }
    },
    {
      "fullUrl": "urn:uuid:532c066c-0181-4c0e-8284-f6e202f7f21e",
      "resource": {
        "resourceType": "Provenance",
        "id": "532c066c-0181-4c0e-8284-f6e202f7f21e",
        "target": [
          {
            "reference": "Patient/281e821e-5701-4cdf-9cbc-561eba890e3d"
          },
          {
            "reference": "Bundle/7314e1bf-e4c1-4bf8-afb6-ae1d61ec1e99"
          },
          {
            "reference": "Composition/f9fa310b-83df-4110-b4fd-597e38039cb6"
          },
          {
            "reference": "PractitionerRole/e880e67b-7ab2-464c-9b51-f283d7c1bbea"
          },
          {
            "reference": "Practitioner/4d811924-7ead-4cb8-bc2f-ffd8325579a3"
          },
          {
            "reference": "PractitionerRole/4300c2df-fdba-4243-8416-ce5cac951c05"
          },
          {
            "reference": "Organization/212556d1-b6dc-4a29-be0d-311e033a56c3"
          }
        ],
        "activity": {
          "text": "Synthetic Example Data Generation"
        },
        "policy": [
          "https://synderai.net/synderai-synthetic-data-policy"
        ],
        "agent": [
          {
            "type": {
              "text": "author"
            },
            "who": {
              "reference": "Device/4b51b0fb-372f-4097-bd68-1b2caf5e2473"
            }
          }
        ],
        "reason": [
          {
            "text": "Interoperability Testing and Training (non-clinical use)"
          }
        ],
        "text": {
          "status": "generated",
          "div": "<div xmlns=\"http://www.w3.org/1999/xhtml\">Provenance for SYNDERAI Synthetic Example Data Resource</div>"
        },
        "recorded": "2022-05-04T13:02:39Z"
      }
    },
    {
      "fullUrl": "urn:uuid:e880e67b-7ab2-464c-9b51-f283d7c1bbea",
      "resource": {
        "resourceType": "PractitionerRole",
        "id": "e880e67b-7ab2-464c-9b51-f283d7c1bbea",
        "meta": {
          "profile": [
            "http://hl7.eu/fhir/base/StructureDefinition/practitionerRole-eu"
          ]
        },
        "text": {
          "status": "generated",
          "div": "<div xmlns=\"http://www.w3.org/1999/xhtml\">Laboratory Role Id: e880e67b-7ab2-464c-9b51-f283d7c1bbea</div>"
        },
        "practitioner": {
          "reference": "urn:uuid:4d811924-7ead-4cb8-bc2f-ffd8325579a3"
        }
      }
    },
    {
      "fullUrl": "urn:uuid:4d811924-7ead-4cb8-bc2f-ffd8325579a3",
      "resource": {
        "resourceType": "Practitioner",
        "id": "4d811924-7ead-4cb8-bc2f-ffd8325579a3",
        "meta": {
          "profile": [
            "http://hl7.eu/fhir/base/StructureDefinition/practitioner-eu"
          ]
        },
        "identifier": [
          {
            "assigner": {
              "display": "HL7 Europe"
            },
            "system": "urn:oid:2.16.840.1.113883.2.51.999",
            "value": "ea7f23a1-ed86-463b-9437-ec71f84c2a07"
          }
        ],
        "name": [
          {
            "prefix": [
              "dr"
            ],
            "given": [
              "Ex"
            ],
            "family": "Ample"
          }
        ],
        "address": [
          {
            "line": [
              "Laboratoire Central Européenne",
              "Boulevard du Jardin Botanique 32"
            ],
            "postalCode": "1000",
            "city": "Brussels",
            "country": "Belgium"
          }
        ],
        "text": {
          "status": "generated",
          "div": "<div xmlns=\"http://www.w3.org/1999/xhtml\">Laboratory: Laboratoire Central Européenne, 1000 Brussels, Belgium</div>"
        }
      }
    }
  ],
  "type": "document",
  "timestamp": "2022-05-04T13:02:39Z"
}
