{
  "resourceType": "Bundle",
  "id": "1d694ffe-f731-4026-80ab-fa21e4cebf7f",
  "meta": {
    "profile": [
      "http://hl7.eu/fhir/laboratory/StructureDefinition/Bundle-eu-lab"
    ]
  },
  "identifier": {
    "assigner": {
      "display": "HL7 Europe"
    },
    "system": "urn:oid:2.16.840.1.113883.2.51.999",
    "value": "491f163b-e8d2-4e8f-ba46-cb877395f714"
  },
  "entry": [
    {
      "fullUrl": "urn:uuid:107c8089-58a0-466a-ad3a-10efb8cb3296",
      "resource": {
        "resourceType": "Composition",
        "id": "107c8089-58a0-466a-ad3a-10efb8cb3296",
        "meta": {
          "profile": [
            "http://hl7.eu/fhir/laboratory/StructureDefinition/Composition-eu-lab"
          ]
        },
        "identifier": {
          "assigner": {
            "display": "HL7 Europe"
          },
          "system": "urn:oid:2.16.840.1.113883.2.51.999",
          "value": "b97bb4bc-f33e-435b-90eb-938fe2446815"
        },
        "author": [
          {
            "reference": "urn:uuid:9c228c2f-8612-45d3-9347-5655f8334559"
          }
        ],
        "category": [
          {
            "coding": [
              {
                "code": "26436-6",
                "system": "http://loinc.org",
                "display": "Laboratory studies (set)"
              }
            ]
          }
        ],
        "type": {
          "coding": [
            {
              "code": "11502-2",
              "system": "http://loinc.org",
              "display": "Laboratory report"
            }
          ],
          "text": "Laboratory Report"
        },
        "section": [
          {
            "code": {
              "coding": [
                {
                  "code": "26436-6",
                  "system": "http://loinc.org",
                  "display": "Laboratory studies (set)"
                }
              ],
              "text": "Laboratory studies"
            },
            "section": [
              {
                "code": {
                  "coding": [
                    {
                      "code": "$18719-5",
                      "system": "http://loinc.org",
                      "display": "Chemistry studies (set)"
                    }
                  ],
                  "text": "Chemistry"
                },
                "entry": [
                  {
                    "reference": "urn:uuid:f907e062-239c-4e53-a4a1-94caab067a67"
                  },
                  {
                    "reference": "urn:uuid:5f8629e9-b453-421b-bedf-532901a2907f"
                  },
                  {
                    "reference": "urn:uuid:376aeac0-0e47-47af-adc2-bf6393e8eb62"
                  },
                  {
                    "reference": "urn:uuid:56b6b0dd-a9eb-4a49-982a-2f86892a194a"
                  },
                  {
                    "reference": "urn:uuid:04ebb89f-0bb1-4d18-bd7c-4c534960d40f"
                  },
                  {
                    "reference": "urn:uuid:05dfb7d8-d32c-48a6-8ea3-6b6e9cd8ad57"
                  },
                  {
                    "reference": "urn:uuid:85d3612e-da5c-48d9-a626-232ead67fffe"
                  },
                  {
                    "reference": "urn:uuid:9478db6b-3c75-4225-bea8-291df0e38f59"
                  },
                  {
                    "reference": "urn:uuid:b36cc14e-a87c-4d77-91ae-e4e9a3fa3abf"
                  },
                  {
                    "reference": "urn:uuid:bfefbec1-31ee-406a-9a3c-b9e3fc624852"
                  },
                  {
                    "reference": "urn:uuid:e87d0ae3-2445-4dd5-9eda-f0f21d6b2fde"
                  },
                  {
                    "reference": "urn:uuid:e6839a65-ce6f-478e-a355-af7511ae046f"
                  },
                  {
                    "reference": "urn:uuid:844d45d3-e441-4f83-b1ac-29e557be3585"
                  },
                  {
                    "reference": "urn:uuid:ec878df3-b9e7-44df-9c65-e7e91297b762"
                  },
                  {
                    "reference": "urn:uuid:d1492095-8f2c-4801-99fc-eed125390bc5"
                  },
                  {
                    "reference": "urn:uuid:fd9b12d5-54e5-4371-b4f5-dc75661511db"
                  },
                  {
                    "reference": "urn:uuid:fcfa75b5-ab70-4c85-8a68-5a638ee6f0ad"
                  },
                  {
                    "reference": "urn:uuid:e73d4b8f-94fb-42a5-b048-b229e1da759f"
                  }
                ],
                "text": {
                  "status": "generated",
                  "div": "<div xmlns=\"http://www.w3.org/1999/xhtml\"><h3>Chemistry</h3><table class=\"hl7__eu__lab__report\"><thead><tr><th>Test</th><th>03-AUG-2023</th><th>Reference&#xA0;Range</th><th>Unit</th></tr></thead><tbody><tr><td>Glucose [Mass/volume] in Serum or Plasma</td><td>81.2</td><td>70 - 139</td><td>mg/dL</td></tr><tr><td>Urea nitrogen [Mass/volume] in Serum or Plasma</td><td>18.6</td><td>7 - 20</td><td>mg/dL</td></tr><tr><td>Creatinine [Mass/volume] in Serum or Plasma</td><td><strong>2.0 H</strong></td><td>0.6 - 1.1</td><td>mg/dL</td></tr><tr><td>Calcium [Mass/volume] in Serum or Plasma</td><td>9.9</td><td>8.5 - 10.4</td><td>mg/dL</td></tr><tr><td>Sodium [Moles/volume] in Serum or Plasma</td><td>137.5</td><td>135 - 145</td><td>mmol/L</td></tr><tr><td>Potassium [Moles/volume] in Serum or Plasma</td><td>5.1</td><td>3.5 - 5.1</td><td>mmol/L</td></tr><tr><td>Chloride [Moles/volume] in Serum or Plasma</td><td>104.5</td><td>98 - 110</td><td>mmol/L</td></tr><tr><td>Carbon dioxide, total [Moles/volume] in Serum or Plasma</td><td>27.7</td><td>22 - 32</td><td>mmol/L</td></tr><tr><td>Ketones [Presence] in Urine by Test strip</td><td>Urine ketone test = +</td><td></td><td></td></tr><tr><td>Hemoglobin A1c/Hemoglobin.total in Blood</td><td><strong>3.0 L</strong></td><td>4 - 6</td><td>%</td></tr><tr><td>Glucose [Mass/volume] in Blood</td><td>81.2</td><td>70 - 100</td><td>mg/dL</td></tr><tr><td>Urea nitrogen [Mass/volume] in Blood</td><td>18.6</td><td>7 - 20</td><td>mg/dL</td></tr><tr><td>Creatinine [Mass/volume] in Blood</td><td>1.2</td><td>0.6 - 1.3</td><td>mg/dL</td></tr><tr><td>Calcium [Mass/volume] in Blood</td><td>9.9</td><td>8.6 - 10.4</td><td>mg/dL</td></tr><tr><td>Sodium [Moles/volume] in Blood</td><td>137.5</td><td>135 - 145</td><td>mmol/L</td></tr><tr><td>Potassium [Moles/volume] in Blood</td><td>5.1</td><td>3.5 - 5.1</td><td>mmol/L</td></tr><tr><td>Chloride [Moles/volume] in Blood</td><td>104.5</td><td>98 - 110</td><td>mmol/L</td></tr><tr><td>Carbon dioxide, total [Moles/volume] in Blood</td><td>27.7</td><td>22 - 29</td><td>mmol/L</td></tr></tbody></table></div>"
                },
                "title": "Chemistry"
              },
              {
                "code": {
                  "coding": [
                    {
                      "code": "$18729-4",
                      "system": "http://loinc.org",
                      "display": "Urinalysis studies (set)"
                    }
                  ],
                  "text": "Urinalysis"
                },
                "entry": [
                  {
                    "reference": "urn:uuid:bf8a5cea-a645-44b3-ae68-00673cee9681"
                  },
                  {
                    "reference": "urn:uuid:4b9fd575-cd45-4876-86da-13384a7fccd5"
                  },
                  {
                    "reference": "urn:uuid:d9a16c98-3e7f-4286-9f3f-1342e8f17d83"
                  },
                  {
                    "reference": "urn:uuid:444040de-1563-42d3-a4ec-21328655d877"
                  },
                  {
                    "reference": "urn:uuid:153daed9-b3bf-409f-9d38-13d3270ce1ba"
                  },
                  {
                    "reference": "urn:uuid:90f052db-4f87-421e-9df9-e6958ea9d216"
                  },
                  {
                    "reference": "urn:uuid:9bf90338-9b2b-4fe8-aebf-b99498f09821"
                  },
                  {
                    "reference": "urn:uuid:94d78871-d775-441f-abec-d73452242211"
                  },
                  {
                    "reference": "urn:uuid:a1aac6d7-9a0b-454a-990e-10623f3a3159"
                  },
                  {
                    "reference": "urn:uuid:28b75707-d883-493f-a6a3-b1ae9972e7fc"
                  },
                  {
                    "reference": "urn:uuid:42289e7e-06f4-44d5-a301-ca71bd815804"
                  },
                  {
                    "reference": "urn:uuid:258c250e-8559-464c-98c8-3340f5efb214"
                  }
                ],
                "text": {
                  "status": "generated",
                  "div": "<div xmlns=\"http://www.w3.org/1999/xhtml\"><h3>Urinalysis</h3><table class=\"hl7__eu__lab__report\"><thead><tr><th>Test</th><th>03-AUG-2023</th><th>Reference&#xA0;Range</th><th>Unit</th></tr></thead><tbody><tr><td>Glucose [Mass/volume] in Urine by Test strip</td><td><strong>2.2 H</strong></td><td>0 - 0</td><td>mg/dL</td></tr><tr><td>Glucose [Presence] in Urine by Test strip</td><td>++</td><td></td><td></td></tr><tr><td>Bilirubin.total [Mass/volume] in Urine by Test strip</td><td>0.9</td><td>0 - 1.6</td><td>mg/dL</td></tr><tr><td>Bilirubin.total [Presence] in Urine by Test strip</td><td>Finding of bilirubin in urine</td><td></td><td></td></tr><tr><td>Ketones [Mass/volume] in Urine by Test strip</td><td><strong>2.9 H</strong></td><td>0 - 0.5</td><td>mg/dL</td></tr><tr><td>Specific gravity of Urine by Test strip</td><td><strong>1.0 L</strong></td><td>1.005 - 1.03</td><td>{nominal}</td></tr><tr><td>pH of Urine by Test strip</td><td>5.9</td><td>4.5 - 7.5</td><td>pH</td></tr><tr><td>Protein [Mass/volume] in Urine by Test strip</td><td><strong>311.9 H</strong></td><td>0 - 15</td><td>mg/dL</td></tr><tr><td>Protein [Presence] in Urine by Test strip</td><td>Urine protein test = ++</td><td></td><td></td></tr><tr><td>Nitrite [Presence] in Urine by Test strip</td><td>Urine nitrite negative</td><td></td><td></td></tr><tr><td>Hemoglobin [Presence] in Urine by Test strip</td><td>Urine blood test = negative</td><td></td><td></td></tr><tr><td>Leukocyte esterase [Presence] in Urine by Test strip</td><td>Urine leukocyte test negative</td><td></td><td></td></tr></tbody></table></div>"
                },
                "title": "Urinalysis"
              },
              {
                "code": {
                  "coding": [
                    {
                      "code": "$LP7846-1",
                      "system": "http://loinc.org",
                      "display": "Specimen information"
                    }
                  ],
                  "text": "Specimen information"
                },
                "entry": [
                  {
                    "reference": "urn:uuid:833758c3-6c06-4463-9833-f8be33db7ed4"
                  },
                  {
                    "reference": "urn:uuid:a2dc7d32-2abc-47a2-9aa9-342703256ab0"
                  },
                  {
                    "reference": "urn:uuid:74430131-9a30-4768-a4d3-39a73392562f"
                  },
                  {
                    "reference": "urn:uuid:93961a34-9e11-4586-bd89-40fe1ca05605"
                  }
                ],
                "text": {
                  "status": "generated",
                  "div": "<div xmlns=\"http://www.w3.org/1999/xhtml\"><h3>Specimen information</h3><table class=\"hl7__eu__lab__report\"><thead><tr><th>Test</th><th>03-AUG-2023</th><th>Specimen</th><th></th></tr></thead><tbody><tr><td>Appearance of Urine</td><td>Cloudy urine</td><td>Urine</td><td></td></tr><tr><td>Odor of Urine</td><td>Urine smell ammoniacal</td><td>Urine</td><td></td></tr><tr><td>Clarity of Urine</td><td>Translucent</td><td>Urine</td><td></td></tr><tr><td>Color of Urine</td><td>Brown color</td><td>Urine</td><td></td></tr></tbody></table></div>"
                },
                "title": "Specimen information"
              }
            ],
            "title": "Laboratory Report"
          },
          {
            "text": {
              "status": "generated",
              "div": "<div xmlns=\"http://www.w3.org/1999/xhtml\"><h3>Annotation</h3><table class=\"hl7__eu__lab__report\"><tr><th>Conclusion and Recommendations based on this report and previous findings known to us</th></tr><tr><td>The patient shows elevated serum creatinine, significant proteinuria, glucosuria, and ketonuria, with low urine specific gravity and abnormal urine appearance (cloudy, brown, ammoniacal). Blood glucose and HbA1c are not elevated, suggesting non-diabetic glucosuria. These findings are suggestive of renal dysfunction, possibly tubular injury or glomerulopathy. Recommend further nephrological evaluation and assessment for underlying causes. No evidence of urinary tract infection.</td></tr></table></div>"
            },
            "code": {
              "coding": [
                {
                  "system": "http://loinc.org",
                  "code": "48767-8",
                  "display": "Annotation comment"
                }
              ]
            },
            "title": "Annotation comment"
          }
        ],
        "status": "final",
        "subject": {
          "reference": "urn:uuid:cbe9c2db-ff48-4788-ac54-078ae7b3f4d3",
          "display": "Molly Jenkins"
        },
        "date": "2023-08-03T16:42:11Z",
        "title": "Laboratory Report",
        "confidentiality": "N"
      }
    },
    {
      "fullUrl": "urn:uuid:67464131-24c5-4229-bab4-597c508ac5ea",
      "resource": {
        "resourceType": "DiagnosticReport",
        "id": "67464131-24c5-4229-bab4-597c508ac5ea",
        "meta": {
          "profile": [
            "http://hl7.eu/fhir/laboratory/StructureDefinition/DiagnosticReport-eu-lab"
          ]
        },
        "identifier": [
          {
            "assigner": {
              "display": "HL7 Europe"
            },
            "system": "urn:oid:2.16.840.1.113883.2.51.999",
            "value": "b53531c1-ed8b-4d9e-9bea-7b9e9b0f206c"
          }
        ],
        "extension": [
          {
            "url": "http://hl7.org/fhir/5.0/StructureDefinition/extension-DiagnosticReport.composition",
            "valueReference": {
              "reference": "urn:uuid:b97bb4bc-f33e-435b-90eb-938fe2446815"
            }
          }
        ],
        "category": [
          {
            "coding": [
              {
                "code": "26436-6",
                "system": "http://loinc.org",
                "display": "Laboratory studies (set)"
              }
            ]
          }
        ],
        "specimen": [
          {
            "reference": "urn:uuid:9e23a72c-5a94-4158-9aa7-f88062424ae9"
          },
          {
            "reference": "urn:uuid:0d45d9a6-c544-45fa-943a-889ef5eaa946"
          },
          {
            "reference": "urn:uuid:f12a2358-01ac-4976-89a5-30501aaa584d"
          }
        ],
        "result": [
          {
            "reference": "urn:uuid:f907e062-239c-4e53-a4a1-94caab067a67"
          },
          {
            "reference": "urn:uuid:5f8629e9-b453-421b-bedf-532901a2907f"
          },
          {
            "reference": "urn:uuid:376aeac0-0e47-47af-adc2-bf6393e8eb62"
          },
          {
            "reference": "urn:uuid:56b6b0dd-a9eb-4a49-982a-2f86892a194a"
          },
          {
            "reference": "urn:uuid:04ebb89f-0bb1-4d18-bd7c-4c534960d40f"
          },
          {
            "reference": "urn:uuid:05dfb7d8-d32c-48a6-8ea3-6b6e9cd8ad57"
          },
          {
            "reference": "urn:uuid:85d3612e-da5c-48d9-a626-232ead67fffe"
          },
          {
            "reference": "urn:uuid:9478db6b-3c75-4225-bea8-291df0e38f59"
          },
          {
            "reference": "urn:uuid:833758c3-6c06-4463-9833-f8be33db7ed4"
          },
          {
            "reference": "urn:uuid:a2dc7d32-2abc-47a2-9aa9-342703256ab0"
          },
          {
            "reference": "urn:uuid:74430131-9a30-4768-a4d3-39a73392562f"
          },
          {
            "reference": "urn:uuid:93961a34-9e11-4586-bd89-40fe1ca05605"
          },
          {
            "reference": "urn:uuid:bf8a5cea-a645-44b3-ae68-00673cee9681"
          },
          {
            "reference": "urn:uuid:4b9fd575-cd45-4876-86da-13384a7fccd5"
          },
          {
            "reference": "urn:uuid:d9a16c98-3e7f-4286-9f3f-1342e8f17d83"
          },
          {
            "reference": "urn:uuid:444040de-1563-42d3-a4ec-21328655d877"
          },
          {
            "reference": "urn:uuid:153daed9-b3bf-409f-9d38-13d3270ce1ba"
          },
          {
            "reference": "urn:uuid:b36cc14e-a87c-4d77-91ae-e4e9a3fa3abf"
          },
          {
            "reference": "urn:uuid:90f052db-4f87-421e-9df9-e6958ea9d216"
          },
          {
            "reference": "urn:uuid:9bf90338-9b2b-4fe8-aebf-b99498f09821"
          },
          {
            "reference": "urn:uuid:94d78871-d775-441f-abec-d73452242211"
          },
          {
            "reference": "urn:uuid:a1aac6d7-9a0b-454a-990e-10623f3a3159"
          },
          {
            "reference": "urn:uuid:28b75707-d883-493f-a6a3-b1ae9972e7fc"
          },
          {
            "reference": "urn:uuid:42289e7e-06f4-44d5-a301-ca71bd815804"
          },
          {
            "reference": "urn:uuid:258c250e-8559-464c-98c8-3340f5efb214"
          },
          {
            "reference": "urn:uuid:bfefbec1-31ee-406a-9a3c-b9e3fc624852"
          },
          {
            "reference": "urn:uuid:e87d0ae3-2445-4dd5-9eda-f0f21d6b2fde"
          },
          {
            "reference": "urn:uuid:e6839a65-ce6f-478e-a355-af7511ae046f"
          },
          {
            "reference": "urn:uuid:844d45d3-e441-4f83-b1ac-29e557be3585"
          },
          {
            "reference": "urn:uuid:ec878df3-b9e7-44df-9c65-e7e91297b762"
          },
          {
            "reference": "urn:uuid:d1492095-8f2c-4801-99fc-eed125390bc5"
          },
          {
            "reference": "urn:uuid:fd9b12d5-54e5-4371-b4f5-dc75661511db"
          },
          {
            "reference": "urn:uuid:fcfa75b5-ab70-4c85-8a68-5a638ee6f0ad"
          },
          {
            "reference": "urn:uuid:e73d4b8f-94fb-42a5-b048-b229e1da759f"
          }
        ],
        "status": "registered",
        "code": {
          "coding": [
            {
              "code": "11502-2",
              "system": "http://loinc.org",
              "display": "Laboratory report"
            }
          ]
        },
        "subject": {
          "reference": "urn:uuid:cbe9c2db-ff48-4788-ac54-078ae7b3f4d3",
          "display": "Molly Jenkins"
        }
      }
    },
    {
      "fullUrl": "urn:uuid:cbe9c2db-ff48-4788-ac54-078ae7b3f4d3",
      "resource": {
        "resourceType": "Patient",
        "id": "cbe9c2db-ff48-4788-ac54-078ae7b3f4d3",
        "meta": {
          "security": [
            {
              "system": "http://terminology.hl7.org/CodeSystem/v3-ActReason",
              "code": "HTEST"
            },
            {
              "system": "http://terminology.hl7.org/CodeSystem/v3-ActReason",
              "code": "TRAIN"
            }
          ],
          "tag": [
            {
              "system": "https://synderai.net/fhir/CodeSystem/tags",
              "code": "synthetic",
              "display": "SYNDERAI Synthetic data"
            }
          ],
          "profile": [
            "http://hl7.eu/fhir/base/StructureDefinition/patient-eu-core"
          ]
        },
        "identifier": [
          {
            "type": {
              "coding": [
                {
                  "code": "PT",
                  "system": "http://terminology.hl7.org/CodeSystem/v2-0203"
                }
              ]
            },
            "system": "http://ec.europa.eu/identifier/eci",
            "value": "7634-012682-0"
          },
          {
            "type": {
              "coding": [
                {
                  "code": "MR",
                  "system": "http://terminology.hl7.org/CodeSystem/v2-0203"
                }
              ]
            },
            "system": "http://local.setting.eu/identifier",
            "value": "9934a8eb-b6e1-34e1-edf5-57a0262d1bea"
          }
        ],
        "name": [
          {
            "family": "Jenkins"
          },
          {
            "given": [
              "Molly"
            ]
          },
          {
            "text": "Molly Jenkins"
          }
        ],
        "address": [
          {
            "line": [
              "98 Ali field"
            ],
            "use": "home",
            "type": "physical",
            "postalCode": "AB42",
            "city": "Port Jennamouth",
            "country": "United Kingdom"
          }
        ],
        "telecom": [
          {
            "system": "phone",
            "value": "(0118) 496 0334"
          }
        ],
        "extension": [
          {
            "url": "http://hl7.org/fhir/StructureDefinition/patient-nationality",
            "valueCodeableConcept": {
              "coding": [
                {
                  "code": "GB",
                  "system": "http://hl7.org/fhir/ValueSet/country"
                }
              ]
            }
          }
        ],
        "text": {
          "status": "generated",
          "div": "<div xmlns=\"http://www.w3.org/1999/xhtml\"><table class=\"hl7__ips\"><tr><td>Molly Jenkins</td><td>female</td><td>14-Aug-1967</td></tr></table></div>"
        },
        "gender": "female",
        "birthDate": "1967-08-14"
      }
    },
    {
      "fullUrl": "urn:uuid:58dfb48b-0ddd-48f8-b354-4d34b89ed5e7",
      "resource": {
        "resourceType": "ServiceRequest",
        "id": "58dfb48b-0ddd-48f8-b354-4d34b89ed5e7",
        "meta": {
          "profile": [
            "http://hl7.eu/fhir/laboratory/StructureDefinition/ServiceRequest-eu-lab"
          ]
        },
        "identifier": [
          {
            "system": "http://example.org",
            "value": "68d30697-50c4-474c-98c9-96ff21e7f5b0"
          }
        ],
        "specimen": [
          {
            "reference": "urn:uuid:9e23a72c-5a94-4158-9aa7-f88062424ae9"
          },
          {
            "reference": "urn:uuid:0d45d9a6-c544-45fa-943a-889ef5eaa946"
          },
          {
            "reference": "urn:uuid:f12a2358-01ac-4976-89a5-30501aaa584d"
          }
        ],
        "reasonCode": [
          {
            "coding": [
              {
                "code": "431856006",
                "system": "http://snomed.info/sct",
                "display": "Chronic kidney disease stage 2"
              }
            ]
          },
          {
            "coding": [
              {
                "code": "90781000119102",
                "system": "http://snomed.info/sct",
                "display": "Microalbuminuria due to type 2 diabetes mellitus"
              }
            ]
          },
          {
            "coding": [
              {
                "code": "127013003",
                "system": "http://snomed.info/sct",
                "display": "Disorder of kidney due to diabetes mellitus"
              }
            ]
          },
          {
            "coding": [
              {
                "code": "431855005",
                "system": "http://snomed.info/sct",
                "display": "Chronic kidney disease stage 1"
              }
            ]
          },
          {
            "coding": [
              {
                "code": "15777000",
                "system": "http://snomed.info/sct",
                "display": "Prediabetes"
              }
            ]
          },
          {
            "coding": [
              {
                "code": "59621000",
                "system": "http://snomed.info/sct",
                "display": "Essential hypertension"
              }
            ]
          },
          {
            "coding": [
              {
                "code": "53827007",
                "system": "http://snomed.info/sct",
                "display": "Excessive salivation"
              }
            ]
          },
          {
            "coding": [
              {
                "code": "64859006",
                "system": "http://snomed.info/sct",
                "display": "Osteoporosis"
              }
            ]
          },
          {
            "coding": [
              {
                "code": "128188000",
                "system": "http://snomed.info/sct",
                "display": "Cerebral palsy"
              }
            ]
          },
          {
            "coding": [
              {
                "code": "235595009",
                "system": "http://snomed.info/sct",
                "display": "Gastroesophageal reflux disease"
              }
            ]
          }
        ],
        "status": "active",
        "intent": "order",
        "code": {
          "coding": [
            {
              "code": "108252007",
              "system": "http://snomed.info/sct",
              "display": "Laboratory procedure"
            }
          ]
        },
        "subject": {
          "reference": "urn:uuid:cbe9c2db-ff48-4788-ac54-078ae7b3f4d3",
          "display": "Molly Jenkins"
        },
        "requester": {
          "reference": "urn:uuid:46072594-ae68-4ef9-af9e-ab03fd95aa40"
        }
      }
    },
    {
      "fullUrl": "urn:uuid:46072594-ae68-4ef9-af9e-ab03fd95aa40",
      "resource": {
        "resourceType": "PractitionerRole",
        "id": "46072594-ae68-4ef9-af9e-ab03fd95aa40",
        "meta": {
          "profile": [
            "http://hl7.eu/fhir/base/StructureDefinition/practitionerRole-eu"
          ]
        },
        "text": {
          "status": "generated",
          "div": "<div xmlns=\"http://www.w3.org/1999/xhtml\">Provider Role Id: 46072594-ae68-4ef9-af9e-ab03fd95aa40</div>"
        },
        "organization": {
          "reference": "urn:uuid:b053c8f2-782a-4c28-bcf9-ba1e856630bc"
        }
      }
    },
    {
      "fullUrl": "urn:uuid:b053c8f2-782a-4c28-bcf9-ba1e856630bc",
      "resource": {
        "resourceType": "Organization",
        "id": "b053c8f2-782a-4c28-bcf9-ba1e856630bc",
        "meta": {
          "profile": [
            "http://hl7.eu/fhir/base/StructureDefinition/organization-eu"
          ]
        },
        "identifier": [
          {
            "assigner": {
              "display": "HL7 Europe"
            },
            "system": "urn:oid:2.16.840.1.113883.2.51.999",
            "value": "6430c5f1-ff29-44f8-8723-b7d9aa5cd992"
          }
        ],
        "address": [
          {
            "city": "Aberdeen",
            "postalCode": "AB11 6",
            "country": "United Kingdom"
          }
        ],
        "text": {
          "status": "generated",
          "div": "<div xmlns=\"http://www.w3.org/1999/xhtml\">Provider Organization: Aberdeen Community Health and Care Village</div>"
        },
        "name": "Aberdeen Community Health and Care Village"
      }
    },
    {
      "fullUrl": "urn:uuid:9e23a72c-5a94-4158-9aa7-f88062424ae9",
      "resource": {
        "resourceType": "Specimen",
        "id": "9e23a72c-5a94-4158-9aa7-f88062424ae9",
        "meta": {
          "profile": [
            "http://hl7.eu/fhir/laboratory/StructureDefinition/Specimen-eu-lab"
          ]
        },
        "collection": {
          "collectedDateTime": "2023-08-03"
        },
        "text": {
          "status": "generated",
          "div": "<div xmlns=\"http://www.w3.org/1999/xhtml\"><table class=\"hl7__eu__lab__report\"><tr><th>Specimen</th><th>Collection Date</th></tr><tr><td>Acellular blood (serum or plasma) specimen</td><td><span class=\"nb\">03-Aug-2023</span></td></tr></table></div>"
        },
        "type": {
          "coding": [
            {
              "code": "122592007",
              "system": "http://snomed.info/sct",
              "display": "Acellular blood (serum or plasma) specimen"
            }
          ]
        }
      }
    },
    {
      "fullUrl": "urn:uuid:0d45d9a6-c544-45fa-943a-889ef5eaa946",
      "resource": {
        "resourceType": "Specimen",
        "id": "0d45d9a6-c544-45fa-943a-889ef5eaa946",
        "meta": {
          "profile": [
            "http://hl7.eu/fhir/laboratory/StructureDefinition/Specimen-eu-lab"
          ]
        },
        "collection": {
          "collectedDateTime": "2023-08-03"
        },
        "text": {
          "status": "generated",
          "div": "<div xmlns=\"http://www.w3.org/1999/xhtml\"><table class=\"hl7__eu__lab__report\"><tr><th>Specimen</th><th>Collection Date</th></tr><tr><td>Urine specimen</td><td><span class=\"nb\">03-Aug-2023</span></td></tr></table></div>"
        },
        "type": {
          "coding": [
            {
              "code": "122575003",
              "system": "http://snomed.info/sct",
              "display": "Urine specimen"
            }
          ]
        }
      }
    },
    {
      "fullUrl": "urn:uuid:f12a2358-01ac-4976-89a5-30501aaa584d",
      "resource": {
        "resourceType": "Specimen",
        "id": "f12a2358-01ac-4976-89a5-30501aaa584d",
        "meta": {
          "profile": [
            "http://hl7.eu/fhir/laboratory/StructureDefinition/Specimen-eu-lab"
          ]
        },
        "collection": {
          "collectedDateTime": "2023-08-03"
        },
        "text": {
          "status": "generated",
          "div": "<div xmlns=\"http://www.w3.org/1999/xhtml\"><table class=\"hl7__eu__lab__report\"><tr><th>Specimen</th><th>Collection Date</th></tr><tr><td>Whole blood specimen (specimen)</td><td><span class=\"nb\">03-Aug-2023</span></td></tr></table></div>"
        },
        "type": {
          "coding": [
            {
              "code": "258580003",
              "system": "http://snomed.info/sct",
              "display": "Whole blood specimen (specimen)"
            }
          ]
        }
      }
    },
    {
      "fullUrl": "urn:uuid:f907e062-239c-4e53-a4a1-94caab067a67",
      "resource": {
        "resourceType": "Observation",
        "id": "f907e062-239c-4e53-a4a1-94caab067a67",
        "meta": {
          "profile": [
            "http://hl7.eu/fhir/laboratory/StructureDefinition/Observation-resultslab-eu-lab"
          ]
        },
        "performer": [
          {
            "display": "The Central European Lab"
          }
        ],
        "category": [
          {
            "coding": [
              {
                "system": "http://terminology.hl7.org/CodeSystem/observation-category",
                "code": "laboratory"
              }
            ]
          }
        ],
        "code": {
          "coding": [
            {
              "code": "2345-7",
              "system": "http://loinc.org",
              "display": "Glucose [Mass/volume] in Serum or Plasma"
            }
          ],
          "text": "Glucose [Mass/volume] in Serum or Plasma"
        },
        "valueQuantity": {
          "system": "http://unitsofmeasure.org",
          "value": 81.2,
          "unit": "mg/dL",
          "code": "mg/dL"
        },
        "referenceRange": [
          {
            "low": {
              "value": 70,
              "code": "mg/dL",
              "system": "http://unitsofmeasure.org"
            }
          },
          {
            "high": {
              "value": 139,
              "code": "mg/dL",
              "system": "http://unitsofmeasure.org"
            }
          }
        ],
        "text": {
          "status": "generated",
          "div": "<div xmlns=\"http://www.w3.org/1999/xhtml\"><table class=\"hl7__eu__lab__report\"><tr><th>Test</th><th>03-Aug-2023</th><th>Reference&#xA0;Range</th><th>Unit</th></tr><tr><td>Glucose [Mass/volume] in Serum or Plasma</td><td>81.2</td><td>70 - 139</td><td></td><td>mg/dL</td></tr></table></div>"
        },
        "status": "final",
        "subject": {
          "reference": "urn:uuid:cbe9c2db-ff48-4788-ac54-078ae7b3f4d3",
          "display": "Molly Jenkins"
        },
        "effectiveDateTime": "2023-08-03T14:42:11Z",
        "specimen": {
          "reference": "urn:uuid:9e23a72c-5a94-4158-9aa7-f88062424ae9"
        }
      }
    },
    {
      "fullUrl": "urn:uuid:5f8629e9-b453-421b-bedf-532901a2907f",
      "resource": {
        "resourceType": "Observation",
        "id": "5f8629e9-b453-421b-bedf-532901a2907f",
        "meta": {
          "profile": [
            "http://hl7.eu/fhir/laboratory/StructureDefinition/Observation-resultslab-eu-lab"
          ]
        },
        "performer": [
          {
            "display": "The Central European Lab"
          }
        ],
        "category": [
          {
            "coding": [
              {
                "system": "http://terminology.hl7.org/CodeSystem/observation-category",
                "code": "laboratory"
              }
            ]
          }
        ],
        "code": {
          "coding": [
            {
              "code": "3094-0",
              "system": "http://loinc.org",
              "display": "Urea nitrogen [Mass/volume] in Serum or Plasma"
            }
          ],
          "text": "Urea nitrogen [Mass/volume] in Serum or Plasma"
        },
        "valueQuantity": {
          "system": "http://unitsofmeasure.org",
          "value": 18.6,
          "unit": "mg/dL",
          "code": "mg/dL"
        },
        "referenceRange": [
          {
            "low": {
              "value": 7,
              "code": "mg/dL",
              "system": "http://unitsofmeasure.org"
            }
          },
          {
            "high": {
              "value": 20,
              "code": "mg/dL",
              "system": "http://unitsofmeasure.org"
            }
          }
        ],
        "text": {
          "status": "generated",
          "div": "<div xmlns=\"http://www.w3.org/1999/xhtml\"><table class=\"hl7__eu__lab__report\"><tr><th>Test</th><th>03-Aug-2023</th><th>Reference&#xA0;Range</th><th>Unit</th></tr><tr><td>Urea nitrogen [Mass/volume] in Serum or Plasma</td><td>18.6</td><td>7 - 20</td><td></td><td>mg/dL</td></tr></table></div>"
        },
        "status": "final",
        "subject": {
          "reference": "urn:uuid:cbe9c2db-ff48-4788-ac54-078ae7b3f4d3",
          "display": "Molly Jenkins"
        },
        "effectiveDateTime": "2023-08-03T14:42:11Z",
        "specimen": {
          "reference": "urn:uuid:9e23a72c-5a94-4158-9aa7-f88062424ae9"
        }
      }
    },
    {
      "fullUrl": "urn:uuid:376aeac0-0e47-47af-adc2-bf6393e8eb62",
      "resource": {
        "resourceType": "Observation",
        "id": "376aeac0-0e47-47af-adc2-bf6393e8eb62",
        "meta": {
          "profile": [
            "http://hl7.eu/fhir/laboratory/StructureDefinition/Observation-resultslab-eu-lab"
          ]
        },
        "performer": [
          {
            "display": "The Central European Lab"
          }
        ],
        "category": [
          {
            "coding": [
              {
                "system": "http://terminology.hl7.org/CodeSystem/observation-category",
                "code": "laboratory"
              }
            ]
          }
        ],
        "code": {
          "coding": [
            {
              "code": "2160-0",
              "system": "http://loinc.org",
              "display": "Creatinine [Mass/volume] in Serum or Plasma"
            }
          ],
          "text": "Creatinine [Mass/volume] in Serum or Plasma"
        },
        "valueQuantity": {
          "system": "http://unitsofmeasure.org",
          "value": 2,
          "unit": "mg/dL",
          "code": "mg/dL"
        },
        "referenceRange": [
          {
            "low": {
              "value": 0.6,
              "code": "mg/dL",
              "system": "http://unitsofmeasure.org"
            }
          },
          {
            "high": {
              "value": 1.1,
              "code": "mg/dL",
              "system": "http://unitsofmeasure.org"
            }
          }
        ],
        "interpretation": [
          {
            "coding": [
              {
                "code": "H",
                "system": "http://terminology.hl7.org/CodeSystem/v3-ObservationInterpretation",
                "display": "High"
              }
            ]
          }
        ],
        "text": {
          "status": "generated",
          "div": "<div xmlns=\"http://www.w3.org/1999/xhtml\"><table class=\"hl7__eu__lab__report\"><tr><th>Test</th><th>03-Aug-2023</th><th>Reference&#xA0;Range</th><th>Unit</th></tr><tr><td>Creatinine [Mass/volume] in Serum or Plasma</td><td>2.0</td><td>0.6 - 1.1</td><td>H</td><td>mg/dL</td></tr></table></div>"
        },
        "status": "final",
        "subject": {
          "reference": "urn:uuid:cbe9c2db-ff48-4788-ac54-078ae7b3f4d3",
          "display": "Molly Jenkins"
        },
        "effectiveDateTime": "2023-08-03T14:42:11Z",
        "specimen": {
          "reference": "urn:uuid:9e23a72c-5a94-4158-9aa7-f88062424ae9"
        }
      }
    },
    {
      "fullUrl": "urn:uuid:56b6b0dd-a9eb-4a49-982a-2f86892a194a",
      "resource": {
        "resourceType": "Observation",
        "id": "56b6b0dd-a9eb-4a49-982a-2f86892a194a",
        "meta": {
          "profile": [
            "http://hl7.eu/fhir/laboratory/StructureDefinition/Observation-resultslab-eu-lab"
          ]
        },
        "performer": [
          {
            "display": "The Central European Lab"
          }
        ],
        "category": [
          {
            "coding": [
              {
                "system": "http://terminology.hl7.org/CodeSystem/observation-category",
                "code": "laboratory"
              }
            ]
          }
        ],
        "code": {
          "coding": [
            {
              "code": "17861-6",
              "system": "http://loinc.org",
              "display": "Calcium [Mass/volume] in Serum or Plasma"
            }
          ],
          "text": "Calcium [Mass/volume] in Serum or Plasma"
        },
        "valueQuantity": {
          "system": "http://unitsofmeasure.org",
          "value": 9.9,
          "unit": "mg/dL",
          "code": "mg/dL"
        },
        "referenceRange": [
          {
            "low": {
              "value": 8.5,
              "code": "mg/dL",
              "system": "http://unitsofmeasure.org"
            }
          },
          {
            "high": {
              "value": 10.4,
              "code": "mg/dL",
              "system": "http://unitsofmeasure.org"
            }
          }
        ],
        "text": {
          "status": "generated",
          "div": "<div xmlns=\"http://www.w3.org/1999/xhtml\"><table class=\"hl7__eu__lab__report\"><tr><th>Test</th><th>03-Aug-2023</th><th>Reference&#xA0;Range</th><th>Unit</th></tr><tr><td>Calcium [Mass/volume] in Serum or Plasma</td><td>9.9</td><td>8.5 - 10.4</td><td></td><td>mg/dL</td></tr></table></div>"
        },
        "status": "final",
        "subject": {
          "reference": "urn:uuid:cbe9c2db-ff48-4788-ac54-078ae7b3f4d3",
          "display": "Molly Jenkins"
        },
        "effectiveDateTime": "2023-08-03T14:42:11Z",
        "specimen": {
          "reference": "urn:uuid:9e23a72c-5a94-4158-9aa7-f88062424ae9"
        }
      }
    },
    {
      "fullUrl": "urn:uuid:04ebb89f-0bb1-4d18-bd7c-4c534960d40f",
      "resource": {
        "resourceType": "Observation",
        "id": "04ebb89f-0bb1-4d18-bd7c-4c534960d40f",
        "meta": {
          "profile": [
            "http://hl7.eu/fhir/laboratory/StructureDefinition/Observation-resultslab-eu-lab"
          ]
        },
        "performer": [
          {
            "display": "The Central European Lab"
          }
        ],
        "category": [
          {
            "coding": [
              {
                "system": "http://terminology.hl7.org/CodeSystem/observation-category",
                "code": "laboratory"
              }
            ]
          }
        ],
        "code": {
          "coding": [
            {
              "code": "2951-2",
              "system": "http://loinc.org",
              "display": "Sodium [Moles/volume] in Serum or Plasma"
            }
          ],
          "text": "Sodium [Moles/volume] in Serum or Plasma"
        },
        "valueQuantity": {
          "system": "http://unitsofmeasure.org",
          "value": 137.5,
          "unit": "mmol/L",
          "code": "mmol/L"
        },
        "referenceRange": [
          {
            "low": {
              "value": 135,
              "code": "mmol/L",
              "system": "http://unitsofmeasure.org"
            }
          },
          {
            "high": {
              "value": 145,
              "code": "mmol/L",
              "system": "http://unitsofmeasure.org"
            }
          }
        ],
        "text": {
          "status": "generated",
          "div": "<div xmlns=\"http://www.w3.org/1999/xhtml\"><table class=\"hl7__eu__lab__report\"><tr><th>Test</th><th>03-Aug-2023</th><th>Reference&#xA0;Range</th><th>Unit</th></tr><tr><td>Sodium [Moles/volume] in Serum or Plasma</td><td>137.5</td><td>135 - 145</td><td></td><td>mmol/L</td></tr></table></div>"
        },
        "status": "final",
        "subject": {
          "reference": "urn:uuid:cbe9c2db-ff48-4788-ac54-078ae7b3f4d3",
          "display": "Molly Jenkins"
        },
        "effectiveDateTime": "2023-08-03T14:42:11Z",
        "specimen": {
          "reference": "urn:uuid:9e23a72c-5a94-4158-9aa7-f88062424ae9"
        }
      }
    },
    {
      "fullUrl": "urn:uuid:05dfb7d8-d32c-48a6-8ea3-6b6e9cd8ad57",
      "resource": {
        "resourceType": "Observation",
        "id": "05dfb7d8-d32c-48a6-8ea3-6b6e9cd8ad57",
        "meta": {
          "profile": [
            "http://hl7.eu/fhir/laboratory/StructureDefinition/Observation-resultslab-eu-lab"
          ]
        },
        "performer": [
          {
            "display": "The Central European Lab"
          }
        ],
        "category": [
          {
            "coding": [
              {
                "system": "http://terminology.hl7.org/CodeSystem/observation-category",
                "code": "laboratory"
              }
            ]
          }
        ],
        "code": {
          "coding": [
            {
              "code": "2823-3",
              "system": "http://loinc.org",
              "display": "Potassium [Moles/volume] in Serum or Plasma"
            }
          ],
          "text": "Potassium [Moles/volume] in Serum or Plasma"
        },
        "valueQuantity": {
          "system": "http://unitsofmeasure.org",
          "value": 5.1,
          "unit": "mmol/L",
          "code": "mmol/L"
        },
        "referenceRange": [
          {
            "low": {
              "value": 3.5,
              "code": "mmol/L",
              "system": "http://unitsofmeasure.org"
            }
          },
          {
            "high": {
              "value": 5.1,
              "code": "mmol/L",
              "system": "http://unitsofmeasure.org"
            }
          }
        ],
        "text": {
          "status": "generated",
          "div": "<div xmlns=\"http://www.w3.org/1999/xhtml\"><table class=\"hl7__eu__lab__report\"><tr><th>Test</th><th>03-Aug-2023</th><th>Reference&#xA0;Range</th><th>Unit</th></tr><tr><td>Potassium [Moles/volume] in Serum or Plasma</td><td>5.1</td><td>3.5 - 5.1</td><td></td><td>mmol/L</td></tr></table></div>"
        },
        "status": "final",
        "subject": {
          "reference": "urn:uuid:cbe9c2db-ff48-4788-ac54-078ae7b3f4d3",
          "display": "Molly Jenkins"
        },
        "effectiveDateTime": "2023-08-03T14:42:11Z",
        "specimen": {
          "reference": "urn:uuid:9e23a72c-5a94-4158-9aa7-f88062424ae9"
        }
      }
    },
    {
      "fullUrl": "urn:uuid:85d3612e-da5c-48d9-a626-232ead67fffe",
      "resource": {
        "resourceType": "Observation",
        "id": "85d3612e-da5c-48d9-a626-232ead67fffe",
        "meta": {
          "profile": [
            "http://hl7.eu/fhir/laboratory/StructureDefinition/Observation-resultslab-eu-lab"
          ]
        },
        "performer": [
          {
            "display": "The Central European Lab"
          }
        ],
        "category": [
          {
            "coding": [
              {
                "system": "http://terminology.hl7.org/CodeSystem/observation-category",
                "code": "laboratory"
              }
            ]
          }
        ],
        "code": {
          "coding": [
            {
              "code": "2075-0",
              "system": "http://loinc.org",
              "display": "Chloride [Moles/volume] in Serum or Plasma"
            }
          ],
          "text": "Chloride [Moles/volume] in Serum or Plasma"
        },
        "valueQuantity": {
          "system": "http://unitsofmeasure.org",
          "value": 104.5,
          "unit": "mmol/L",
          "code": "mmol/L"
        },
        "referenceRange": [
          {
            "low": {
              "value": 98,
              "code": "mmol/L",
              "system": "http://unitsofmeasure.org"
            }
          },
          {
            "high": {
              "value": 110,
              "code": "mmol/L",
              "system": "http://unitsofmeasure.org"
            }
          }
        ],
        "text": {
          "status": "generated",
          "div": "<div xmlns=\"http://www.w3.org/1999/xhtml\"><table class=\"hl7__eu__lab__report\"><tr><th>Test</th><th>03-Aug-2023</th><th>Reference&#xA0;Range</th><th>Unit</th></tr><tr><td>Chloride [Moles/volume] in Serum or Plasma</td><td>104.5</td><td>98 - 110</td><td></td><td>mmol/L</td></tr></table></div>"
        },
        "status": "final",
        "subject": {
          "reference": "urn:uuid:cbe9c2db-ff48-4788-ac54-078ae7b3f4d3",
          "display": "Molly Jenkins"
        },
        "effectiveDateTime": "2023-08-03T14:42:11Z",
        "specimen": {
          "reference": "urn:uuid:9e23a72c-5a94-4158-9aa7-f88062424ae9"
        }
      }
    },
    {
      "fullUrl": "urn:uuid:9478db6b-3c75-4225-bea8-291df0e38f59",
      "resource": {
        "resourceType": "Observation",
        "id": "9478db6b-3c75-4225-bea8-291df0e38f59",
        "meta": {
          "profile": [
            "http://hl7.eu/fhir/laboratory/StructureDefinition/Observation-resultslab-eu-lab"
          ]
        },
        "performer": [
          {
            "display": "The Central European Lab"
          }
        ],
        "category": [
          {
            "coding": [
              {
                "system": "http://terminology.hl7.org/CodeSystem/observation-category",
                "code": "laboratory"
              }
            ]
          }
        ],
        "code": {
          "coding": [
            {
              "code": "2028-9",
              "system": "http://loinc.org",
              "display": "Carbon dioxide, total [Moles/volume] in Serum or Plasma"
            }
          ],
          "text": "Carbon dioxide, total [Moles/volume] in Serum or Plasma"
        },
        "valueQuantity": {
          "system": "http://unitsofmeasure.org",
          "value": 27.7,
          "unit": "mmol/L",
          "code": "mmol/L"
        },
        "referenceRange": [
          {
            "low": {
              "value": 22,
              "code": "mmol/L",
              "system": "http://unitsofmeasure.org"
            }
          },
          {
            "high": {
              "value": 32,
              "code": "mmol/L",
              "system": "http://unitsofmeasure.org"
            }
          }
        ],
        "text": {
          "status": "generated",
          "div": "<div xmlns=\"http://www.w3.org/1999/xhtml\"><table class=\"hl7__eu__lab__report\"><tr><th>Test</th><th>03-Aug-2023</th><th>Reference&#xA0;Range</th><th>Unit</th></tr><tr><td>Carbon dioxide, total [Moles/volume] in Serum or Plasma</td><td>27.7</td><td>22 - 32</td><td></td><td>mmol/L</td></tr></table></div>"
        },
        "status": "final",
        "subject": {
          "reference": "urn:uuid:cbe9c2db-ff48-4788-ac54-078ae7b3f4d3",
          "display": "Molly Jenkins"
        },
        "effectiveDateTime": "2023-08-03T14:42:11Z",
        "specimen": {
          "reference": "urn:uuid:9e23a72c-5a94-4158-9aa7-f88062424ae9"
        }
      }
    },
    {
      "fullUrl": "urn:uuid:833758c3-6c06-4463-9833-f8be33db7ed4",
      "resource": {
        "resourceType": "Observation",
        "id": "833758c3-6c06-4463-9833-f8be33db7ed4",
        "meta": {
          "profile": [
            "http://hl7.eu/fhir/laboratory/StructureDefinition/Observation-resultslab-eu-lab"
          ]
        },
        "performer": [
          {
            "display": "The Central European Lab"
          }
        ],
        "category": [
          {
            "coding": [
              {
                "system": "http://terminology.hl7.org/CodeSystem/observation-category",
                "code": "laboratory"
              }
            ]
          }
        ],
        "code": {
          "coding": [
            {
              "code": "5767-9",
              "system": "http://loinc.org",
              "display": "Appearance of Urine"
            }
          ],
          "text": "Appearance of Urine"
        },
        "text": {
          "status": "generated",
          "div": "<div xmlns=\"http://www.w3.org/1999/xhtml\"><table class=\"hl7__eu__lab__report\"><tr><th>Test</th><th>03-Aug-2023</th><th>Reference&#xA0;Range</th><th>Unit</th></tr><tr><td>Appearance of Urine</td></tr></table></div>"
        },
        "status": "final",
        "subject": {
          "reference": "urn:uuid:cbe9c2db-ff48-4788-ac54-078ae7b3f4d3",
          "display": "Molly Jenkins"
        },
        "effectiveDateTime": "2023-08-03T14:42:11Z",
        "specimen": {
          "reference": "urn:uuid:0d45d9a6-c544-45fa-943a-889ef5eaa946"
        }
      }
    },
    {
      "fullUrl": "urn:uuid:a2dc7d32-2abc-47a2-9aa9-342703256ab0",
      "resource": {
        "resourceType": "Observation",
        "id": "a2dc7d32-2abc-47a2-9aa9-342703256ab0",
        "meta": {
          "profile": [
            "http://hl7.eu/fhir/laboratory/StructureDefinition/Observation-resultslab-eu-lab"
          ]
        },
        "performer": [
          {
            "display": "The Central European Lab"
          }
        ],
        "category": [
          {
            "coding": [
              {
                "system": "http://terminology.hl7.org/CodeSystem/observation-category",
                "code": "laboratory"
              }
            ]
          }
        ],
        "code": {
          "coding": [
            {
              "code": "34533-0",
              "system": "http://loinc.org",
              "display": "Odor of Urine"
            }
          ],
          "text": "Odor of Urine"
        },
        "text": {
          "status": "generated",
          "div": "<div xmlns=\"http://www.w3.org/1999/xhtml\"><table class=\"hl7__eu__lab__report\"><tr><th>Test</th><th>03-Aug-2023</th><th>Reference&#xA0;Range</th><th>Unit</th></tr><tr><td>Odor of Urine</td></tr></table></div>"
        },
        "status": "final",
        "subject": {
          "reference": "urn:uuid:cbe9c2db-ff48-4788-ac54-078ae7b3f4d3",
          "display": "Molly Jenkins"
        },
        "effectiveDateTime": "2023-08-03T14:42:11Z",
        "specimen": {
          "reference": "urn:uuid:0d45d9a6-c544-45fa-943a-889ef5eaa946"
        }
      }
    },
    {
      "fullUrl": "urn:uuid:74430131-9a30-4768-a4d3-39a73392562f",
      "resource": {
        "resourceType": "Observation",
        "id": "74430131-9a30-4768-a4d3-39a73392562f",
        "meta": {
          "profile": [
            "http://hl7.eu/fhir/laboratory/StructureDefinition/Observation-resultslab-eu-lab"
          ]
        },
        "performer": [
          {
            "display": "The Central European Lab"
          }
        ],
        "category": [
          {
            "coding": [
              {
                "system": "http://terminology.hl7.org/CodeSystem/observation-category",
                "code": "laboratory"
              }
            ]
          }
        ],
        "code": {
          "coding": [
            {
              "code": "32167-9",
              "system": "http://loinc.org",
              "display": "Clarity of Urine"
            }
          ],
          "text": "Clarity of Urine"
        },
        "text": {
          "status": "generated",
          "div": "<div xmlns=\"http://www.w3.org/1999/xhtml\"><table class=\"hl7__eu__lab__report\"><tr><th>Test</th><th>03-Aug-2023</th><th>Reference&#xA0;Range</th><th>Unit</th></tr><tr><td>Clarity of Urine</td></tr></table></div>"
        },
        "status": "final",
        "subject": {
          "reference": "urn:uuid:cbe9c2db-ff48-4788-ac54-078ae7b3f4d3",
          "display": "Molly Jenkins"
        },
        "effectiveDateTime": "2023-08-03T14:42:11Z",
        "specimen": {
          "reference": "urn:uuid:0d45d9a6-c544-45fa-943a-889ef5eaa946"
        }
      }
    },
    {
      "fullUrl": "urn:uuid:93961a34-9e11-4586-bd89-40fe1ca05605",
      "resource": {
        "resourceType": "Observation",
        "id": "93961a34-9e11-4586-bd89-40fe1ca05605",
        "meta": {
          "profile": [
            "http://hl7.eu/fhir/laboratory/StructureDefinition/Observation-resultslab-eu-lab"
          ]
        },
        "performer": [
          {
            "display": "The Central European Lab"
          }
        ],
        "category": [
          {
            "coding": [
              {
                "system": "http://terminology.hl7.org/CodeSystem/observation-category",
                "code": "laboratory"
              }
            ]
          }
        ],
        "code": {
          "coding": [
            {
              "code": "5778-6",
              "system": "http://loinc.org",
              "display": "Color of Urine"
            }
          ],
          "text": "Color of Urine"
        },
        "text": {
          "status": "generated",
          "div": "<div xmlns=\"http://www.w3.org/1999/xhtml\"><table class=\"hl7__eu__lab__report\"><tr><th>Test</th><th>03-Aug-2023</th><th>Reference&#xA0;Range</th><th>Unit</th></tr><tr><td>Color of Urine</td></tr></table></div>"
        },
        "status": "final",
        "subject": {
          "reference": "urn:uuid:cbe9c2db-ff48-4788-ac54-078ae7b3f4d3",
          "display": "Molly Jenkins"
        },
        "effectiveDateTime": "2023-08-03T14:42:11Z",
        "specimen": {
          "reference": "urn:uuid:0d45d9a6-c544-45fa-943a-889ef5eaa946"
        }
      }
    },
    {
      "fullUrl": "urn:uuid:bf8a5cea-a645-44b3-ae68-00673cee9681",
      "resource": {
        "resourceType": "Observation",
        "id": "bf8a5cea-a645-44b3-ae68-00673cee9681",
        "meta": {
          "profile": [
            "http://hl7.eu/fhir/laboratory/StructureDefinition/Observation-resultslab-eu-lab"
          ]
        },
        "performer": [
          {
            "display": "The Central European Lab"
          }
        ],
        "category": [
          {
            "coding": [
              {
                "system": "http://terminology.hl7.org/CodeSystem/observation-category",
                "code": "laboratory"
              }
            ]
          }
        ],
        "code": {
          "coding": [
            {
              "code": "5792-7",
              "system": "http://loinc.org",
              "display": "Glucose [Mass/volume] in Urine by Test strip"
            }
          ],
          "text": "Glucose [Mass/volume] in Urine by Test strip"
        },
        "valueQuantity": {
          "system": "http://unitsofmeasure.org",
          "value": 2.2,
          "unit": "mg/dL",
          "code": "mg/dL"
        },
        "referenceRange": [
          {
            "low": {
              "value": 0,
              "code": "mg/dL",
              "system": "http://unitsofmeasure.org"
            }
          },
          {
            "high": {
              "value": 0,
              "code": "mg/dL",
              "system": "http://unitsofmeasure.org"
            }
          }
        ],
        "interpretation": [
          {
            "coding": [
              {
                "code": "H",
                "system": "http://terminology.hl7.org/CodeSystem/v3-ObservationInterpretation",
                "display": "High"
              }
            ]
          }
        ],
        "text": {
          "status": "generated",
          "div": "<div xmlns=\"http://www.w3.org/1999/xhtml\"><table class=\"hl7__eu__lab__report\"><tr><th>Test</th><th>03-Aug-2023</th><th>Reference&#xA0;Range</th><th>Unit</th></tr><tr><td>Glucose [Mass/volume] in Urine by Test strip</td><td>2.2</td><td>0 - 0</td><td>H</td><td>mg/dL</td></tr></table></div>"
        },
        "status": "final",
        "subject": {
          "reference": "urn:uuid:cbe9c2db-ff48-4788-ac54-078ae7b3f4d3",
          "display": "Molly Jenkins"
        },
        "effectiveDateTime": "2023-08-03T14:42:11Z",
        "specimen": {
          "reference": "urn:uuid:0d45d9a6-c544-45fa-943a-889ef5eaa946"
        }
      }
    },
    {
      "fullUrl": "urn:uuid:4b9fd575-cd45-4876-86da-13384a7fccd5",
      "resource": {
        "resourceType": "Observation",
        "id": "4b9fd575-cd45-4876-86da-13384a7fccd5",
        "meta": {
          "profile": [
            "http://hl7.eu/fhir/laboratory/StructureDefinition/Observation-resultslab-eu-lab"
          ]
        },
        "performer": [
          {
            "display": "The Central European Lab"
          }
        ],
        "category": [
          {
            "coding": [
              {
                "system": "http://terminology.hl7.org/CodeSystem/observation-category",
                "code": "laboratory"
              }
            ]
          }
        ],
        "code": {
          "coding": [
            {
              "code": "25428-4",
              "system": "http://loinc.org",
              "display": "Glucose [Presence] in Urine by Test strip"
            }
          ],
          "text": "Glucose [Presence] in Urine by Test strip"
        },
        "text": {
          "status": "generated",
          "div": "<div xmlns=\"http://www.w3.org/1999/xhtml\"><table class=\"hl7__eu__lab__report\"><tr><th>Test</th><th>03-Aug-2023</th><th>Reference&#xA0;Range</th><th>Unit</th></tr><tr><td>Glucose [Presence] in Urine by Test strip</td></tr></table></div>"
        },
        "status": "final",
        "subject": {
          "reference": "urn:uuid:cbe9c2db-ff48-4788-ac54-078ae7b3f4d3",
          "display": "Molly Jenkins"
        },
        "effectiveDateTime": "2023-08-03T14:42:11Z",
        "specimen": {
          "reference": "urn:uuid:0d45d9a6-c544-45fa-943a-889ef5eaa946"
        }
      }
    },
    {
      "fullUrl": "urn:uuid:d9a16c98-3e7f-4286-9f3f-1342e8f17d83",
      "resource": {
        "resourceType": "Observation",
        "id": "d9a16c98-3e7f-4286-9f3f-1342e8f17d83",
        "meta": {
          "profile": [
            "http://hl7.eu/fhir/laboratory/StructureDefinition/Observation-resultslab-eu-lab"
          ]
        },
        "performer": [
          {
            "display": "The Central European Lab"
          }
        ],
        "category": [
          {
            "coding": [
              {
                "system": "http://terminology.hl7.org/CodeSystem/observation-category",
                "code": "laboratory"
              }
            ]
          }
        ],
        "code": {
          "coding": [
            {
              "code": "20505-4",
              "system": "http://loinc.org",
              "display": "Bilirubin.total [Mass/volume] in Urine by Test strip"
            }
          ],
          "text": "Bilirubin.total [Mass/volume] in Urine by Test strip"
        },
        "valueQuantity": {
          "system": "http://unitsofmeasure.org",
          "value": 0.9,
          "unit": "mg/dL",
          "code": "mg/dL"
        },
        "referenceRange": [
          {
            "low": {
              "value": 0,
              "code": "mg/dL",
              "system": "http://unitsofmeasure.org"
            }
          },
          {
            "high": {
              "value": 1.6,
              "code": "mg/dL",
              "system": "http://unitsofmeasure.org"
            }
          }
        ],
        "text": {
          "status": "generated",
          "div": "<div xmlns=\"http://www.w3.org/1999/xhtml\"><table class=\"hl7__eu__lab__report\"><tr><th>Test</th><th>03-Aug-2023</th><th>Reference&#xA0;Range</th><th>Unit</th></tr><tr><td>Bilirubin.total [Mass/volume] in Urine by Test strip</td><td>0.9</td><td>0 - 1.6</td><td></td><td>mg/dL</td></tr></table></div>"
        },
        "status": "final",
        "subject": {
          "reference": "urn:uuid:cbe9c2db-ff48-4788-ac54-078ae7b3f4d3",
          "display": "Molly Jenkins"
        },
        "effectiveDateTime": "2023-08-03T14:42:11Z",
        "specimen": {
          "reference": "urn:uuid:0d45d9a6-c544-45fa-943a-889ef5eaa946"
        }
      }
    },
    {
      "fullUrl": "urn:uuid:444040de-1563-42d3-a4ec-21328655d877",
      "resource": {
        "resourceType": "Observation",
        "id": "444040de-1563-42d3-a4ec-21328655d877",
        "meta": {
          "profile": [
            "http://hl7.eu/fhir/laboratory/StructureDefinition/Observation-resultslab-eu-lab"
          ]
        },
        "performer": [
          {
            "display": "The Central European Lab"
          }
        ],
        "category": [
          {
            "coding": [
              {
                "system": "http://terminology.hl7.org/CodeSystem/observation-category",
                "code": "laboratory"
              }
            ]
          }
        ],
        "code": {
          "coding": [
            {
              "code": "5770-3",
              "system": "http://loinc.org",
              "display": "Bilirubin.total [Presence] in Urine by Test strip"
            }
          ],
          "text": "Bilirubin.total [Presence] in Urine by Test strip"
        },
        "text": {
          "status": "generated",
          "div": "<div xmlns=\"http://www.w3.org/1999/xhtml\"><table class=\"hl7__eu__lab__report\"><tr><th>Test</th><th>03-Aug-2023</th><th>Reference&#xA0;Range</th><th>Unit</th></tr><tr><td>Bilirubin.total [Presence] in Urine by Test strip</td></tr></table></div>"
        },
        "status": "final",
        "subject": {
          "reference": "urn:uuid:cbe9c2db-ff48-4788-ac54-078ae7b3f4d3",
          "display": "Molly Jenkins"
        },
        "effectiveDateTime": "2023-08-03T14:42:11Z",
        "specimen": {
          "reference": "urn:uuid:0d45d9a6-c544-45fa-943a-889ef5eaa946"
        }
      }
    },
    {
      "fullUrl": "urn:uuid:153daed9-b3bf-409f-9d38-13d3270ce1ba",
      "resource": {
        "resourceType": "Observation",
        "id": "153daed9-b3bf-409f-9d38-13d3270ce1ba",
        "meta": {
          "profile": [
            "http://hl7.eu/fhir/laboratory/StructureDefinition/Observation-resultslab-eu-lab"
          ]
        },
        "performer": [
          {
            "display": "The Central European Lab"
          }
        ],
        "category": [
          {
            "coding": [
              {
                "system": "http://terminology.hl7.org/CodeSystem/observation-category",
                "code": "laboratory"
              }
            ]
          }
        ],
        "code": {
          "coding": [
            {
              "code": "5797-6",
              "system": "http://loinc.org",
              "display": "Ketones [Mass/volume] in Urine by Test strip"
            }
          ],
          "text": "Ketones [Mass/volume] in Urine by Test strip"
        },
        "valueQuantity": {
          "system": "http://unitsofmeasure.org",
          "value": 2.9,
          "unit": "mg/dL",
          "code": "mg/dL"
        },
        "referenceRange": [
          {
            "low": {
              "value": 0,
              "code": "mg/dL",
              "system": "http://unitsofmeasure.org"
            }
          },
          {
            "high": {
              "value": 0.5,
              "code": "mg/dL",
              "system": "http://unitsofmeasure.org"
            }
          }
        ],
        "interpretation": [
          {
            "coding": [
              {
                "code": "H",
                "system": "http://terminology.hl7.org/CodeSystem/v3-ObservationInterpretation",
                "display": "High"
              }
            ]
          }
        ],
        "text": {
          "status": "generated",
          "div": "<div xmlns=\"http://www.w3.org/1999/xhtml\"><table class=\"hl7__eu__lab__report\"><tr><th>Test</th><th>03-Aug-2023</th><th>Reference&#xA0;Range</th><th>Unit</th></tr><tr><td>Ketones [Mass/volume] in Urine by Test strip</td><td>2.9</td><td>0 - 0.5</td><td>H</td><td>mg/dL</td></tr></table></div>"
        },
        "status": "final",
        "subject": {
          "reference": "urn:uuid:cbe9c2db-ff48-4788-ac54-078ae7b3f4d3",
          "display": "Molly Jenkins"
        },
        "effectiveDateTime": "2023-08-03T14:42:11Z",
        "specimen": {
          "reference": "urn:uuid:0d45d9a6-c544-45fa-943a-889ef5eaa946"
        }
      }
    },
    {
      "fullUrl": "urn:uuid:b36cc14e-a87c-4d77-91ae-e4e9a3fa3abf",
      "resource": {
        "resourceType": "Observation",
        "id": "b36cc14e-a87c-4d77-91ae-e4e9a3fa3abf",
        "meta": {
          "profile": [
            "http://hl7.eu/fhir/laboratory/StructureDefinition/Observation-resultslab-eu-lab"
          ]
        },
        "performer": [
          {
            "display": "The Central European Lab"
          }
        ],
        "category": [
          {
            "coding": [
              {
                "system": "http://terminology.hl7.org/CodeSystem/observation-category",
                "code": "laboratory"
              }
            ]
          }
        ],
        "code": {
          "coding": [
            {
              "code": "2514-8",
              "system": "http://loinc.org",
              "display": "Ketones [Presence] in Urine by Test strip"
            }
          ],
          "text": "Ketones [Presence] in Urine by Test strip"
        },
        "text": {
          "status": "generated",
          "div": "<div xmlns=\"http://www.w3.org/1999/xhtml\"><table class=\"hl7__eu__lab__report\"><tr><th>Test</th><th>03-Aug-2023</th><th>Reference&#xA0;Range</th><th>Unit</th></tr><tr><td>Ketones [Presence] in Urine by Test strip</td></tr></table></div>"
        },
        "status": "final",
        "subject": {
          "reference": "urn:uuid:cbe9c2db-ff48-4788-ac54-078ae7b3f4d3",
          "display": "Molly Jenkins"
        },
        "effectiveDateTime": "2023-08-03T14:42:11Z",
        "specimen": {
          "reference": "urn:uuid:0d45d9a6-c544-45fa-943a-889ef5eaa946"
        }
      }
    },
    {
      "fullUrl": "urn:uuid:90f052db-4f87-421e-9df9-e6958ea9d216",
      "resource": {
        "resourceType": "Observation",
        "id": "90f052db-4f87-421e-9df9-e6958ea9d216",
        "meta": {
          "profile": [
            "http://hl7.eu/fhir/laboratory/StructureDefinition/Observation-resultslab-eu-lab"
          ]
        },
        "performer": [
          {
            "display": "The Central European Lab"
          }
        ],
        "category": [
          {
            "coding": [
              {
                "system": "http://terminology.hl7.org/CodeSystem/observation-category",
                "code": "laboratory"
              }
            ]
          }
        ],
        "code": {
          "coding": [
            {
              "code": "5811-5",
              "system": "http://loinc.org",
              "display": "Specific gravity of Urine by Test strip"
            }
          ],
          "text": "Specific gravity of Urine by Test strip"
        },
        "valueQuantity": {
          "system": "http://unitsofmeasure.org",
          "value": 1,
          "unit": "{nominal}",
          "code": "{nominal}"
        },
        "referenceRange": [
          {
            "low": {
              "value": 1.005,
              "code": "g/mL",
              "system": "http://unitsofmeasure.org"
            }
          },
          {
            "high": {
              "value": 1.03,
              "code": "g/mL",
              "system": "http://unitsofmeasure.org"
            }
          }
        ],
        "interpretation": [
          {
            "coding": [
              {
                "code": "L",
                "system": "http://terminology.hl7.org/CodeSystem/v3-ObservationInterpretation",
                "display": "Low"
              }
            ]
          }
        ],
        "text": {
          "status": "generated",
          "div": "<div xmlns=\"http://www.w3.org/1999/xhtml\"><table class=\"hl7__eu__lab__report\"><tr><th>Test</th><th>03-Aug-2023</th><th>Reference&#xA0;Range</th><th>Unit</th></tr><tr><td>Specific gravity of Urine by Test strip</td><td>1.0</td><td>1.005 - 1.03</td><td>L</td><td>{nominal}</td></tr></table></div>"
        },
        "status": "final",
        "subject": {
          "reference": "urn:uuid:cbe9c2db-ff48-4788-ac54-078ae7b3f4d3",
          "display": "Molly Jenkins"
        },
        "effectiveDateTime": "2023-08-03T14:42:11Z",
        "specimen": {
          "reference": "urn:uuid:0d45d9a6-c544-45fa-943a-889ef5eaa946"
        }
      }
    },
    {
      "fullUrl": "urn:uuid:9bf90338-9b2b-4fe8-aebf-b99498f09821",
      "resource": {
        "resourceType": "Observation",
        "id": "9bf90338-9b2b-4fe8-aebf-b99498f09821",
        "meta": {
          "profile": [
            "http://hl7.eu/fhir/laboratory/StructureDefinition/Observation-resultslab-eu-lab"
          ]
        },
        "performer": [
          {
            "display": "The Central European Lab"
          }
        ],
        "category": [
          {
            "coding": [
              {
                "system": "http://terminology.hl7.org/CodeSystem/observation-category",
                "code": "laboratory"
              }
            ]
          }
        ],
        "code": {
          "coding": [
            {
              "code": "5803-2",
              "system": "http://loinc.org",
              "display": "pH of Urine by Test strip"
            }
          ],
          "text": "pH of Urine by Test strip"
        },
        "valueQuantity": {
          "system": "http://unitsofmeasure.org",
          "value": 5.9,
          "unit": "pH",
          "code": "pH"
        },
        "referenceRange": [
          {
            "low": {
              "value": 4.5,
              "code": "pH",
              "system": "http://unitsofmeasure.org"
            }
          },
          {
            "high": {
              "value": 7.5,
              "code": "pH",
              "system": "http://unitsofmeasure.org"
            }
          }
        ],
        "text": {
          "status": "generated",
          "div": "<div xmlns=\"http://www.w3.org/1999/xhtml\"><table class=\"hl7__eu__lab__report\"><tr><th>Test</th><th>03-Aug-2023</th><th>Reference&#xA0;Range</th><th>Unit</th></tr><tr><td>pH of Urine by Test strip</td><td>5.9</td><td>4.5 - 7.5</td><td></td><td>pH</td></tr></table></div>"
        },
        "status": "final",
        "subject": {
          "reference": "urn:uuid:cbe9c2db-ff48-4788-ac54-078ae7b3f4d3",
          "display": "Molly Jenkins"
        },
        "effectiveDateTime": "2023-08-03T14:42:11Z",
        "specimen": {
          "reference": "urn:uuid:0d45d9a6-c544-45fa-943a-889ef5eaa946"
        }
      }
    },
    {
      "fullUrl": "urn:uuid:94d78871-d775-441f-abec-d73452242211",
      "resource": {
        "resourceType": "Observation",
        "id": "94d78871-d775-441f-abec-d73452242211",
        "meta": {
          "profile": [
            "http://hl7.eu/fhir/laboratory/StructureDefinition/Observation-resultslab-eu-lab"
          ]
        },
        "performer": [
          {
            "display": "The Central European Lab"
          }
        ],
        "category": [
          {
            "coding": [
              {
                "system": "http://terminology.hl7.org/CodeSystem/observation-category",
                "code": "laboratory"
              }
            ]
          }
        ],
        "code": {
          "coding": [
            {
              "code": "5804-0",
              "system": "http://loinc.org",
              "display": "Protein [Mass/volume] in Urine by Test strip"
            }
          ],
          "text": "Protein [Mass/volume] in Urine by Test strip"
        },
        "valueQuantity": {
          "system": "http://unitsofmeasure.org",
          "value": 311.9,
          "unit": "mg/dL",
          "code": "mg/dL"
        },
        "referenceRange": [
          {
            "low": {
              "value": 0,
              "code": "mg/dL",
              "system": "http://unitsofmeasure.org"
            }
          },
          {
            "high": {
              "value": 15,
              "code": "mg/dL",
              "system": "http://unitsofmeasure.org"
            }
          }
        ],
        "interpretation": [
          {
            "coding": [
              {
                "code": "H",
                "system": "http://terminology.hl7.org/CodeSystem/v3-ObservationInterpretation",
                "display": "High"
              }
            ]
          }
        ],
        "text": {
          "status": "generated",
          "div": "<div xmlns=\"http://www.w3.org/1999/xhtml\"><table class=\"hl7__eu__lab__report\"><tr><th>Test</th><th>03-Aug-2023</th><th>Reference&#xA0;Range</th><th>Unit</th></tr><tr><td>Protein [Mass/volume] in Urine by Test strip</td><td>311.9</td><td>0 - 15</td><td>H</td><td>mg/dL</td></tr></table></div>"
        },
        "status": "final",
        "subject": {
          "reference": "urn:uuid:cbe9c2db-ff48-4788-ac54-078ae7b3f4d3",
          "display": "Molly Jenkins"
        },
        "effectiveDateTime": "2023-08-03T14:42:11Z",
        "specimen": {
          "reference": "urn:uuid:0d45d9a6-c544-45fa-943a-889ef5eaa946"
        }
      }
    },
    {
      "fullUrl": "urn:uuid:a1aac6d7-9a0b-454a-990e-10623f3a3159",
      "resource": {
        "resourceType": "Observation",
        "id": "a1aac6d7-9a0b-454a-990e-10623f3a3159",
        "meta": {
          "profile": [
            "http://hl7.eu/fhir/laboratory/StructureDefinition/Observation-resultslab-eu-lab"
          ]
        },
        "performer": [
          {
            "display": "The Central European Lab"
          }
        ],
        "category": [
          {
            "coding": [
              {
                "system": "http://terminology.hl7.org/CodeSystem/observation-category",
                "code": "laboratory"
              }
            ]
          }
        ],
        "code": {
          "coding": [
            {
              "code": "20454-5",
              "system": "http://loinc.org",
              "display": "Protein [Presence] in Urine by Test strip"
            }
          ],
          "text": "Protein [Presence] in Urine by Test strip"
        },
        "text": {
          "status": "generated",
          "div": "<div xmlns=\"http://www.w3.org/1999/xhtml\"><table class=\"hl7__eu__lab__report\"><tr><th>Test</th><th>03-Aug-2023</th><th>Reference&#xA0;Range</th><th>Unit</th></tr><tr><td>Protein [Presence] in Urine by Test strip</td></tr></table></div>"
        },
        "status": "final",
        "subject": {
          "reference": "urn:uuid:cbe9c2db-ff48-4788-ac54-078ae7b3f4d3",
          "display": "Molly Jenkins"
        },
        "effectiveDateTime": "2023-08-03T14:42:11Z",
        "specimen": {
          "reference": "urn:uuid:0d45d9a6-c544-45fa-943a-889ef5eaa946"
        }
      }
    },
    {
      "fullUrl": "urn:uuid:28b75707-d883-493f-a6a3-b1ae9972e7fc",
      "resource": {
        "resourceType": "Observation",
        "id": "28b75707-d883-493f-a6a3-b1ae9972e7fc",
        "meta": {
          "profile": [
            "http://hl7.eu/fhir/laboratory/StructureDefinition/Observation-resultslab-eu-lab"
          ]
        },
        "performer": [
          {
            "display": "The Central European Lab"
          }
        ],
        "category": [
          {
            "coding": [
              {
                "system": "http://terminology.hl7.org/CodeSystem/observation-category",
                "code": "laboratory"
              }
            ]
          }
        ],
        "code": {
          "coding": [
            {
              "code": "5802-4",
              "system": "http://loinc.org",
              "display": "Nitrite [Presence] in Urine by Test strip"
            }
          ],
          "text": "Nitrite [Presence] in Urine by Test strip"
        },
        "text": {
          "status": "generated",
          "div": "<div xmlns=\"http://www.w3.org/1999/xhtml\"><table class=\"hl7__eu__lab__report\"><tr><th>Test</th><th>03-Aug-2023</th><th>Reference&#xA0;Range</th><th>Unit</th></tr><tr><td>Nitrite [Presence] in Urine by Test strip</td></tr></table></div>"
        },
        "status": "final",
        "subject": {
          "reference": "urn:uuid:cbe9c2db-ff48-4788-ac54-078ae7b3f4d3",
          "display": "Molly Jenkins"
        },
        "effectiveDateTime": "2023-08-03T14:42:11Z",
        "specimen": {
          "reference": "urn:uuid:0d45d9a6-c544-45fa-943a-889ef5eaa946"
        }
      }
    },
    {
      "fullUrl": "urn:uuid:42289e7e-06f4-44d5-a301-ca71bd815804",
      "resource": {
        "resourceType": "Observation",
        "id": "42289e7e-06f4-44d5-a301-ca71bd815804",
        "meta": {
          "profile": [
            "http://hl7.eu/fhir/laboratory/StructureDefinition/Observation-resultslab-eu-lab"
          ]
        },
        "performer": [
          {
            "display": "The Central European Lab"
          }
        ],
        "category": [
          {
            "coding": [
              {
                "system": "http://terminology.hl7.org/CodeSystem/observation-category",
                "code": "laboratory"
              }
            ]
          }
        ],
        "code": {
          "coding": [
            {
              "code": "5794-3",
              "system": "http://loinc.org",
              "display": "Hemoglobin [Presence] in Urine by Test strip"
            }
          ],
          "text": "Hemoglobin [Presence] in Urine by Test strip"
        },
        "text": {
          "status": "generated",
          "div": "<div xmlns=\"http://www.w3.org/1999/xhtml\"><table class=\"hl7__eu__lab__report\"><tr><th>Test</th><th>03-Aug-2023</th><th>Reference&#xA0;Range</th><th>Unit</th></tr><tr><td>Hemoglobin [Presence] in Urine by Test strip</td></tr></table></div>"
        },
        "status": "final",
        "subject": {
          "reference": "urn:uuid:cbe9c2db-ff48-4788-ac54-078ae7b3f4d3",
          "display": "Molly Jenkins"
        },
        "effectiveDateTime": "2023-08-03T14:42:11Z",
        "specimen": {
          "reference": "urn:uuid:0d45d9a6-c544-45fa-943a-889ef5eaa946"
        }
      }
    },
    {
      "fullUrl": "urn:uuid:258c250e-8559-464c-98c8-3340f5efb214",
      "resource": {
        "resourceType": "Observation",
        "id": "258c250e-8559-464c-98c8-3340f5efb214",
        "meta": {
          "profile": [
            "http://hl7.eu/fhir/laboratory/StructureDefinition/Observation-resultslab-eu-lab"
          ]
        },
        "performer": [
          {
            "display": "The Central European Lab"
          }
        ],
        "category": [
          {
            "coding": [
              {
                "system": "http://terminology.hl7.org/CodeSystem/observation-category",
                "code": "laboratory"
              }
            ]
          }
        ],
        "code": {
          "coding": [
            {
              "code": "5799-2",
              "system": "http://loinc.org",
              "display": "Leukocyte esterase [Presence] in Urine by Test strip"
            }
          ],
          "text": "Leukocyte esterase [Presence] in Urine by Test strip"
        },
        "text": {
          "status": "generated",
          "div": "<div xmlns=\"http://www.w3.org/1999/xhtml\"><table class=\"hl7__eu__lab__report\"><tr><th>Test</th><th>03-Aug-2023</th><th>Reference&#xA0;Range</th><th>Unit</th></tr><tr><td>Leukocyte esterase [Presence] in Urine by Test strip</td></tr></table></div>"
        },
        "status": "final",
        "subject": {
          "reference": "urn:uuid:cbe9c2db-ff48-4788-ac54-078ae7b3f4d3",
          "display": "Molly Jenkins"
        },
        "effectiveDateTime": "2023-08-03T14:42:11Z",
        "specimen": {
          "reference": "urn:uuid:0d45d9a6-c544-45fa-943a-889ef5eaa946"
        }
      }
    },
    {
      "fullUrl": "urn:uuid:bfefbec1-31ee-406a-9a3c-b9e3fc624852",
      "resource": {
        "resourceType": "Observation",
        "id": "bfefbec1-31ee-406a-9a3c-b9e3fc624852",
        "meta": {
          "profile": [
            "http://hl7.eu/fhir/laboratory/StructureDefinition/Observation-resultslab-eu-lab"
          ]
        },
        "performer": [
          {
            "display": "The Central European Lab"
          }
        ],
        "category": [
          {
            "coding": [
              {
                "system": "http://terminology.hl7.org/CodeSystem/observation-category",
                "code": "laboratory"
              }
            ]
          }
        ],
        "code": {
          "coding": [
            {
              "code": "4548-4",
              "system": "http://loinc.org",
              "display": "Hemoglobin A1c/Hemoglobin.total in Blood"
            }
          ],
          "text": "Hemoglobin A1c/Hemoglobin.total in Blood"
        },
        "valueQuantity": {
          "system": "http://unitsofmeasure.org",
          "value": 3,
          "unit": "%",
          "code": "%"
        },
        "referenceRange": [
          {
            "low": {
              "value": 4,
              "code": "%",
              "system": "http://unitsofmeasure.org"
            }
          },
          {
            "high": {
              "value": 6,
              "code": "%",
              "system": "http://unitsofmeasure.org"
            }
          }
        ],
        "interpretation": [
          {
            "coding": [
              {
                "code": "L",
                "system": "http://terminology.hl7.org/CodeSystem/v3-ObservationInterpretation",
                "display": "Low"
              }
            ]
          }
        ],
        "text": {
          "status": "generated",
          "div": "<div xmlns=\"http://www.w3.org/1999/xhtml\"><table class=\"hl7__eu__lab__report\"><tr><th>Test</th><th>03-Aug-2023</th><th>Reference&#xA0;Range</th><th>Unit</th></tr><tr><td>Hemoglobin A1c/Hemoglobin.total in Blood</td><td>3.0</td><td>4 - 6</td><td>L</td><td>%</td></tr></table></div>"
        },
        "status": "final",
        "subject": {
          "reference": "urn:uuid:cbe9c2db-ff48-4788-ac54-078ae7b3f4d3",
          "display": "Molly Jenkins"
        },
        "effectiveDateTime": "2023-08-03T14:42:11Z",
        "specimen": {
          "reference": "urn:uuid:f12a2358-01ac-4976-89a5-30501aaa584d"
        }
      }
    },
    {
      "fullUrl": "urn:uuid:e87d0ae3-2445-4dd5-9eda-f0f21d6b2fde",
      "resource": {
        "resourceType": "Observation",
        "id": "e87d0ae3-2445-4dd5-9eda-f0f21d6b2fde",
        "meta": {
          "profile": [
            "http://hl7.eu/fhir/laboratory/StructureDefinition/Observation-resultslab-eu-lab"
          ]
        },
        "performer": [
          {
            "display": "The Central European Lab"
          }
        ],
        "category": [
          {
            "coding": [
              {
                "system": "http://terminology.hl7.org/CodeSystem/observation-category",
                "code": "laboratory"
              }
            ]
          }
        ],
        "code": {
          "coding": [
            {
              "code": "2339-0",
              "system": "http://loinc.org",
              "display": "Glucose [Mass/volume] in Blood"
            }
          ],
          "text": "Glucose [Mass/volume] in Blood"
        },
        "valueQuantity": {
          "system": "http://unitsofmeasure.org",
          "value": 81.2,
          "unit": "mg/dL",
          "code": "mg/dL"
        },
        "referenceRange": [
          {
            "low": {
              "value": 70,
              "code": "mg/dL",
              "system": "http://unitsofmeasure.org"
            }
          },
          {
            "high": {
              "value": 100,
              "code": "mg/dL",
              "system": "http://unitsofmeasure.org"
            }
          }
        ],
        "text": {
          "status": "generated",
          "div": "<div xmlns=\"http://www.w3.org/1999/xhtml\"><table class=\"hl7__eu__lab__report\"><tr><th>Test</th><th>03-Aug-2023</th><th>Reference&#xA0;Range</th><th>Unit</th></tr><tr><td>Glucose [Mass/volume] in Blood</td><td>81.2</td><td>70 - 100</td><td></td><td>mg/dL</td></tr></table></div>"
        },
        "status": "final",
        "subject": {
          "reference": "urn:uuid:cbe9c2db-ff48-4788-ac54-078ae7b3f4d3",
          "display": "Molly Jenkins"
        },
        "effectiveDateTime": "2023-08-03T14:42:11Z",
        "specimen": {
          "reference": "urn:uuid:f12a2358-01ac-4976-89a5-30501aaa584d"
        }
      }
    },
    {
      "fullUrl": "urn:uuid:e6839a65-ce6f-478e-a355-af7511ae046f",
      "resource": {
        "resourceType": "Observation",
        "id": "e6839a65-ce6f-478e-a355-af7511ae046f",
        "meta": {
          "profile": [
            "http://hl7.eu/fhir/laboratory/StructureDefinition/Observation-resultslab-eu-lab"
          ]
        },
        "performer": [
          {
            "display": "The Central European Lab"
          }
        ],
        "category": [
          {
            "coding": [
              {
                "system": "http://terminology.hl7.org/CodeSystem/observation-category",
                "code": "laboratory"
              }
            ]
          }
        ],
        "code": {
          "coding": [
            {
              "code": "6299-2",
              "system": "http://loinc.org",
              "display": "Urea nitrogen [Mass/volume] in Blood"
            }
          ],
          "text": "Urea nitrogen [Mass/volume] in Blood"
        },
        "valueQuantity": {
          "system": "http://unitsofmeasure.org",
          "value": 18.6,
          "unit": "mg/dL",
          "code": "mg/dL"
        },
        "referenceRange": [
          {
            "low": {
              "value": 7,
              "code": "mg/dL",
              "system": "http://unitsofmeasure.org"
            }
          },
          {
            "high": {
              "value": 20,
              "code": "mg/dL",
              "system": "http://unitsofmeasure.org"
            }
          }
        ],
        "text": {
          "status": "generated",
          "div": "<div xmlns=\"http://www.w3.org/1999/xhtml\"><table class=\"hl7__eu__lab__report\"><tr><th>Test</th><th>03-Aug-2023</th><th>Reference&#xA0;Range</th><th>Unit</th></tr><tr><td>Urea nitrogen [Mass/volume] in Blood</td><td>18.6</td><td>7 - 20</td><td></td><td>mg/dL</td></tr></table></div>"
        },
        "status": "final",
        "subject": {
          "reference": "urn:uuid:cbe9c2db-ff48-4788-ac54-078ae7b3f4d3",
          "display": "Molly Jenkins"
        },
        "effectiveDateTime": "2023-08-03T14:42:11Z",
        "specimen": {
          "reference": "urn:uuid:f12a2358-01ac-4976-89a5-30501aaa584d"
        }
      }
    },
    {
      "fullUrl": "urn:uuid:844d45d3-e441-4f83-b1ac-29e557be3585",
      "resource": {
        "resourceType": "Observation",
        "id": "844d45d3-e441-4f83-b1ac-29e557be3585",
        "meta": {
          "profile": [
            "http://hl7.eu/fhir/laboratory/StructureDefinition/Observation-resultslab-eu-lab"
          ]
        },
        "performer": [
          {
            "display": "The Central European Lab"
          }
        ],
        "category": [
          {
            "coding": [
              {
                "system": "http://terminology.hl7.org/CodeSystem/observation-category",
                "code": "laboratory"
              }
            ]
          }
        ],
        "code": {
          "coding": [
            {
              "code": "38483-4",
              "system": "http://loinc.org",
              "display": "Creatinine [Mass/volume] in Blood"
            }
          ],
          "text": "Creatinine [Mass/volume] in Blood"
        },
        "valueQuantity": {
          "system": "http://unitsofmeasure.org",
          "value": 1.2,
          "unit": "mg/dL",
          "code": "mg/dL"
        },
        "referenceRange": [
          {
            "low": {
              "value": 0.6,
              "code": "mg/dL",
              "system": "http://unitsofmeasure.org"
            }
          },
          {
            "high": {
              "value": 1.3,
              "code": "mg/dL",
              "system": "http://unitsofmeasure.org"
            }
          }
        ],
        "text": {
          "status": "generated",
          "div": "<div xmlns=\"http://www.w3.org/1999/xhtml\"><table class=\"hl7__eu__lab__report\"><tr><th>Test</th><th>03-Aug-2023</th><th>Reference&#xA0;Range</th><th>Unit</th></tr><tr><td>Creatinine [Mass/volume] in Blood</td><td>1.2</td><td>0.6 - 1.3</td><td></td><td>mg/dL</td></tr></table></div>"
        },
        "status": "final",
        "subject": {
          "reference": "urn:uuid:cbe9c2db-ff48-4788-ac54-078ae7b3f4d3",
          "display": "Molly Jenkins"
        },
        "effectiveDateTime": "2023-08-03T14:42:11Z",
        "specimen": {
          "reference": "urn:uuid:f12a2358-01ac-4976-89a5-30501aaa584d"
        }
      }
    },
    {
      "fullUrl": "urn:uuid:ec878df3-b9e7-44df-9c65-e7e91297b762",
      "resource": {
        "resourceType": "Observation",
        "id": "ec878df3-b9e7-44df-9c65-e7e91297b762",
        "meta": {
          "profile": [
            "http://hl7.eu/fhir/laboratory/StructureDefinition/Observation-resultslab-eu-lab"
          ]
        },
        "performer": [
          {
            "display": "The Central European Lab"
          }
        ],
        "category": [
          {
            "coding": [
              {
                "system": "http://terminology.hl7.org/CodeSystem/observation-category",
                "code": "laboratory"
              }
            ]
          }
        ],
        "code": {
          "coding": [
            {
              "code": "49765-1",
              "system": "http://loinc.org",
              "display": "Calcium [Mass/volume] in Blood"
            }
          ],
          "text": "Calcium [Mass/volume] in Blood"
        },
        "valueQuantity": {
          "system": "http://unitsofmeasure.org",
          "value": 9.9,
          "unit": "mg/dL",
          "code": "mg/dL"
        },
        "referenceRange": [
          {
            "low": {
              "value": 8.6,
              "code": "mg/dL",
              "system": "http://unitsofmeasure.org"
            }
          },
          {
            "high": {
              "value": 10.4,
              "code": "mg/dL",
              "system": "http://unitsofmeasure.org"
            }
          }
        ],
        "text": {
          "status": "generated",
          "div": "<div xmlns=\"http://www.w3.org/1999/xhtml\"><table class=\"hl7__eu__lab__report\"><tr><th>Test</th><th>03-Aug-2023</th><th>Reference&#xA0;Range</th><th>Unit</th></tr><tr><td>Calcium [Mass/volume] in Blood</td><td>9.9</td><td>8.6 - 10.4</td><td></td><td>mg/dL</td></tr></table></div>"
        },
        "status": "final",
        "subject": {
          "reference": "urn:uuid:cbe9c2db-ff48-4788-ac54-078ae7b3f4d3",
          "display": "Molly Jenkins"
        },
        "effectiveDateTime": "2023-08-03T14:42:11Z",
        "specimen": {
          "reference": "urn:uuid:f12a2358-01ac-4976-89a5-30501aaa584d"
        }
      }
    },
    {
      "fullUrl": "urn:uuid:d1492095-8f2c-4801-99fc-eed125390bc5",
      "resource": {
        "resourceType": "Observation",
        "id": "d1492095-8f2c-4801-99fc-eed125390bc5",
        "meta": {
          "profile": [
            "http://hl7.eu/fhir/laboratory/StructureDefinition/Observation-resultslab-eu-lab"
          ]
        },
        "performer": [
          {
            "display": "The Central European Lab"
          }
        ],
        "category": [
          {
            "coding": [
              {
                "system": "http://terminology.hl7.org/CodeSystem/observation-category",
                "code": "laboratory"
              }
            ]
          }
        ],
        "code": {
          "coding": [
            {
              "code": "2947-0",
              "system": "http://loinc.org",
              "display": "Sodium [Moles/volume] in Blood"
            }
          ],
          "text": "Sodium [Moles/volume] in Blood"
        },
        "valueQuantity": {
          "system": "http://unitsofmeasure.org",
          "value": 137.5,
          "unit": "mmol/L",
          "code": "mmol/L"
        },
        "referenceRange": [
          {
            "low": {
              "value": 135,
              "code": "mmol/L",
              "system": "http://unitsofmeasure.org"
            }
          },
          {
            "high": {
              "value": 145,
              "code": "mmol/L",
              "system": "http://unitsofmeasure.org"
            }
          }
        ],
        "text": {
          "status": "generated",
          "div": "<div xmlns=\"http://www.w3.org/1999/xhtml\"><table class=\"hl7__eu__lab__report\"><tr><th>Test</th><th>03-Aug-2023</th><th>Reference&#xA0;Range</th><th>Unit</th></tr><tr><td>Sodium [Moles/volume] in Blood</td><td>137.5</td><td>135 - 145</td><td></td><td>mmol/L</td></tr></table></div>"
        },
        "status": "final",
        "subject": {
          "reference": "urn:uuid:cbe9c2db-ff48-4788-ac54-078ae7b3f4d3",
          "display": "Molly Jenkins"
        },
        "effectiveDateTime": "2023-08-03T14:42:11Z",
        "specimen": {
          "reference": "urn:uuid:f12a2358-01ac-4976-89a5-30501aaa584d"
        }
      }
    },
    {
      "fullUrl": "urn:uuid:fd9b12d5-54e5-4371-b4f5-dc75661511db",
      "resource": {
        "resourceType": "Observation",
        "id": "fd9b12d5-54e5-4371-b4f5-dc75661511db",
        "meta": {
          "profile": [
            "http://hl7.eu/fhir/laboratory/StructureDefinition/Observation-resultslab-eu-lab"
          ]
        },
        "performer": [
          {
            "display": "The Central European Lab"
          }
        ],
        "category": [
          {
            "coding": [
              {
                "system": "http://terminology.hl7.org/CodeSystem/observation-category",
                "code": "laboratory"
              }
            ]
          }
        ],
        "code": {
          "coding": [
            {
              "code": "6298-4",
              "system": "http://loinc.org",
              "display": "Potassium [Moles/volume] in Blood"
            }
          ],
          "text": "Potassium [Moles/volume] in Blood"
        },
        "valueQuantity": {
          "system": "http://unitsofmeasure.org",
          "value": 5.1,
          "unit": "mmol/L",
          "code": "mmol/L"
        },
        "referenceRange": [
          {
            "low": {
              "value": 3.5,
              "code": "mmol/L",
              "system": "http://unitsofmeasure.org"
            }
          },
          {
            "high": {
              "value": 5.1,
              "code": "mmol/L",
              "system": "http://unitsofmeasure.org"
            }
          }
        ],
        "text": {
          "status": "generated",
          "div": "<div xmlns=\"http://www.w3.org/1999/xhtml\"><table class=\"hl7__eu__lab__report\"><tr><th>Test</th><th>03-Aug-2023</th><th>Reference&#xA0;Range</th><th>Unit</th></tr><tr><td>Potassium [Moles/volume] in Blood</td><td>5.1</td><td>3.5 - 5.1</td><td></td><td>mmol/L</td></tr></table></div>"
        },
        "status": "final",
        "subject": {
          "reference": "urn:uuid:cbe9c2db-ff48-4788-ac54-078ae7b3f4d3",
          "display": "Molly Jenkins"
        },
        "effectiveDateTime": "2023-08-03T14:42:11Z",
        "specimen": {
          "reference": "urn:uuid:f12a2358-01ac-4976-89a5-30501aaa584d"
        }
      }
    },
    {
      "fullUrl": "urn:uuid:fcfa75b5-ab70-4c85-8a68-5a638ee6f0ad",
      "resource": {
        "resourceType": "Observation",
        "id": "fcfa75b5-ab70-4c85-8a68-5a638ee6f0ad",
        "meta": {
          "profile": [
            "http://hl7.eu/fhir/laboratory/StructureDefinition/Observation-resultslab-eu-lab"
          ]
        },
        "performer": [
          {
            "display": "The Central European Lab"
          }
        ],
        "category": [
          {
            "coding": [
              {
                "system": "http://terminology.hl7.org/CodeSystem/observation-category",
                "code": "laboratory"
              }
            ]
          }
        ],
        "code": {
          "coding": [
            {
              "code": "2069-3",
              "system": "http://loinc.org",
              "display": "Chloride [Moles/volume] in Blood"
            }
          ],
          "text": "Chloride [Moles/volume] in Blood"
        },
        "valueQuantity": {
          "system": "http://unitsofmeasure.org",
          "value": 104.5,
          "unit": "mmol/L",
          "code": "mmol/L"
        },
        "referenceRange": [
          {
            "low": {
              "value": 98,
              "code": "mmol/L",
              "system": "http://unitsofmeasure.org"
            }
          },
          {
            "high": {
              "value": 110,
              "code": "mmol/L",
              "system": "http://unitsofmeasure.org"
            }
          }
        ],
        "text": {
          "status": "generated",
          "div": "<div xmlns=\"http://www.w3.org/1999/xhtml\"><table class=\"hl7__eu__lab__report\"><tr><th>Test</th><th>03-Aug-2023</th><th>Reference&#xA0;Range</th><th>Unit</th></tr><tr><td>Chloride [Moles/volume] in Blood</td><td>104.5</td><td>98 - 110</td><td></td><td>mmol/L</td></tr></table></div>"
        },
        "status": "final",
        "subject": {
          "reference": "urn:uuid:cbe9c2db-ff48-4788-ac54-078ae7b3f4d3",
          "display": "Molly Jenkins"
        },
        "effectiveDateTime": "2023-08-03T14:42:11Z",
        "specimen": {
          "reference": "urn:uuid:f12a2358-01ac-4976-89a5-30501aaa584d"
        }
      }
    },
    {
      "fullUrl": "urn:uuid:e73d4b8f-94fb-42a5-b048-b229e1da759f",
      "resource": {
        "resourceType": "Observation",
        "id": "e73d4b8f-94fb-42a5-b048-b229e1da759f",
        "meta": {
          "profile": [
            "http://hl7.eu/fhir/laboratory/StructureDefinition/Observation-resultslab-eu-lab"
          ]
        },
        "performer": [
          {
            "display": "The Central European Lab"
          }
        ],
        "category": [
          {
            "coding": [
              {
                "system": "http://terminology.hl7.org/CodeSystem/observation-category",
                "code": "laboratory"
              }
            ]
          }
        ],
        "code": {
          "coding": [
            {
              "code": "20565-8",
              "system": "http://loinc.org",
              "display": "Carbon dioxide, total [Moles/volume] in Blood"
            }
          ],
          "text": "Carbon dioxide, total [Moles/volume] in Blood"
        },
        "valueQuantity": {
          "system": "http://unitsofmeasure.org",
          "value": 27.7,
          "unit": "mmol/L",
          "code": "mmol/L"
        },
        "referenceRange": [
          {
            "low": {
              "value": 22,
              "code": "mmol/L",
              "system": "http://unitsofmeasure.org"
            }
          },
          {
            "high": {
              "value": 29,
              "code": "mmol/L",
              "system": "http://unitsofmeasure.org"
            }
          }
        ],
        "text": {
          "status": "generated",
          "div": "<div xmlns=\"http://www.w3.org/1999/xhtml\"><table class=\"hl7__eu__lab__report\"><tr><th>Test</th><th>03-Aug-2023</th><th>Reference&#xA0;Range</th><th>Unit</th></tr><tr><td>Carbon dioxide, total [Moles/volume] in Blood</td><td>27.7</td><td>22 - 29</td><td></td><td>mmol/L</td></tr></table></div>"
        },
        "status": "final",
        "subject": {
          "reference": "urn:uuid:cbe9c2db-ff48-4788-ac54-078ae7b3f4d3",
          "display": "Molly Jenkins"
        },
        "effectiveDateTime": "2023-08-03T14:42:11Z",
        "specimen": {
          "reference": "urn:uuid:f12a2358-01ac-4976-89a5-30501aaa584d"
        }
      }
    },
    {
      "fullUrl": "urn:uuid:52fd43ba-b7b5-414e-beea-116faef1f4e8",
      "resource": {
        "resourceType": "Device",
        "id": "52fd43ba-b7b5-414e-beea-116faef1f4e8",
        "deviceName": [
          {
            "name": "SYNDERAI Synthetic Generator",
            "type": "manufacturer-name"
          }
        ],
        "version": [
          {
            "value": "5.0"
          }
        ],
        "text": {
          "status": "generated",
          "div": "<div xmlns=\"http://www.w3.org/1999/xhtml\">SYNDERAI Synthetic Generator v5.0</div>"
        },
        "status": "active\"",
        "distinctIdentifier": "synderai-generator-50",
        "manufacturer": "SYNDERAI Project"
      }
    },
    {
      "fullUrl": "urn:uuid:beddb92f-e651-4c58-946e-fff87c5f0de4",
      "resource": {
        "resourceType": "Provenance",
        "id": "beddb92f-e651-4c58-946e-fff87c5f0de4",
        "target": [
          {
            "reference": "Patient/cbe9c2db-ff48-4788-ac54-078ae7b3f4d3"
          },
          {
            "reference": "Bundle/1d694ffe-f731-4026-80ab-fa21e4cebf7f"
          },
          {
            "reference": "Composition/107c8089-58a0-466a-ad3a-10efb8cb3296"
          },
          {
            "reference": "PractitionerRole/9c228c2f-8612-45d3-9347-5655f8334559"
          },
          {
            "reference": "Practitioner/04e97875-4b17-4c89-8036-31fbaa4b1c91"
          },
          {
            "reference": "PractitionerRole/46072594-ae68-4ef9-af9e-ab03fd95aa40"
          },
          {
            "reference": "Organization/b053c8f2-782a-4c28-bcf9-ba1e856630bc"
          }
        ],
        "activity": {
          "text": "Synthetic Example Data Generation"
        },
        "policy": [
          "https://synderai.net/synderai-synthetic-data-policy"
        ],
        "agent": [
          {
            "type": {
              "text": "author"
            },
            "who": {
              "reference": "Device/52fd43ba-b7b5-414e-beea-116faef1f4e8"
            }
          }
        ],
        "reason": [
          {
            "text": "Interoperability Testing and Training (non-clinical use)"
          }
        ],
        "text": {
          "status": "generated",
          "div": "<div xmlns=\"http://www.w3.org/1999/xhtml\">Provenance for SYNDERAI Synthetic Example Data Resource</div>"
        },
        "recorded": "2023-08-03T16:42:11Z"
      }
    },
    {
      "fullUrl": "urn:uuid:9c228c2f-8612-45d3-9347-5655f8334559",
      "resource": {
        "resourceType": "PractitionerRole",
        "id": "9c228c2f-8612-45d3-9347-5655f8334559",
        "meta": {
          "profile": [
            "http://hl7.eu/fhir/base/StructureDefinition/practitionerRole-eu"
          ]
        },
        "text": {
          "status": "generated",
          "div": "<div xmlns=\"http://www.w3.org/1999/xhtml\">Laboratory Role Id: 9c228c2f-8612-45d3-9347-5655f8334559</div>"
        },
        "practitioner": {
          "reference": "urn:uuid:04e97875-4b17-4c89-8036-31fbaa4b1c91"
        }
      }
    },
    {
      "fullUrl": "urn:uuid:04e97875-4b17-4c89-8036-31fbaa4b1c91",
      "resource": {
        "resourceType": "Practitioner",
        "id": "04e97875-4b17-4c89-8036-31fbaa4b1c91",
        "meta": {
          "profile": [
            "http://hl7.eu/fhir/base/StructureDefinition/practitioner-eu"
          ]
        },
        "identifier": [
          {
            "assigner": {
              "display": "HL7 Europe"
            },
            "system": "urn:oid:2.16.840.1.113883.2.51.999",
            "value": "2694932f-974a-41dd-b228-cf371f0546bc"
          }
        ],
        "name": [
          {
            "prefix": [
              "dr"
            ],
            "given": [
              "Ex"
            ],
            "family": "Ample"
          }
        ],
        "address": [
          {
            "line": [
              "Laboratoire Central Européenne",
              "Boulevard du Jardin Botanique 32"
            ],
            "postalCode": "1000",
            "city": "Brussels",
            "country": "Belgium"
          }
        ],
        "text": {
          "status": "generated",
          "div": "<div xmlns=\"http://www.w3.org/1999/xhtml\">Laboratory: Laboratoire Central Européenne, 1000 Brussels, Belgium</div>"
        }
      }
    }
  ],
  "type": "document",
  "timestamp": "2023-08-03T16:42:11Z"
}
