{
  "resourceType": "Bundle",
  "id": "f384b36a-e8e1-4b8b-ae34-0d9e4a59853d",
  "meta": {
    "profile": [
      "http://hl7.eu/fhir/laboratory/StructureDefinition/Bundle-eu-lab"
    ]
  },
  "identifier": {
    "assigner": {
      "display": "HL7 Europe"
    },
    "system": "urn:oid:2.16.840.1.113883.2.51.999",
    "value": "9f7a1109-9063-4acf-a488-c5738ed6cb10"
  },
  "entry": [
    {
      "fullUrl": "urn:uuid:b4ca14e3-39da-46fd-b754-24d364a3c403",
      "resource": {
        "resourceType": "Composition",
        "id": "b4ca14e3-39da-46fd-b754-24d364a3c403",
        "meta": {
          "profile": [
            "http://hl7.eu/fhir/laboratory/StructureDefinition/Composition-eu-lab"
          ]
        },
        "identifier": {
          "assigner": {
            "display": "HL7 Europe"
          },
          "system": "urn:oid:2.16.840.1.113883.2.51.999",
          "value": "6bc93bc8-26a1-4feb-a3d8-a9333d280ea6"
        },
        "author": [
          {
            "reference": "urn:uuid:c5680613-0735-4707-987f-40367f2ea6ba"
          }
        ],
        "category": [
          {
            "coding": [
              {
                "code": "26436-6",
                "system": "http://loinc.org",
                "display": "Laboratory studies (set)"
              }
            ]
          }
        ],
        "type": {
          "coding": [
            {
              "code": "11502-2",
              "system": "http://loinc.org",
              "display": "Laboratory report"
            }
          ],
          "text": "Laboratory Report"
        },
        "section": [
          {
            "code": {
              "coding": [
                {
                  "code": "26436-6",
                  "system": "http://loinc.org",
                  "display": "Laboratory studies (set)"
                }
              ],
              "text": "Laboratory studies"
            },
            "section": [
              {
                "code": {
                  "coding": [
                    {
                      "code": "$18723-7",
                      "system": "http://loinc.org",
                      "display": "Hematology studies (set)"
                    }
                  ],
                  "text": "Hematology"
                },
                "entry": [
                  {
                    "reference": "urn:uuid:d6515a95-e4ee-49d5-9b6d-720e63dd84d2"
                  },
                  {
                    "reference": "urn:uuid:c6837be6-199b-48e0-a00c-522d2181c392"
                  },
                  {
                    "reference": "urn:uuid:a3ee372d-b3de-4a7f-82b0-e4b8b5d26658"
                  },
                  {
                    "reference": "urn:uuid:f430b517-7fe8-4706-881d-6718b47ecc84"
                  },
                  {
                    "reference": "urn:uuid:541fc906-5964-4a60-a1e8-e631dd13b4c3"
                  },
                  {
                    "reference": "urn:uuid:ae99f779-704f-4cae-af6f-b85d9a657aa4"
                  },
                  {
                    "reference": "urn:uuid:14ca86c8-978f-4273-8f78-a238baf872b0"
                  },
                  {
                    "reference": "urn:uuid:d0dce7e4-d7c4-4e6e-b6da-f12b8e015a3c"
                  },
                  {
                    "reference": "urn:uuid:bfbc517e-3e22-46e0-a381-79abb174b71e"
                  }
                ],
                "text": {
                  "status": "generated",
                  "div": "<div xmlns=\"http://www.w3.org/1999/xhtml\"><h3>Hematology</h3><table class=\"hl7__eu__lab__report\"><thead><tr><th>Test</th><th>24-MAY-2017</th><th>Reference&#xA0;Range</th><th>Unit</th></tr></thead><tbody><tr><td>Leukocytes [#/volume] in Blood by Automated count</td><td>4.6</td><td>4 - 11</td><td>10*3/uL</td></tr><tr><td>Erythrocytes [#/volume] in Blood by Automated count</td><td>5.6</td><td>3.8 - 5.7</td><td>10*6/uL</td></tr><tr><td>Hemoglobin [Mass/volume] in Blood</td><td>14.2</td><td>12 - 16</td><td>g/dL</td></tr><tr><td>Hematocrit [Volume Fraction] of Blood by Automated count</td><td>50.0</td><td>38 - 56</td><td>%</td></tr><tr><td>MCV [Entitic volume] by Automated count</td><td>91.9</td><td>78 - 98</td><td>fL</td></tr><tr><td>MCH [Entitic mass] by Automated count</td><td>30.8</td><td>27 - 34</td><td>pg</td></tr><tr><td>MCHC [Mass/volume] by Automated count</td><td><strong>35.3 H</strong></td><td>32 - 35</td><td>g/dL</td></tr><tr><td>Erythrocyte distribution width [Ratio] by Automated count</td><td>14.4</td><td>11.6 - 16.5</td><td>%</td></tr><tr><td>Platelets [#/volume] in Blood by Automated count</td><td>407.5</td><td>157 - 415</td><td>10*3/uL</td></tr></tbody></table></div>"
                },
                "title": "Hematology"
              },
              {
                "code": {
                  "coding": [
                    {
                      "code": "$18719-5",
                      "system": "http://loinc.org",
                      "display": "Chemistry studies (set)"
                    }
                  ],
                  "text": "Chemistry"
                },
                "entry": [
                  {
                    "reference": "urn:uuid:cc54d816-255f-430e-8828-8d5a4df05f36"
                  },
                  {
                    "reference": "urn:uuid:064361b9-bf7c-41e6-b2d8-2f761a5d10f9"
                  },
                  {
                    "reference": "urn:uuid:443fc5d6-ab63-48d8-ad32-3c61fac389fe"
                  },
                  {
                    "reference": "urn:uuid:613eff4a-3aba-4b84-991e-992150635553"
                  },
                  {
                    "reference": "urn:uuid:7aa7be90-1c71-4bf6-86cd-432ed08d65ee"
                  },
                  {
                    "reference": "urn:uuid:e4edc6a6-74a2-4ea2-a6b2-120d5512cfdb"
                  },
                  {
                    "reference": "urn:uuid:e928dd5d-a198-48ed-a5eb-fe79b2c93c73"
                  },
                  {
                    "reference": "urn:uuid:84406f16-7d21-4f9a-8af2-b2d7c7058550"
                  },
                  {
                    "reference": "urn:uuid:e22cd25c-aea2-4a29-8a1f-df9a3d8d59b8"
                  },
                  {
                    "reference": "urn:uuid:6c3df600-8997-4df6-ab40-e922df7c3474"
                  },
                  {
                    "reference": "urn:uuid:07083f77-965d-49a8-a679-9d4d3e788656"
                  },
                  {
                    "reference": "urn:uuid:d243a192-54ca-4a47-a8d4-92945b1969ef"
                  },
                  {
                    "reference": "urn:uuid:fbb2e11b-cbf6-4586-b0e7-f27907d08f31"
                  },
                  {
                    "reference": "urn:uuid:8dc02887-dc95-4b5b-aa22-b93ed86a0c24"
                  },
                  {
                    "reference": "urn:uuid:7d18e7d7-3dc8-4b36-8635-47529e495d2d"
                  },
                  {
                    "reference": "urn:uuid:acc652af-2d82-4518-ab28-4f067d062df6"
                  },
                  {
                    "reference": "urn:uuid:995571d6-e040-4e62-861b-73d8c001b578"
                  },
                  {
                    "reference": "urn:uuid:c72b9ea1-83fa-48c3-b2f9-29d84fc46b9c"
                  },
                  {
                    "reference": "urn:uuid:a0b3fe09-c13b-4429-9ea5-7fb9c47eea0f"
                  },
                  {
                    "reference": "urn:uuid:11df8614-ac60-4818-8ef7-6510fa6e9f7e"
                  },
                  {
                    "reference": "urn:uuid:97e13f25-3d9c-4feb-9490-22d851d62b9b"
                  },
                  {
                    "reference": "urn:uuid:7a4752d4-c85a-43a0-a8f6-f8b86ffecfa0"
                  },
                  {
                    "reference": "urn:uuid:22ece369-0de3-47b9-8883-26be10fe4ea1"
                  },
                  {
                    "reference": "urn:uuid:7d8fcc59-921d-4244-af46-a7a429bcef8f"
                  },
                  {
                    "reference": "urn:uuid:1eea2916-3ea5-45ee-aa8a-70b21862df72"
                  }
                ],
                "text": {
                  "status": "generated",
                  "div": "<div xmlns=\"http://www.w3.org/1999/xhtml\"><h3>Chemistry</h3><table class=\"hl7__eu__lab__report\"><thead><tr><th>Test</th><th>24-MAY-2017</th><th>Reference&#xA0;Range</th><th>Unit</th></tr></thead><tbody><tr><td>Glucose [Mass/volume] in Serum or Plasma</td><td>71.5</td><td>70 - 99</td><td>mg/dL</td></tr><tr><td>Urea nitrogen [Mass/volume] in Serum or Plasma</td><td>7.8</td><td>7 - 20</td><td>mg/dL</td></tr><tr><td>Creatinine [Mass/volume] in Serum or Plasma</td><td><strong>2.8 H</strong></td><td>0.6 - 1.3</td><td>mg/dL</td></tr><tr><td>Calcium [Mass/volume] in Serum or Plasma</td><td>9.7</td><td>8.5 - 10.4</td><td>mg/dL</td></tr><tr><td>Sodium [Moles/volume] in Serum or Plasma</td><td>136.6</td><td>135 - 145</td><td>mmol/L</td></tr><tr><td>Potassium [Moles/volume] in Serum or Plasma</td><td>4.3</td><td>3.5 - 5.1</td><td>mmol/L</td></tr><tr><td>Chloride [Moles/volume] in Serum or Plasma</td><td>105.0</td><td>98 - 108</td><td>mmol/L</td></tr><tr><td>Carbon dioxide, total [Moles/volume] in Serum or Plasma</td><td>23.3</td><td>22 - 32</td><td>mmol/L</td></tr><tr><td>Protein [Mass/volume] in Serum or Plasma</td><td>7.2</td><td>6 - 8.3</td><td>g/dL</td></tr><tr><td>Albumin [Mass/volume] in Serum or Plasma</td><td>4.7</td><td>3.5 - 5</td><td>g/dL</td></tr><tr><td>Bilirubin.total [Mass/volume] in Serum or Plasma</td><td><strong>8.3 H</strong></td><td>0.3 - 1.2</td><td>mg/dL</td></tr><tr><td>Alkaline phosphatase [Enzymatic activity/volume] in Serum or Plasma</td><td>64.5</td><td>32 - 150</td><td>U/L</td></tr><tr><td>Alanine aminotransferase [Enzymatic activity/volume] in Serum or Plasma</td><td><strong>11.3 L</strong></td><td>13 - 32</td><td>U/L</td></tr><tr><td>Aspartate aminotransferase [Enzymatic activity/volume] in Serum or Plasma</td><td>21.7</td><td>10 - 40</td><td>U/L</td></tr><tr><td>Magnesium [Mass/volume] in Serum or Plasma</td><td>1.7</td><td>1.7 - 2.6</td><td>mg/dL</td></tr><tr><td>Phosphate [Mass/volume] in Serum or Plasma</td><td>4.5</td><td>2.5 - 4.5</td><td>mg/dL</td></tr><tr><td>pH of Arterial blood</td><td><strong>7.2 L</strong></td><td>7.35 - 7.45</td><td>[pH]</td></tr><tr><td>Carbon dioxide [Partial pressure] in Arterial blood</td><td><strong>35.0 L</strong></td><td>38 - 48</td><td>mm[Hg]</td></tr><tr><td>Oxygen [Partial pressure] in Arterial blood</td><td>94.6</td><td>75 - 100</td><td>mm[Hg]</td></tr><tr><td>Bicarbonate [Moles/volume] in Arterial blood</td><td>26.8</td><td>22 - 31</td><td>mmol/L</td></tr><tr><td>Oxygen saturation in Arterial blood</td><td><strong>94.0 L</strong></td><td>95 - 100</td><td>%</td></tr><tr><td>Cholesterol [Mass/volume] in Serum or Plasma</td><td><strong>299.5 H</strong></td><td>130 - 200</td><td>mg/dL</td></tr><tr><td>Triglyceride [Mass/volume] in Serum or Plasma</td><td>140.8</td><td>0 - 199</td><td>mg/dL</td></tr><tr><td>Cholesterol in LDL [Mass/volume] in Serum or Plasma by Direct assay</td><td><strong>210.5 H</strong></td><td>0 - 130</td><td>mg/dL</td></tr><tr><td>Cholesterol in HDL [Mass/volume] in Serum or Plasma</td><td>60.9</td><td>50 - 100</td><td>mg/dL</td></tr></tbody></table></div>"
                },
                "title": "Chemistry"
              },
              {
                "code": {
                  "coding": [
                    {
                      "code": "$18720-3",
                      "system": "http://loinc.org",
                      "display": "Coagulation studies (set)"
                    }
                  ],
                  "text": "Coagulation"
                },
                "entry": [
                  {
                    "reference": "urn:uuid:7742d353-46a1-46f7-99fa-9bf7a0041a52"
                  },
                  {
                    "reference": "urn:uuid:41328db8-b40f-4c06-b9b3-e3484fad8f6d"
                  },
                  {
                    "reference": "urn:uuid:9dbf433b-4667-413c-9912-742dacc030cd"
                  }
                ],
                "text": {
                  "status": "generated",
                  "div": "<div xmlns=\"http://www.w3.org/1999/xhtml\"><h3>Coagulation</h3><table class=\"hl7__eu__lab__report\"><thead><tr><th>Test</th><th>24-MAY-2017</th><th>Reference&#xA0;Range</th><th>Unit</th></tr></thead><tbody><tr><td>Prothrombin time (PT)</td><td><strong>10.2 L</strong></td><td>11 - 15</td><td>s</td></tr><tr><td>INR in Platelet poor plasma by Coagulation assay</td><td>0.9</td><td>0.9 - 1.1</td><td>{INR}</td></tr><tr><td>aPTT in Blood by Coagulation assay</td><td>28.5</td><td>25 - 35</td><td>s</td></tr></tbody></table></div>"
                },
                "title": "Coagulation"
              }
            ],
            "title": "Laboratory Report"
          },
          {
            "text": {
              "status": "generated",
              "div": "<div xmlns=\"http://www.w3.org/1999/xhtml\"><h3>Annotation</h3><table class=\"hl7__eu__lab__report\"><tr><th>Conclusion and Recommendations based on this report and previous findings known to us</th></tr><tr><td>The patient shows elevated creatinine, indicating impaired renal function, and markedly increased total and LDL cholesterol, raising cardiovascular risk. Total bilirubin is significantly elevated, suggesting possible liver dysfunction or hemolysis. Mild metabolic acidosis is present (low pH, low pCO₂, low O₂ saturation). MCHC is slightly high; ALT is mildly low but not clinically significant. Other parameters are within normal limits. Recommend further evaluation of renal and hepatic function and cardiovascular risk management.</td></tr></table></div>"
            },
            "code": {
              "coding": [
                {
                  "system": "http://loinc.org",
                  "code": "48767-8",
                  "display": "Annotation comment"
                }
              ]
            },
            "title": "Annotation comment"
          }
        ],
        "status": "final",
        "subject": {
          "reference": "urn:uuid:0f9297ff-15ed-4744-b7d5-7e9c2f476d36",
          "display": "Aniela Prażmo"
        },
        "date": "2017-05-24T08:47:50Z",
        "title": "Laboratory Report",
        "confidentiality": "N"
      }
    },
    {
      "fullUrl": "urn:uuid:12a99110-b368-4656-b0b4-af5b7d1cde81",
      "resource": {
        "resourceType": "DiagnosticReport",
        "id": "12a99110-b368-4656-b0b4-af5b7d1cde81",
        "meta": {
          "profile": [
            "http://hl7.eu/fhir/laboratory/StructureDefinition/DiagnosticReport-eu-lab"
          ]
        },
        "identifier": [
          {
            "assigner": {
              "display": "HL7 Europe"
            },
            "system": "urn:oid:2.16.840.1.113883.2.51.999",
            "value": "f4cadba4-228c-48db-bdcb-bda83bf9f9e7"
          }
        ],
        "extension": [
          {
            "url": "http://hl7.org/fhir/5.0/StructureDefinition/extension-DiagnosticReport.composition",
            "valueReference": {
              "reference": "urn:uuid:6bc93bc8-26a1-4feb-a3d8-a9333d280ea6"
            }
          }
        ],
        "category": [
          {
            "coding": [
              {
                "code": "26436-6",
                "system": "http://loinc.org",
                "display": "Laboratory studies (set)"
              }
            ]
          }
        ],
        "specimen": [
          {
            "reference": "urn:uuid:4de18b1c-f241-46ea-a3c8-97ead2d93cf4"
          },
          {
            "reference": "urn:uuid:4de18b1c-f241-46ea-a3c8-97ead2d93cf4"
          },
          {
            "reference": "urn:uuid:44cd5d1a-395a-4eed-862f-959490c2b317"
          },
          {
            "reference": "urn:uuid:e21471e6-2307-4494-ba6e-c7cb37ab1089"
          },
          {
            "reference": "urn:uuid:9d851ab3-ff4b-4ef9-98f8-376195158c1d"
          }
        ],
        "result": [
          {
            "reference": "urn:uuid:d6515a95-e4ee-49d5-9b6d-720e63dd84d2"
          },
          {
            "reference": "urn:uuid:c6837be6-199b-48e0-a00c-522d2181c392"
          },
          {
            "reference": "urn:uuid:a3ee372d-b3de-4a7f-82b0-e4b8b5d26658"
          },
          {
            "reference": "urn:uuid:f430b517-7fe8-4706-881d-6718b47ecc84"
          },
          {
            "reference": "urn:uuid:541fc906-5964-4a60-a1e8-e631dd13b4c3"
          },
          {
            "reference": "urn:uuid:ae99f779-704f-4cae-af6f-b85d9a657aa4"
          },
          {
            "reference": "urn:uuid:14ca86c8-978f-4273-8f78-a238baf872b0"
          },
          {
            "reference": "urn:uuid:d0dce7e4-d7c4-4e6e-b6da-f12b8e015a3c"
          },
          {
            "reference": "urn:uuid:bfbc517e-3e22-46e0-a381-79abb174b71e"
          },
          {
            "reference": "urn:uuid:cc54d816-255f-430e-8828-8d5a4df05f36"
          },
          {
            "reference": "urn:uuid:064361b9-bf7c-41e6-b2d8-2f761a5d10f9"
          },
          {
            "reference": "urn:uuid:443fc5d6-ab63-48d8-ad32-3c61fac389fe"
          },
          {
            "reference": "urn:uuid:613eff4a-3aba-4b84-991e-992150635553"
          },
          {
            "reference": "urn:uuid:7aa7be90-1c71-4bf6-86cd-432ed08d65ee"
          },
          {
            "reference": "urn:uuid:e4edc6a6-74a2-4ea2-a6b2-120d5512cfdb"
          },
          {
            "reference": "urn:uuid:e928dd5d-a198-48ed-a5eb-fe79b2c93c73"
          },
          {
            "reference": "urn:uuid:84406f16-7d21-4f9a-8af2-b2d7c7058550"
          },
          {
            "reference": "urn:uuid:e22cd25c-aea2-4a29-8a1f-df9a3d8d59b8"
          },
          {
            "reference": "urn:uuid:6c3df600-8997-4df6-ab40-e922df7c3474"
          },
          {
            "reference": "urn:uuid:07083f77-965d-49a8-a679-9d4d3e788656"
          },
          {
            "reference": "urn:uuid:d243a192-54ca-4a47-a8d4-92945b1969ef"
          },
          {
            "reference": "urn:uuid:fbb2e11b-cbf6-4586-b0e7-f27907d08f31"
          },
          {
            "reference": "urn:uuid:8dc02887-dc95-4b5b-aa22-b93ed86a0c24"
          },
          {
            "reference": "urn:uuid:7d18e7d7-3dc8-4b36-8635-47529e495d2d"
          },
          {
            "reference": "urn:uuid:acc652af-2d82-4518-ab28-4f067d062df6"
          },
          {
            "reference": "urn:uuid:7742d353-46a1-46f7-99fa-9bf7a0041a52"
          },
          {
            "reference": "urn:uuid:41328db8-b40f-4c06-b9b3-e3484fad8f6d"
          },
          {
            "reference": "urn:uuid:9dbf433b-4667-413c-9912-742dacc030cd"
          },
          {
            "reference": "urn:uuid:995571d6-e040-4e62-861b-73d8c001b578"
          },
          {
            "reference": "urn:uuid:c72b9ea1-83fa-48c3-b2f9-29d84fc46b9c"
          },
          {
            "reference": "urn:uuid:a0b3fe09-c13b-4429-9ea5-7fb9c47eea0f"
          },
          {
            "reference": "urn:uuid:11df8614-ac60-4818-8ef7-6510fa6e9f7e"
          },
          {
            "reference": "urn:uuid:97e13f25-3d9c-4feb-9490-22d851d62b9b"
          },
          {
            "reference": "urn:uuid:7a4752d4-c85a-43a0-a8f6-f8b86ffecfa0"
          },
          {
            "reference": "urn:uuid:22ece369-0de3-47b9-8883-26be10fe4ea1"
          },
          {
            "reference": "urn:uuid:7d8fcc59-921d-4244-af46-a7a429bcef8f"
          },
          {
            "reference": "urn:uuid:1eea2916-3ea5-45ee-aa8a-70b21862df72"
          }
        ],
        "status": "registered",
        "code": {
          "coding": [
            {
              "code": "11502-2",
              "system": "http://loinc.org",
              "display": "Laboratory report"
            }
          ]
        },
        "subject": {
          "reference": "urn:uuid:0f9297ff-15ed-4744-b7d5-7e9c2f476d36",
          "display": "Aniela Prażmo"
        }
      }
    },
    {
      "fullUrl": "urn:uuid:0f9297ff-15ed-4744-b7d5-7e9c2f476d36",
      "resource": {
        "resourceType": "Patient",
        "id": "0f9297ff-15ed-4744-b7d5-7e9c2f476d36",
        "meta": {
          "security": [
            {
              "system": "http://terminology.hl7.org/CodeSystem/v3-ActReason",
              "code": "HTEST"
            },
            {
              "system": "http://terminology.hl7.org/CodeSystem/v3-ActReason",
              "code": "TRAIN"
            }
          ],
          "tag": [
            {
              "system": "https://synderai.net/fhir/CodeSystem/tags",
              "code": "synthetic",
              "display": "SYNDERAI Synthetic data"
            }
          ],
          "profile": [
            "http://hl7.eu/fhir/base/StructureDefinition/patient-eu-core"
          ]
        },
        "identifier": [
          {
            "type": {
              "coding": [
                {
                  "code": "PT",
                  "system": "http://terminology.hl7.org/CodeSystem/v2-0203"
                }
              ]
            },
            "system": "http://ec.europa.eu/identifier/eci",
            "value": "9657-869171-7"
          },
          {
            "type": {
              "coding": [
                {
                  "code": "MR",
                  "system": "http://terminology.hl7.org/CodeSystem/v2-0203"
                }
              ]
            },
            "system": "http://local.setting.eu/identifier",
            "value": "ab00158c-e2d0-01e4-6cf5-730949937551"
          }
        ],
        "name": [
          {
            "family": "Prażmo"
          },
          {
            "given": [
              "Aniela"
            ]
          },
          {
            "text": "Aniela Prażmo"
          }
        ],
        "address": [
          {
            "line": [
              "pl. Kołłątaja 62/43"
            ],
            "use": "home",
            "type": "physical",
            "postalCode": "97-200",
            "city": "Tomaszów Mazowiecki",
            "country": "Poland"
          }
        ],
        "telecom": [
          {
            "system": "phone",
            "value": "+48 782 809 233"
          }
        ],
        "extension": [
          {
            "url": "http://hl7.org/fhir/StructureDefinition/patient-nationality",
            "valueCodeableConcept": {
              "coding": [
                {
                  "code": "PL",
                  "system": "http://hl7.org/fhir/ValueSet/country"
                }
              ]
            }
          }
        ],
        "text": {
          "status": "generated",
          "div": "<div xmlns=\"http://www.w3.org/1999/xhtml\"><table class=\"hl7__ips\"><tr><td>Aniela Prażmo</td><td>female</td><td>08-Feb-1941</td></tr></table></div>"
        },
        "gender": "female",
        "birthDate": "1941-02-08"
      }
    },
    {
      "fullUrl": "urn:uuid:acc16e2c-dacb-4fc1-8ac9-a83759946706",
      "resource": {
        "resourceType": "ServiceRequest",
        "id": "acc16e2c-dacb-4fc1-8ac9-a83759946706",
        "meta": {
          "profile": [
            "http://hl7.eu/fhir/laboratory/StructureDefinition/ServiceRequest-eu-lab"
          ]
        },
        "identifier": [
          {
            "system": "http://example.org",
            "value": "36613255-35a3-4dca-be6c-2afd97fadfdd"
          }
        ],
        "specimen": [
          {
            "reference": "urn:uuid:4de18b1c-f241-46ea-a3c8-97ead2d93cf4"
          },
          {
            "reference": "urn:uuid:44cd5d1a-395a-4eed-862f-959490c2b317"
          },
          {
            "reference": "urn:uuid:e21471e6-2307-4494-ba6e-c7cb37ab1089"
          },
          {
            "reference": "urn:uuid:9d851ab3-ff4b-4ef9-98f8-376195158c1d"
          }
        ],
        "reasonCode": [
          {
            "coding": [
              {
                "code": "64859006",
                "system": "http://snomed.info/sct",
                "display": "Osteoporosis"
              }
            ]
          },
          {
            "coding": [
              {
                "code": "55822004",
                "system": "http://snomed.info/sct",
                "display": "Hyperlipidemia"
              }
            ]
          },
          {
            "coding": [
              {
                "code": "414545008",
                "system": "http://snomed.info/sct",
                "display": "Ischemic heart disease"
              }
            ]
          },
          {
            "coding": [
              {
                "code": "59621000",
                "system": "http://snomed.info/sct",
                "display": "Essential hypertension"
              }
            ]
          },
          {
            "coding": [
              {
                "code": "40055000",
                "system": "http://snomed.info/sct",
                "display": "Chronic sinusitis"
              }
            ]
          }
        ],
        "status": "active",
        "intent": "order",
        "code": {
          "coding": [
            {
              "code": "108252007",
              "system": "http://snomed.info/sct",
              "display": "Laboratory procedure"
            }
          ]
        },
        "subject": {
          "reference": "urn:uuid:0f9297ff-15ed-4744-b7d5-7e9c2f476d36",
          "display": "Aniela Prażmo"
        },
        "requester": {
          "reference": "urn:uuid:8901ff13-eb1a-48bb-8365-913dd727e4b6"
        }
      }
    },
    {
      "fullUrl": "urn:uuid:8901ff13-eb1a-48bb-8365-913dd727e4b6",
      "resource": {
        "resourceType": "PractitionerRole",
        "id": "8901ff13-eb1a-48bb-8365-913dd727e4b6",
        "meta": {
          "profile": [
            "http://hl7.eu/fhir/base/StructureDefinition/practitionerRole-eu"
          ]
        },
        "text": {
          "status": "generated",
          "div": "<div xmlns=\"http://www.w3.org/1999/xhtml\">Provider Role Id: 8901ff13-eb1a-48bb-8365-913dd727e4b6</div>"
        },
        "organization": {
          "reference": "urn:uuid:a24a320e-4ec7-435d-a731-6f716705efc0"
        }
      }
    },
    {
      "fullUrl": "urn:uuid:a24a320e-4ec7-435d-a731-6f716705efc0",
      "resource": {
        "resourceType": "Organization",
        "id": "a24a320e-4ec7-435d-a731-6f716705efc0",
        "meta": {
          "profile": [
            "http://hl7.eu/fhir/base/StructureDefinition/organization-eu"
          ]
        },
        "identifier": [
          {
            "assigner": {
              "display": "HL7 Europe"
            },
            "system": "urn:oid:2.16.840.1.113883.2.51.999",
            "value": "b2716c09-4872-4daf-a6e5-a9e3fdba904b"
          }
        ],
        "address": [
          {
            "city": "Tomaszów Mazowiecki",
            "postalCode": "97-200",
            "country": "Poland"
          }
        ],
        "text": {
          "status": "generated",
          "div": "<div xmlns=\"http://www.w3.org/1999/xhtml\">Provider Organization: Poradnia rehabilitacyjna</div>"
        },
        "name": "Poradnia rehabilitacyjna"
      }
    },
    {
      "fullUrl": "urn:uuid:4de18b1c-f241-46ea-a3c8-97ead2d93cf4",
      "resource": {
        "resourceType": "Specimen",
        "id": "4de18b1c-f241-46ea-a3c8-97ead2d93cf4",
        "meta": {
          "profile": [
            "http://hl7.eu/fhir/laboratory/StructureDefinition/Specimen-eu-lab"
          ]
        },
        "collection": {
          "collectedDateTime": "2017-05-24"
        },
        "text": {
          "status": "generated",
          "div": "<div xmlns=\"http://www.w3.org/1999/xhtml\"><table class=\"hl7__eu__lab__report\"><tr><th>Specimen</th><th>Collection Date</th></tr><tr><td>Whole blood specimen (specimen)</td><td><span class=\"nb\">24-May-2017</span></td></tr></table></div>"
        },
        "type": {
          "coding": [
            {
              "code": "258580003",
              "system": "http://snomed.info/sct",
              "display": "Whole blood specimen (specimen)"
            }
          ]
        }
      }
    },
    {
      "fullUrl": "urn:uuid:4de18b1c-f241-46ea-a3c8-97ead2d93cf4",
      "resource": {
        "resourceType": "Specimen",
        "id": "4de18b1c-f241-46ea-a3c8-97ead2d93cf4",
        "meta": {
          "profile": [
            "http://hl7.eu/fhir/laboratory/StructureDefinition/Specimen-eu-lab"
          ]
        },
        "collection": {
          "collectedDateTime": "2017-05-24"
        },
        "text": {
          "status": "generated",
          "div": "<div xmlns=\"http://www.w3.org/1999/xhtml\"><table class=\"hl7__eu__lab__report\"><tr><th>Specimen</th><th>Collection Date</th></tr><tr><td>Whole blood specimen (specimen)</td><td><span class=\"nb\">24-May-2017</span></td></tr></table></div>"
        },
        "type": {
          "coding": [
            {
              "code": "258580003",
              "system": "http://snomed.info/sct",
              "display": "Whole blood specimen (specimen)"
            }
          ]
        }
      }
    },
    {
      "fullUrl": "urn:uuid:44cd5d1a-395a-4eed-862f-959490c2b317",
      "resource": {
        "resourceType": "Specimen",
        "id": "44cd5d1a-395a-4eed-862f-959490c2b317",
        "meta": {
          "profile": [
            "http://hl7.eu/fhir/laboratory/StructureDefinition/Specimen-eu-lab"
          ]
        },
        "collection": {
          "collectedDateTime": "2017-05-24"
        },
        "text": {
          "status": "generated",
          "div": "<div xmlns=\"http://www.w3.org/1999/xhtml\"><table class=\"hl7__eu__lab__report\"><tr><th>Specimen</th><th>Collection Date</th></tr><tr><td>Acellular blood (serum or plasma) specimen</td><td><span class=\"nb\">24-May-2017</span></td></tr></table></div>"
        },
        "type": {
          "coding": [
            {
              "code": "122592007",
              "system": "http://snomed.info/sct",
              "display": "Acellular blood (serum or plasma) specimen"
            }
          ]
        }
      }
    },
    {
      "fullUrl": "urn:uuid:e21471e6-2307-4494-ba6e-c7cb37ab1089",
      "resource": {
        "resourceType": "Specimen",
        "id": "e21471e6-2307-4494-ba6e-c7cb37ab1089",
        "meta": {
          "profile": [
            "http://hl7.eu/fhir/laboratory/StructureDefinition/Specimen-eu-lab"
          ]
        },
        "collection": {
          "collectedDateTime": "2017-05-24"
        },
        "text": {
          "status": "generated",
          "div": "<div xmlns=\"http://www.w3.org/1999/xhtml\"><table class=\"hl7__eu__lab__report\"><tr><th>Specimen</th><th>Collection Date</th></tr><tr><td>Platelet poor plasma specimen</td><td><span class=\"nb\">24-May-2017</span></td></tr></table></div>"
        },
        "type": {
          "coding": [
            {
              "code": "119362004",
              "system": "http://snomed.info/sct",
              "display": "Platelet poor plasma specimen"
            }
          ]
        }
      }
    },
    {
      "fullUrl": "urn:uuid:9d851ab3-ff4b-4ef9-98f8-376195158c1d",
      "resource": {
        "resourceType": "Specimen",
        "id": "9d851ab3-ff4b-4ef9-98f8-376195158c1d",
        "meta": {
          "profile": [
            "http://hl7.eu/fhir/laboratory/StructureDefinition/Specimen-eu-lab"
          ]
        },
        "collection": {
          "collectedDateTime": "2017-05-24"
        },
        "text": {
          "status": "generated",
          "div": "<div xmlns=\"http://www.w3.org/1999/xhtml\"><table class=\"hl7__eu__lab__report\"><tr><th>Specimen</th><th>Collection Date</th></tr><tr><td>Arterial blood specimen</td><td><span class=\"nb\">24-May-2017</span></td></tr></table></div>"
        },
        "type": {
          "coding": [
            {
              "code": "122552005",
              "system": "http://snomed.info/sct",
              "display": "Arterial blood specimen"
            }
          ]
        }
      }
    },
    {
      "fullUrl": "urn:uuid:d6515a95-e4ee-49d5-9b6d-720e63dd84d2",
      "resource": {
        "resourceType": "Observation",
        "id": "d6515a95-e4ee-49d5-9b6d-720e63dd84d2",
        "meta": {
          "profile": [
            "http://hl7.eu/fhir/laboratory/StructureDefinition/Observation-resultslab-eu-lab"
          ]
        },
        "performer": [
          {
            "display": "The Central European Lab"
          }
        ],
        "category": [
          {
            "coding": [
              {
                "system": "http://terminology.hl7.org/CodeSystem/observation-category",
                "code": "laboratory"
              }
            ]
          }
        ],
        "code": {
          "coding": [
            {
              "code": "6690-2",
              "system": "http://loinc.org",
              "display": "Leukocytes [#/volume] in Blood by Automated count"
            }
          ],
          "text": "Leukocytes [#/volume] in Blood by Automated count"
        },
        "valueQuantity": {
          "system": "http://unitsofmeasure.org",
          "value": 4.6,
          "unit": "10*3/uL",
          "code": "10*3/uL"
        },
        "referenceRange": [
          {
            "low": {
              "value": 4,
              "code": "10*3/uL",
              "system": "http://unitsofmeasure.org"
            }
          },
          {
            "high": {
              "value": 11,
              "code": "10*3/uL",
              "system": "http://unitsofmeasure.org"
            }
          }
        ],
        "text": {
          "status": "generated",
          "div": "<div xmlns=\"http://www.w3.org/1999/xhtml\"><table class=\"hl7__eu__lab__report\"><tr><th>Test</th><th>24-May-2017</th><th>Reference&#xA0;Range</th><th>Unit</th></tr><tr><td>Leukocytes [#/volume] in Blood by Automated count</td><td>4.6</td><td>4 - 11</td><td></td><td>10*3/uL</td></tr></table></div>"
        },
        "status": "final",
        "subject": {
          "reference": "urn:uuid:0f9297ff-15ed-4744-b7d5-7e9c2f476d36",
          "display": "Aniela Prażmo"
        },
        "effectiveDateTime": "2017-05-24T06:47:50Z",
        "specimen": {
          "reference": "urn:uuid:4de18b1c-f241-46ea-a3c8-97ead2d93cf4"
        }
      }
    },
    {
      "fullUrl": "urn:uuid:c6837be6-199b-48e0-a00c-522d2181c392",
      "resource": {
        "resourceType": "Observation",
        "id": "c6837be6-199b-48e0-a00c-522d2181c392",
        "meta": {
          "profile": [
            "http://hl7.eu/fhir/laboratory/StructureDefinition/Observation-resultslab-eu-lab"
          ]
        },
        "performer": [
          {
            "display": "The Central European Lab"
          }
        ],
        "category": [
          {
            "coding": [
              {
                "system": "http://terminology.hl7.org/CodeSystem/observation-category",
                "code": "laboratory"
              }
            ]
          }
        ],
        "code": {
          "coding": [
            {
              "code": "789-8",
              "system": "http://loinc.org",
              "display": "Erythrocytes [#/volume] in Blood by Automated count"
            }
          ],
          "text": "Erythrocytes [#/volume] in Blood by Automated count"
        },
        "valueQuantity": {
          "system": "http://unitsofmeasure.org",
          "value": 5.6,
          "unit": "10*6/uL",
          "code": "10*6/uL"
        },
        "referenceRange": [
          {
            "low": {
              "value": 3.8,
              "code": "10*6/uL",
              "system": "http://unitsofmeasure.org"
            }
          },
          {
            "high": {
              "value": 5.7,
              "code": "10*6/uL",
              "system": "http://unitsofmeasure.org"
            }
          }
        ],
        "text": {
          "status": "generated",
          "div": "<div xmlns=\"http://www.w3.org/1999/xhtml\"><table class=\"hl7__eu__lab__report\"><tr><th>Test</th><th>24-May-2017</th><th>Reference&#xA0;Range</th><th>Unit</th></tr><tr><td>Erythrocytes [#/volume] in Blood by Automated count</td><td>5.6</td><td>3.8 - 5.7</td><td></td><td>10*6/uL</td></tr></table></div>"
        },
        "status": "final",
        "subject": {
          "reference": "urn:uuid:0f9297ff-15ed-4744-b7d5-7e9c2f476d36",
          "display": "Aniela Prażmo"
        },
        "effectiveDateTime": "2017-05-24T06:47:50Z",
        "specimen": {
          "reference": "urn:uuid:4de18b1c-f241-46ea-a3c8-97ead2d93cf4"
        }
      }
    },
    {
      "fullUrl": "urn:uuid:a3ee372d-b3de-4a7f-82b0-e4b8b5d26658",
      "resource": {
        "resourceType": "Observation",
        "id": "a3ee372d-b3de-4a7f-82b0-e4b8b5d26658",
        "meta": {
          "profile": [
            "http://hl7.eu/fhir/laboratory/StructureDefinition/Observation-resultslab-eu-lab"
          ]
        },
        "performer": [
          {
            "display": "The Central European Lab"
          }
        ],
        "category": [
          {
            "coding": [
              {
                "system": "http://terminology.hl7.org/CodeSystem/observation-category",
                "code": "laboratory"
              }
            ]
          }
        ],
        "code": {
          "coding": [
            {
              "code": "718-7",
              "system": "http://loinc.org",
              "display": "Hemoglobin [Mass/volume] in Blood"
            }
          ],
          "text": "Hemoglobin [Mass/volume] in Blood"
        },
        "valueQuantity": {
          "system": "http://unitsofmeasure.org",
          "value": 14.2,
          "unit": "g/dL",
          "code": "g/dL"
        },
        "referenceRange": [
          {
            "low": {
              "value": 12,
              "code": "g/dL",
              "system": "http://unitsofmeasure.org"
            }
          },
          {
            "high": {
              "value": 16,
              "code": "g/dL",
              "system": "http://unitsofmeasure.org"
            }
          }
        ],
        "text": {
          "status": "generated",
          "div": "<div xmlns=\"http://www.w3.org/1999/xhtml\"><table class=\"hl7__eu__lab__report\"><tr><th>Test</th><th>24-May-2017</th><th>Reference&#xA0;Range</th><th>Unit</th></tr><tr><td>Hemoglobin [Mass/volume] in Blood</td><td>14.2</td><td>12 - 16</td><td></td><td>g/dL</td></tr></table></div>"
        },
        "status": "final",
        "subject": {
          "reference": "urn:uuid:0f9297ff-15ed-4744-b7d5-7e9c2f476d36",
          "display": "Aniela Prażmo"
        },
        "effectiveDateTime": "2017-05-24T06:47:50Z",
        "specimen": {
          "reference": "urn:uuid:4de18b1c-f241-46ea-a3c8-97ead2d93cf4"
        }
      }
    },
    {
      "fullUrl": "urn:uuid:f430b517-7fe8-4706-881d-6718b47ecc84",
      "resource": {
        "resourceType": "Observation",
        "id": "f430b517-7fe8-4706-881d-6718b47ecc84",
        "meta": {
          "profile": [
            "http://hl7.eu/fhir/laboratory/StructureDefinition/Observation-resultslab-eu-lab"
          ]
        },
        "performer": [
          {
            "display": "The Central European Lab"
          }
        ],
        "category": [
          {
            "coding": [
              {
                "system": "http://terminology.hl7.org/CodeSystem/observation-category",
                "code": "laboratory"
              }
            ]
          }
        ],
        "code": {
          "coding": [
            {
              "code": "4544-3",
              "system": "http://loinc.org",
              "display": "Hematocrit [Volume Fraction] of Blood by Automated count"
            }
          ],
          "text": "Hematocrit [Volume Fraction] of Blood by Automated count"
        },
        "valueQuantity": {
          "system": "http://unitsofmeasure.org",
          "value": 50,
          "unit": "%",
          "code": "%"
        },
        "referenceRange": [
          {
            "low": {
              "value": 38,
              "code": "%",
              "system": "http://unitsofmeasure.org"
            }
          },
          {
            "high": {
              "value": 56,
              "code": "%",
              "system": "http://unitsofmeasure.org"
            }
          }
        ],
        "text": {
          "status": "generated",
          "div": "<div xmlns=\"http://www.w3.org/1999/xhtml\"><table class=\"hl7__eu__lab__report\"><tr><th>Test</th><th>24-May-2017</th><th>Reference&#xA0;Range</th><th>Unit</th></tr><tr><td>Hematocrit [Volume Fraction] of Blood by Automated count</td><td>50.0</td><td>38 - 56</td><td></td><td>%</td></tr></table></div>"
        },
        "status": "final",
        "subject": {
          "reference": "urn:uuid:0f9297ff-15ed-4744-b7d5-7e9c2f476d36",
          "display": "Aniela Prażmo"
        },
        "effectiveDateTime": "2017-05-24T06:47:50Z",
        "specimen": {
          "reference": "urn:uuid:4de18b1c-f241-46ea-a3c8-97ead2d93cf4"
        }
      }
    },
    {
      "fullUrl": "urn:uuid:541fc906-5964-4a60-a1e8-e631dd13b4c3",
      "resource": {
        "resourceType": "Observation",
        "id": "541fc906-5964-4a60-a1e8-e631dd13b4c3",
        "meta": {
          "profile": [
            "http://hl7.eu/fhir/laboratory/StructureDefinition/Observation-resultslab-eu-lab"
          ]
        },
        "performer": [
          {
            "display": "The Central European Lab"
          }
        ],
        "category": [
          {
            "coding": [
              {
                "system": "http://terminology.hl7.org/CodeSystem/observation-category",
                "code": "laboratory"
              }
            ]
          }
        ],
        "code": {
          "coding": [
            {
              "code": "787-2",
              "system": "http://loinc.org",
              "display": "MCV [Entitic volume] by Automated count"
            }
          ],
          "text": "MCV [Entitic volume] by Automated count"
        },
        "valueQuantity": {
          "system": "http://unitsofmeasure.org",
          "value": 91.9,
          "unit": "fL",
          "code": "fL"
        },
        "referenceRange": [
          {
            "low": {
              "value": 78,
              "code": "fL",
              "system": "http://unitsofmeasure.org"
            }
          },
          {
            "high": {
              "value": 98,
              "code": "fL",
              "system": "http://unitsofmeasure.org"
            }
          }
        ],
        "text": {
          "status": "generated",
          "div": "<div xmlns=\"http://www.w3.org/1999/xhtml\"><table class=\"hl7__eu__lab__report\"><tr><th>Test</th><th>24-May-2017</th><th>Reference&#xA0;Range</th><th>Unit</th></tr><tr><td>MCV [Entitic volume] by Automated count</td><td>91.9</td><td>78 - 98</td><td></td><td>fL</td></tr></table></div>"
        },
        "status": "final",
        "subject": {
          "reference": "urn:uuid:0f9297ff-15ed-4744-b7d5-7e9c2f476d36",
          "display": "Aniela Prażmo"
        },
        "effectiveDateTime": "2017-05-24T06:47:50Z",
        "specimen": {
          "reference": "urn:uuid:4de18b1c-f241-46ea-a3c8-97ead2d93cf4"
        }
      }
    },
    {
      "fullUrl": "urn:uuid:ae99f779-704f-4cae-af6f-b85d9a657aa4",
      "resource": {
        "resourceType": "Observation",
        "id": "ae99f779-704f-4cae-af6f-b85d9a657aa4",
        "meta": {
          "profile": [
            "http://hl7.eu/fhir/laboratory/StructureDefinition/Observation-resultslab-eu-lab"
          ]
        },
        "performer": [
          {
            "display": "The Central European Lab"
          }
        ],
        "category": [
          {
            "coding": [
              {
                "system": "http://terminology.hl7.org/CodeSystem/observation-category",
                "code": "laboratory"
              }
            ]
          }
        ],
        "code": {
          "coding": [
            {
              "code": "785-6",
              "system": "http://loinc.org",
              "display": "MCH [Entitic mass] by Automated count"
            }
          ],
          "text": "MCH [Entitic mass] by Automated count"
        },
        "valueQuantity": {
          "system": "http://unitsofmeasure.org",
          "value": 30.8,
          "unit": "pg",
          "code": "pg"
        },
        "referenceRange": [
          {
            "low": {
              "value": 27,
              "code": "pg",
              "system": "http://unitsofmeasure.org"
            }
          },
          {
            "high": {
              "value": 34,
              "code": "pg",
              "system": "http://unitsofmeasure.org"
            }
          }
        ],
        "text": {
          "status": "generated",
          "div": "<div xmlns=\"http://www.w3.org/1999/xhtml\"><table class=\"hl7__eu__lab__report\"><tr><th>Test</th><th>24-May-2017</th><th>Reference&#xA0;Range</th><th>Unit</th></tr><tr><td>MCH [Entitic mass] by Automated count</td><td>30.8</td><td>27 - 34</td><td></td><td>pg</td></tr></table></div>"
        },
        "status": "final",
        "subject": {
          "reference": "urn:uuid:0f9297ff-15ed-4744-b7d5-7e9c2f476d36",
          "display": "Aniela Prażmo"
        },
        "effectiveDateTime": "2017-05-24T06:47:50Z",
        "specimen": {
          "reference": "urn:uuid:4de18b1c-f241-46ea-a3c8-97ead2d93cf4"
        }
      }
    },
    {
      "fullUrl": "urn:uuid:14ca86c8-978f-4273-8f78-a238baf872b0",
      "resource": {
        "resourceType": "Observation",
        "id": "14ca86c8-978f-4273-8f78-a238baf872b0",
        "meta": {
          "profile": [
            "http://hl7.eu/fhir/laboratory/StructureDefinition/Observation-resultslab-eu-lab"
          ]
        },
        "performer": [
          {
            "display": "The Central European Lab"
          }
        ],
        "category": [
          {
            "coding": [
              {
                "system": "http://terminology.hl7.org/CodeSystem/observation-category",
                "code": "laboratory"
              }
            ]
          }
        ],
        "code": {
          "coding": [
            {
              "code": "786-4",
              "system": "http://loinc.org",
              "display": "MCHC [Mass/volume] by Automated count"
            }
          ],
          "text": "MCHC [Mass/volume] by Automated count"
        },
        "valueQuantity": {
          "system": "http://unitsofmeasure.org",
          "value": 35.3,
          "unit": "g/dL",
          "code": "g/dL"
        },
        "referenceRange": [
          {
            "low": {
              "value": 32,
              "code": "g/dL",
              "system": "http://unitsofmeasure.org"
            }
          },
          {
            "high": {
              "value": 35,
              "code": "g/dL",
              "system": "http://unitsofmeasure.org"
            }
          }
        ],
        "interpretation": [
          {
            "coding": [
              {
                "code": "H",
                "system": "http://terminology.hl7.org/CodeSystem/v3-ObservationInterpretation",
                "display": "High"
              }
            ]
          }
        ],
        "text": {
          "status": "generated",
          "div": "<div xmlns=\"http://www.w3.org/1999/xhtml\"><table class=\"hl7__eu__lab__report\"><tr><th>Test</th><th>24-May-2017</th><th>Reference&#xA0;Range</th><th>Unit</th></tr><tr><td>MCHC [Mass/volume] by Automated count</td><td>35.3</td><td>32 - 35</td><td>H</td><td>g/dL</td></tr></table></div>"
        },
        "status": "final",
        "subject": {
          "reference": "urn:uuid:0f9297ff-15ed-4744-b7d5-7e9c2f476d36",
          "display": "Aniela Prażmo"
        },
        "effectiveDateTime": "2017-05-24T06:47:50Z",
        "specimen": {
          "reference": "urn:uuid:4de18b1c-f241-46ea-a3c8-97ead2d93cf4"
        }
      }
    },
    {
      "fullUrl": "urn:uuid:d0dce7e4-d7c4-4e6e-b6da-f12b8e015a3c",
      "resource": {
        "resourceType": "Observation",
        "id": "d0dce7e4-d7c4-4e6e-b6da-f12b8e015a3c",
        "meta": {
          "profile": [
            "http://hl7.eu/fhir/laboratory/StructureDefinition/Observation-resultslab-eu-lab"
          ]
        },
        "performer": [
          {
            "display": "The Central European Lab"
          }
        ],
        "category": [
          {
            "coding": [
              {
                "system": "http://terminology.hl7.org/CodeSystem/observation-category",
                "code": "laboratory"
              }
            ]
          }
        ],
        "code": {
          "coding": [
            {
              "code": "788-0",
              "system": "http://loinc.org",
              "display": "Erythrocyte distribution width [Ratio] by Automated count"
            }
          ],
          "text": "Erythrocyte distribution width [Ratio] by Automated count"
        },
        "valueQuantity": {
          "system": "http://unitsofmeasure.org",
          "value": 14.4,
          "unit": "%",
          "code": "%"
        },
        "referenceRange": [
          {
            "low": {
              "value": 11.6,
              "code": "%",
              "system": "http://unitsofmeasure.org"
            }
          },
          {
            "high": {
              "value": 16.5,
              "code": "%",
              "system": "http://unitsofmeasure.org"
            }
          }
        ],
        "text": {
          "status": "generated",
          "div": "<div xmlns=\"http://www.w3.org/1999/xhtml\"><table class=\"hl7__eu__lab__report\"><tr><th>Test</th><th>24-May-2017</th><th>Reference&#xA0;Range</th><th>Unit</th></tr><tr><td>Erythrocyte distribution width [Ratio] by Automated count</td><td>14.4</td><td>11.6 - 16.5</td><td></td><td>%</td></tr></table></div>"
        },
        "status": "final",
        "subject": {
          "reference": "urn:uuid:0f9297ff-15ed-4744-b7d5-7e9c2f476d36",
          "display": "Aniela Prażmo"
        },
        "effectiveDateTime": "2017-05-24T06:47:50Z",
        "specimen": {
          "reference": "urn:uuid:4de18b1c-f241-46ea-a3c8-97ead2d93cf4"
        }
      }
    },
    {
      "fullUrl": "urn:uuid:bfbc517e-3e22-46e0-a381-79abb174b71e",
      "resource": {
        "resourceType": "Observation",
        "id": "bfbc517e-3e22-46e0-a381-79abb174b71e",
        "meta": {
          "profile": [
            "http://hl7.eu/fhir/laboratory/StructureDefinition/Observation-resultslab-eu-lab"
          ]
        },
        "performer": [
          {
            "display": "The Central European Lab"
          }
        ],
        "category": [
          {
            "coding": [
              {
                "system": "http://terminology.hl7.org/CodeSystem/observation-category",
                "code": "laboratory"
              }
            ]
          }
        ],
        "code": {
          "coding": [
            {
              "code": "777-3",
              "system": "http://loinc.org",
              "display": "Platelets [#/volume] in Blood by Automated count"
            }
          ],
          "text": "Platelets [#/volume] in Blood by Automated count"
        },
        "valueQuantity": {
          "system": "http://unitsofmeasure.org",
          "value": 407.5,
          "unit": "10*3/uL",
          "code": "10*3/uL"
        },
        "referenceRange": [
          {
            "low": {
              "value": 157,
              "code": "10*3/uL",
              "system": "http://unitsofmeasure.org"
            }
          },
          {
            "high": {
              "value": 415,
              "code": "10*3/uL",
              "system": "http://unitsofmeasure.org"
            }
          }
        ],
        "text": {
          "status": "generated",
          "div": "<div xmlns=\"http://www.w3.org/1999/xhtml\"><table class=\"hl7__eu__lab__report\"><tr><th>Test</th><th>24-May-2017</th><th>Reference&#xA0;Range</th><th>Unit</th></tr><tr><td>Platelets [#/volume] in Blood by Automated count</td><td>407.5</td><td>157 - 415</td><td></td><td>10*3/uL</td></tr></table></div>"
        },
        "status": "final",
        "subject": {
          "reference": "urn:uuid:0f9297ff-15ed-4744-b7d5-7e9c2f476d36",
          "display": "Aniela Prażmo"
        },
        "effectiveDateTime": "2017-05-24T06:47:50Z",
        "specimen": {
          "reference": "urn:uuid:4de18b1c-f241-46ea-a3c8-97ead2d93cf4"
        }
      }
    },
    {
      "fullUrl": "urn:uuid:cc54d816-255f-430e-8828-8d5a4df05f36",
      "resource": {
        "resourceType": "Observation",
        "id": "cc54d816-255f-430e-8828-8d5a4df05f36",
        "meta": {
          "profile": [
            "http://hl7.eu/fhir/laboratory/StructureDefinition/Observation-resultslab-eu-lab"
          ]
        },
        "performer": [
          {
            "display": "The Central European Lab"
          }
        ],
        "category": [
          {
            "coding": [
              {
                "system": "http://terminology.hl7.org/CodeSystem/observation-category",
                "code": "laboratory"
              }
            ]
          }
        ],
        "code": {
          "coding": [
            {
              "code": "2345-7",
              "system": "http://loinc.org",
              "display": "Glucose [Mass/volume] in Serum or Plasma"
            }
          ],
          "text": "Glucose [Mass/volume] in Serum or Plasma"
        },
        "valueQuantity": {
          "system": "http://unitsofmeasure.org",
          "value": 71.5,
          "unit": "mg/dL",
          "code": "mg/dL"
        },
        "referenceRange": [
          {
            "low": {
              "value": 70,
              "code": "mg/dL",
              "system": "http://unitsofmeasure.org"
            }
          },
          {
            "high": {
              "value": 99,
              "code": "mg/dL",
              "system": "http://unitsofmeasure.org"
            }
          }
        ],
        "text": {
          "status": "generated",
          "div": "<div xmlns=\"http://www.w3.org/1999/xhtml\"><table class=\"hl7__eu__lab__report\"><tr><th>Test</th><th>24-May-2017</th><th>Reference&#xA0;Range</th><th>Unit</th></tr><tr><td>Glucose [Mass/volume] in Serum or Plasma</td><td>71.5</td><td>70 - 99</td><td></td><td>mg/dL</td></tr></table></div>"
        },
        "status": "final",
        "subject": {
          "reference": "urn:uuid:0f9297ff-15ed-4744-b7d5-7e9c2f476d36",
          "display": "Aniela Prażmo"
        },
        "effectiveDateTime": "2017-05-24T06:47:50Z",
        "specimen": {
          "reference": "urn:uuid:44cd5d1a-395a-4eed-862f-959490c2b317"
        }
      }
    },
    {
      "fullUrl": "urn:uuid:064361b9-bf7c-41e6-b2d8-2f761a5d10f9",
      "resource": {
        "resourceType": "Observation",
        "id": "064361b9-bf7c-41e6-b2d8-2f761a5d10f9",
        "meta": {
          "profile": [
            "http://hl7.eu/fhir/laboratory/StructureDefinition/Observation-resultslab-eu-lab"
          ]
        },
        "performer": [
          {
            "display": "The Central European Lab"
          }
        ],
        "category": [
          {
            "coding": [
              {
                "system": "http://terminology.hl7.org/CodeSystem/observation-category",
                "code": "laboratory"
              }
            ]
          }
        ],
        "code": {
          "coding": [
            {
              "code": "3094-0",
              "system": "http://loinc.org",
              "display": "Urea nitrogen [Mass/volume] in Serum or Plasma"
            }
          ],
          "text": "Urea nitrogen [Mass/volume] in Serum or Plasma"
        },
        "valueQuantity": {
          "system": "http://unitsofmeasure.org",
          "value": 7.8,
          "unit": "mg/dL",
          "code": "mg/dL"
        },
        "referenceRange": [
          {
            "low": {
              "value": 7,
              "code": "mg/dL",
              "system": "http://unitsofmeasure.org"
            }
          },
          {
            "high": {
              "value": 20,
              "code": "mg/dL",
              "system": "http://unitsofmeasure.org"
            }
          }
        ],
        "text": {
          "status": "generated",
          "div": "<div xmlns=\"http://www.w3.org/1999/xhtml\"><table class=\"hl7__eu__lab__report\"><tr><th>Test</th><th>24-May-2017</th><th>Reference&#xA0;Range</th><th>Unit</th></tr><tr><td>Urea nitrogen [Mass/volume] in Serum or Plasma</td><td>7.8</td><td>7 - 20</td><td></td><td>mg/dL</td></tr></table></div>"
        },
        "status": "final",
        "subject": {
          "reference": "urn:uuid:0f9297ff-15ed-4744-b7d5-7e9c2f476d36",
          "display": "Aniela Prażmo"
        },
        "effectiveDateTime": "2017-05-24T06:47:50Z",
        "specimen": {
          "reference": "urn:uuid:44cd5d1a-395a-4eed-862f-959490c2b317"
        }
      }
    },
    {
      "fullUrl": "urn:uuid:443fc5d6-ab63-48d8-ad32-3c61fac389fe",
      "resource": {
        "resourceType": "Observation",
        "id": "443fc5d6-ab63-48d8-ad32-3c61fac389fe",
        "meta": {
          "profile": [
            "http://hl7.eu/fhir/laboratory/StructureDefinition/Observation-resultslab-eu-lab"
          ]
        },
        "performer": [
          {
            "display": "The Central European Lab"
          }
        ],
        "category": [
          {
            "coding": [
              {
                "system": "http://terminology.hl7.org/CodeSystem/observation-category",
                "code": "laboratory"
              }
            ]
          }
        ],
        "code": {
          "coding": [
            {
              "code": "2160-0",
              "system": "http://loinc.org",
              "display": "Creatinine [Mass/volume] in Serum or Plasma"
            }
          ],
          "text": "Creatinine [Mass/volume] in Serum or Plasma"
        },
        "valueQuantity": {
          "system": "http://unitsofmeasure.org",
          "value": 2.8,
          "unit": "mg/dL",
          "code": "mg/dL"
        },
        "referenceRange": [
          {
            "low": {
              "value": 0.6,
              "code": "mg/dL",
              "system": "http://unitsofmeasure.org"
            }
          },
          {
            "high": {
              "value": 1.3,
              "code": "mg/dL",
              "system": "http://unitsofmeasure.org"
            }
          }
        ],
        "interpretation": [
          {
            "coding": [
              {
                "code": "H",
                "system": "http://terminology.hl7.org/CodeSystem/v3-ObservationInterpretation",
                "display": "High"
              }
            ]
          }
        ],
        "text": {
          "status": "generated",
          "div": "<div xmlns=\"http://www.w3.org/1999/xhtml\"><table class=\"hl7__eu__lab__report\"><tr><th>Test</th><th>24-May-2017</th><th>Reference&#xA0;Range</th><th>Unit</th></tr><tr><td>Creatinine [Mass/volume] in Serum or Plasma</td><td>2.8</td><td>0.6 - 1.3</td><td>H</td><td>mg/dL</td></tr></table></div>"
        },
        "status": "final",
        "subject": {
          "reference": "urn:uuid:0f9297ff-15ed-4744-b7d5-7e9c2f476d36",
          "display": "Aniela Prażmo"
        },
        "effectiveDateTime": "2017-05-24T06:47:50Z",
        "specimen": {
          "reference": "urn:uuid:44cd5d1a-395a-4eed-862f-959490c2b317"
        }
      }
    },
    {
      "fullUrl": "urn:uuid:613eff4a-3aba-4b84-991e-992150635553",
      "resource": {
        "resourceType": "Observation",
        "id": "613eff4a-3aba-4b84-991e-992150635553",
        "meta": {
          "profile": [
            "http://hl7.eu/fhir/laboratory/StructureDefinition/Observation-resultslab-eu-lab"
          ]
        },
        "performer": [
          {
            "display": "The Central European Lab"
          }
        ],
        "category": [
          {
            "coding": [
              {
                "system": "http://terminology.hl7.org/CodeSystem/observation-category",
                "code": "laboratory"
              }
            ]
          }
        ],
        "code": {
          "coding": [
            {
              "code": "17861-6",
              "system": "http://loinc.org",
              "display": "Calcium [Mass/volume] in Serum or Plasma"
            }
          ],
          "text": "Calcium [Mass/volume] in Serum or Plasma"
        },
        "valueQuantity": {
          "system": "http://unitsofmeasure.org",
          "value": 9.7,
          "unit": "mg/dL",
          "code": "mg/dL"
        },
        "referenceRange": [
          {
            "low": {
              "value": 8.5,
              "code": "mg/dL",
              "system": "http://unitsofmeasure.org"
            }
          },
          {
            "high": {
              "value": 10.4,
              "code": "mg/dL",
              "system": "http://unitsofmeasure.org"
            }
          }
        ],
        "text": {
          "status": "generated",
          "div": "<div xmlns=\"http://www.w3.org/1999/xhtml\"><table class=\"hl7__eu__lab__report\"><tr><th>Test</th><th>24-May-2017</th><th>Reference&#xA0;Range</th><th>Unit</th></tr><tr><td>Calcium [Mass/volume] in Serum or Plasma</td><td>9.7</td><td>8.5 - 10.4</td><td></td><td>mg/dL</td></tr></table></div>"
        },
        "status": "final",
        "subject": {
          "reference": "urn:uuid:0f9297ff-15ed-4744-b7d5-7e9c2f476d36",
          "display": "Aniela Prażmo"
        },
        "effectiveDateTime": "2017-05-24T06:47:50Z",
        "specimen": {
          "reference": "urn:uuid:44cd5d1a-395a-4eed-862f-959490c2b317"
        }
      }
    },
    {
      "fullUrl": "urn:uuid:7aa7be90-1c71-4bf6-86cd-432ed08d65ee",
      "resource": {
        "resourceType": "Observation",
        "id": "7aa7be90-1c71-4bf6-86cd-432ed08d65ee",
        "meta": {
          "profile": [
            "http://hl7.eu/fhir/laboratory/StructureDefinition/Observation-resultslab-eu-lab"
          ]
        },
        "performer": [
          {
            "display": "The Central European Lab"
          }
        ],
        "category": [
          {
            "coding": [
              {
                "system": "http://terminology.hl7.org/CodeSystem/observation-category",
                "code": "laboratory"
              }
            ]
          }
        ],
        "code": {
          "coding": [
            {
              "code": "2951-2",
              "system": "http://loinc.org",
              "display": "Sodium [Moles/volume] in Serum or Plasma"
            }
          ],
          "text": "Sodium [Moles/volume] in Serum or Plasma"
        },
        "valueQuantity": {
          "system": "http://unitsofmeasure.org",
          "value": 136.6,
          "unit": "mmol/L",
          "code": "mmol/L"
        },
        "referenceRange": [
          {
            "low": {
              "value": 135,
              "code": "mmol/L",
              "system": "http://unitsofmeasure.org"
            }
          },
          {
            "high": {
              "value": 145,
              "code": "mmol/L",
              "system": "http://unitsofmeasure.org"
            }
          }
        ],
        "text": {
          "status": "generated",
          "div": "<div xmlns=\"http://www.w3.org/1999/xhtml\"><table class=\"hl7__eu__lab__report\"><tr><th>Test</th><th>24-May-2017</th><th>Reference&#xA0;Range</th><th>Unit</th></tr><tr><td>Sodium [Moles/volume] in Serum or Plasma</td><td>136.6</td><td>135 - 145</td><td></td><td>mmol/L</td></tr></table></div>"
        },
        "status": "final",
        "subject": {
          "reference": "urn:uuid:0f9297ff-15ed-4744-b7d5-7e9c2f476d36",
          "display": "Aniela Prażmo"
        },
        "effectiveDateTime": "2017-05-24T06:47:50Z",
        "specimen": {
          "reference": "urn:uuid:44cd5d1a-395a-4eed-862f-959490c2b317"
        }
      }
    },
    {
      "fullUrl": "urn:uuid:e4edc6a6-74a2-4ea2-a6b2-120d5512cfdb",
      "resource": {
        "resourceType": "Observation",
        "id": "e4edc6a6-74a2-4ea2-a6b2-120d5512cfdb",
        "meta": {
          "profile": [
            "http://hl7.eu/fhir/laboratory/StructureDefinition/Observation-resultslab-eu-lab"
          ]
        },
        "performer": [
          {
            "display": "The Central European Lab"
          }
        ],
        "category": [
          {
            "coding": [
              {
                "system": "http://terminology.hl7.org/CodeSystem/observation-category",
                "code": "laboratory"
              }
            ]
          }
        ],
        "code": {
          "coding": [
            {
              "code": "2823-3",
              "system": "http://loinc.org",
              "display": "Potassium [Moles/volume] in Serum or Plasma"
            }
          ],
          "text": "Potassium [Moles/volume] in Serum or Plasma"
        },
        "valueQuantity": {
          "system": "http://unitsofmeasure.org",
          "value": 4.3,
          "unit": "mmol/L",
          "code": "mmol/L"
        },
        "referenceRange": [
          {
            "low": {
              "value": 3.5,
              "code": "mmol/L",
              "system": "http://unitsofmeasure.org"
            }
          },
          {
            "high": {
              "value": 5.1,
              "code": "mmol/L",
              "system": "http://unitsofmeasure.org"
            }
          }
        ],
        "text": {
          "status": "generated",
          "div": "<div xmlns=\"http://www.w3.org/1999/xhtml\"><table class=\"hl7__eu__lab__report\"><tr><th>Test</th><th>24-May-2017</th><th>Reference&#xA0;Range</th><th>Unit</th></tr><tr><td>Potassium [Moles/volume] in Serum or Plasma</td><td>4.3</td><td>3.5 - 5.1</td><td></td><td>mmol/L</td></tr></table></div>"
        },
        "status": "final",
        "subject": {
          "reference": "urn:uuid:0f9297ff-15ed-4744-b7d5-7e9c2f476d36",
          "display": "Aniela Prażmo"
        },
        "effectiveDateTime": "2017-05-24T06:47:50Z",
        "specimen": {
          "reference": "urn:uuid:44cd5d1a-395a-4eed-862f-959490c2b317"
        }
      }
    },
    {
      "fullUrl": "urn:uuid:e928dd5d-a198-48ed-a5eb-fe79b2c93c73",
      "resource": {
        "resourceType": "Observation",
        "id": "e928dd5d-a198-48ed-a5eb-fe79b2c93c73",
        "meta": {
          "profile": [
            "http://hl7.eu/fhir/laboratory/StructureDefinition/Observation-resultslab-eu-lab"
          ]
        },
        "performer": [
          {
            "display": "The Central European Lab"
          }
        ],
        "category": [
          {
            "coding": [
              {
                "system": "http://terminology.hl7.org/CodeSystem/observation-category",
                "code": "laboratory"
              }
            ]
          }
        ],
        "code": {
          "coding": [
            {
              "code": "2075-0",
              "system": "http://loinc.org",
              "display": "Chloride [Moles/volume] in Serum or Plasma"
            }
          ],
          "text": "Chloride [Moles/volume] in Serum or Plasma"
        },
        "valueQuantity": {
          "system": "http://unitsofmeasure.org",
          "value": 105,
          "unit": "mmol/L",
          "code": "mmol/L"
        },
        "referenceRange": [
          {
            "low": {
              "value": 98,
              "code": "mmol/L",
              "system": "http://unitsofmeasure.org"
            }
          },
          {
            "high": {
              "value": 108,
              "code": "mmol/L",
              "system": "http://unitsofmeasure.org"
            }
          }
        ],
        "text": {
          "status": "generated",
          "div": "<div xmlns=\"http://www.w3.org/1999/xhtml\"><table class=\"hl7__eu__lab__report\"><tr><th>Test</th><th>24-May-2017</th><th>Reference&#xA0;Range</th><th>Unit</th></tr><tr><td>Chloride [Moles/volume] in Serum or Plasma</td><td>105.0</td><td>98 - 108</td><td></td><td>mmol/L</td></tr></table></div>"
        },
        "status": "final",
        "subject": {
          "reference": "urn:uuid:0f9297ff-15ed-4744-b7d5-7e9c2f476d36",
          "display": "Aniela Prażmo"
        },
        "effectiveDateTime": "2017-05-24T06:47:50Z",
        "specimen": {
          "reference": "urn:uuid:44cd5d1a-395a-4eed-862f-959490c2b317"
        }
      }
    },
    {
      "fullUrl": "urn:uuid:84406f16-7d21-4f9a-8af2-b2d7c7058550",
      "resource": {
        "resourceType": "Observation",
        "id": "84406f16-7d21-4f9a-8af2-b2d7c7058550",
        "meta": {
          "profile": [
            "http://hl7.eu/fhir/laboratory/StructureDefinition/Observation-resultslab-eu-lab"
          ]
        },
        "performer": [
          {
            "display": "The Central European Lab"
          }
        ],
        "category": [
          {
            "coding": [
              {
                "system": "http://terminology.hl7.org/CodeSystem/observation-category",
                "code": "laboratory"
              }
            ]
          }
        ],
        "code": {
          "coding": [
            {
              "code": "2028-9",
              "system": "http://loinc.org",
              "display": "Carbon dioxide, total [Moles/volume] in Serum or Plasma"
            }
          ],
          "text": "Carbon dioxide, total [Moles/volume] in Serum or Plasma"
        },
        "valueQuantity": {
          "system": "http://unitsofmeasure.org",
          "value": 23.3,
          "unit": "mmol/L",
          "code": "mmol/L"
        },
        "referenceRange": [
          {
            "low": {
              "value": 22,
              "code": "mmol/L",
              "system": "http://unitsofmeasure.org"
            }
          },
          {
            "high": {
              "value": 32,
              "code": "mmol/L",
              "system": "http://unitsofmeasure.org"
            }
          }
        ],
        "text": {
          "status": "generated",
          "div": "<div xmlns=\"http://www.w3.org/1999/xhtml\"><table class=\"hl7__eu__lab__report\"><tr><th>Test</th><th>24-May-2017</th><th>Reference&#xA0;Range</th><th>Unit</th></tr><tr><td>Carbon dioxide, total [Moles/volume] in Serum or Plasma</td><td>23.3</td><td>22 - 32</td><td></td><td>mmol/L</td></tr></table></div>"
        },
        "status": "final",
        "subject": {
          "reference": "urn:uuid:0f9297ff-15ed-4744-b7d5-7e9c2f476d36",
          "display": "Aniela Prażmo"
        },
        "effectiveDateTime": "2017-05-24T06:47:50Z",
        "specimen": {
          "reference": "urn:uuid:44cd5d1a-395a-4eed-862f-959490c2b317"
        }
      }
    },
    {
      "fullUrl": "urn:uuid:e22cd25c-aea2-4a29-8a1f-df9a3d8d59b8",
      "resource": {
        "resourceType": "Observation",
        "id": "e22cd25c-aea2-4a29-8a1f-df9a3d8d59b8",
        "meta": {
          "profile": [
            "http://hl7.eu/fhir/laboratory/StructureDefinition/Observation-resultslab-eu-lab"
          ]
        },
        "performer": [
          {
            "display": "The Central European Lab"
          }
        ],
        "category": [
          {
            "coding": [
              {
                "system": "http://terminology.hl7.org/CodeSystem/observation-category",
                "code": "laboratory"
              }
            ]
          }
        ],
        "code": {
          "coding": [
            {
              "code": "2885-2",
              "system": "http://loinc.org",
              "display": "Protein [Mass/volume] in Serum or Plasma"
            }
          ],
          "text": "Protein [Mass/volume] in Serum or Plasma"
        },
        "valueQuantity": {
          "system": "http://unitsofmeasure.org",
          "value": 7.2,
          "unit": "g/dL",
          "code": "g/dL"
        },
        "referenceRange": [
          {
            "low": {
              "value": 6,
              "code": "g/dL",
              "system": "http://unitsofmeasure.org"
            }
          },
          {
            "high": {
              "value": 8.3,
              "code": "g/dL",
              "system": "http://unitsofmeasure.org"
            }
          }
        ],
        "text": {
          "status": "generated",
          "div": "<div xmlns=\"http://www.w3.org/1999/xhtml\"><table class=\"hl7__eu__lab__report\"><tr><th>Test</th><th>24-May-2017</th><th>Reference&#xA0;Range</th><th>Unit</th></tr><tr><td>Protein [Mass/volume] in Serum or Plasma</td><td>7.2</td><td>6 - 8.3</td><td></td><td>g/dL</td></tr></table></div>"
        },
        "status": "final",
        "subject": {
          "reference": "urn:uuid:0f9297ff-15ed-4744-b7d5-7e9c2f476d36",
          "display": "Aniela Prażmo"
        },
        "effectiveDateTime": "2017-05-24T06:47:50Z",
        "specimen": {
          "reference": "urn:uuid:44cd5d1a-395a-4eed-862f-959490c2b317"
        }
      }
    },
    {
      "fullUrl": "urn:uuid:6c3df600-8997-4df6-ab40-e922df7c3474",
      "resource": {
        "resourceType": "Observation",
        "id": "6c3df600-8997-4df6-ab40-e922df7c3474",
        "meta": {
          "profile": [
            "http://hl7.eu/fhir/laboratory/StructureDefinition/Observation-resultslab-eu-lab"
          ]
        },
        "performer": [
          {
            "display": "The Central European Lab"
          }
        ],
        "category": [
          {
            "coding": [
              {
                "system": "http://terminology.hl7.org/CodeSystem/observation-category",
                "code": "laboratory"
              }
            ]
          }
        ],
        "code": {
          "coding": [
            {
              "code": "1751-7",
              "system": "http://loinc.org",
              "display": "Albumin [Mass/volume] in Serum or Plasma"
            }
          ],
          "text": "Albumin [Mass/volume] in Serum or Plasma"
        },
        "valueQuantity": {
          "system": "http://unitsofmeasure.org",
          "value": 4.7,
          "unit": "g/dL",
          "code": "g/dL"
        },
        "referenceRange": [
          {
            "low": {
              "value": 3.5,
              "code": "g/dL",
              "system": "http://unitsofmeasure.org"
            }
          },
          {
            "high": {
              "value": 5,
              "code": "g/dL",
              "system": "http://unitsofmeasure.org"
            }
          }
        ],
        "text": {
          "status": "generated",
          "div": "<div xmlns=\"http://www.w3.org/1999/xhtml\"><table class=\"hl7__eu__lab__report\"><tr><th>Test</th><th>24-May-2017</th><th>Reference&#xA0;Range</th><th>Unit</th></tr><tr><td>Albumin [Mass/volume] in Serum or Plasma</td><td>4.7</td><td>3.5 - 5</td><td></td><td>g/dL</td></tr></table></div>"
        },
        "status": "final",
        "subject": {
          "reference": "urn:uuid:0f9297ff-15ed-4744-b7d5-7e9c2f476d36",
          "display": "Aniela Prażmo"
        },
        "effectiveDateTime": "2017-05-24T06:47:50Z",
        "specimen": {
          "reference": "urn:uuid:44cd5d1a-395a-4eed-862f-959490c2b317"
        }
      }
    },
    {
      "fullUrl": "urn:uuid:07083f77-965d-49a8-a679-9d4d3e788656",
      "resource": {
        "resourceType": "Observation",
        "id": "07083f77-965d-49a8-a679-9d4d3e788656",
        "meta": {
          "profile": [
            "http://hl7.eu/fhir/laboratory/StructureDefinition/Observation-resultslab-eu-lab"
          ]
        },
        "performer": [
          {
            "display": "The Central European Lab"
          }
        ],
        "category": [
          {
            "coding": [
              {
                "system": "http://terminology.hl7.org/CodeSystem/observation-category",
                "code": "laboratory"
              }
            ]
          }
        ],
        "code": {
          "coding": [
            {
              "code": "1975-2",
              "system": "http://loinc.org",
              "display": "Bilirubin.total [Mass/volume] in Serum or Plasma"
            }
          ],
          "text": "Bilirubin.total [Mass/volume] in Serum or Plasma"
        },
        "valueQuantity": {
          "system": "http://unitsofmeasure.org",
          "value": 8.3,
          "unit": "mg/dL",
          "code": "mg/dL"
        },
        "referenceRange": [
          {
            "low": {
              "value": 0.3,
              "code": "mg/dL",
              "system": "http://unitsofmeasure.org"
            }
          },
          {
            "high": {
              "value": 1.2,
              "code": "mg/dL",
              "system": "http://unitsofmeasure.org"
            }
          }
        ],
        "interpretation": [
          {
            "coding": [
              {
                "code": "H",
                "system": "http://terminology.hl7.org/CodeSystem/v3-ObservationInterpretation",
                "display": "High"
              }
            ]
          }
        ],
        "text": {
          "status": "generated",
          "div": "<div xmlns=\"http://www.w3.org/1999/xhtml\"><table class=\"hl7__eu__lab__report\"><tr><th>Test</th><th>24-May-2017</th><th>Reference&#xA0;Range</th><th>Unit</th></tr><tr><td>Bilirubin.total [Mass/volume] in Serum or Plasma</td><td>8.3</td><td>0.3 - 1.2</td><td>H</td><td>mg/dL</td></tr></table></div>"
        },
        "status": "final",
        "subject": {
          "reference": "urn:uuid:0f9297ff-15ed-4744-b7d5-7e9c2f476d36",
          "display": "Aniela Prażmo"
        },
        "effectiveDateTime": "2017-05-24T06:47:50Z",
        "specimen": {
          "reference": "urn:uuid:44cd5d1a-395a-4eed-862f-959490c2b317"
        }
      }
    },
    {
      "fullUrl": "urn:uuid:d243a192-54ca-4a47-a8d4-92945b1969ef",
      "resource": {
        "resourceType": "Observation",
        "id": "d243a192-54ca-4a47-a8d4-92945b1969ef",
        "meta": {
          "profile": [
            "http://hl7.eu/fhir/laboratory/StructureDefinition/Observation-resultslab-eu-lab"
          ]
        },
        "performer": [
          {
            "display": "The Central European Lab"
          }
        ],
        "category": [
          {
            "coding": [
              {
                "system": "http://terminology.hl7.org/CodeSystem/observation-category",
                "code": "laboratory"
              }
            ]
          }
        ],
        "code": {
          "coding": [
            {
              "code": "6768-6",
              "system": "http://loinc.org",
              "display": "Alkaline phosphatase [Enzymatic activity/volume] in Serum or Plasma"
            }
          ],
          "text": "Alkaline phosphatase [Enzymatic activity/volume] in Serum or Plasma"
        },
        "valueQuantity": {
          "system": "http://unitsofmeasure.org",
          "value": 64.5,
          "unit": "U/L",
          "code": "U/L"
        },
        "referenceRange": [
          {
            "low": {
              "value": 32,
              "code": "U/L",
              "system": "http://unitsofmeasure.org"
            }
          },
          {
            "high": {
              "value": 150,
              "code": "U/L",
              "system": "http://unitsofmeasure.org"
            }
          }
        ],
        "text": {
          "status": "generated",
          "div": "<div xmlns=\"http://www.w3.org/1999/xhtml\"><table class=\"hl7__eu__lab__report\"><tr><th>Test</th><th>24-May-2017</th><th>Reference&#xA0;Range</th><th>Unit</th></tr><tr><td>Alkaline phosphatase [Enzymatic activity/volume] in Serum or Plasma</td><td>64.5</td><td>32 - 150</td><td></td><td>U/L</td></tr></table></div>"
        },
        "status": "final",
        "subject": {
          "reference": "urn:uuid:0f9297ff-15ed-4744-b7d5-7e9c2f476d36",
          "display": "Aniela Prażmo"
        },
        "effectiveDateTime": "2017-05-24T06:47:50Z",
        "specimen": {
          "reference": "urn:uuid:44cd5d1a-395a-4eed-862f-959490c2b317"
        }
      }
    },
    {
      "fullUrl": "urn:uuid:fbb2e11b-cbf6-4586-b0e7-f27907d08f31",
      "resource": {
        "resourceType": "Observation",
        "id": "fbb2e11b-cbf6-4586-b0e7-f27907d08f31",
        "meta": {
          "profile": [
            "http://hl7.eu/fhir/laboratory/StructureDefinition/Observation-resultslab-eu-lab"
          ]
        },
        "performer": [
          {
            "display": "The Central European Lab"
          }
        ],
        "category": [
          {
            "coding": [
              {
                "system": "http://terminology.hl7.org/CodeSystem/observation-category",
                "code": "laboratory"
              }
            ]
          }
        ],
        "code": {
          "coding": [
            {
              "code": "1742-6",
              "system": "http://loinc.org",
              "display": "Alanine aminotransferase [Enzymatic activity/volume] in Serum or Plasma"
            }
          ],
          "text": "Alanine aminotransferase [Enzymatic activity/volume] in Serum or Plasma"
        },
        "valueQuantity": {
          "system": "http://unitsofmeasure.org",
          "value": 11.3,
          "unit": "U/L",
          "code": "U/L"
        },
        "referenceRange": [
          {
            "low": {
              "value": 13,
              "code": "U/L",
              "system": "http://unitsofmeasure.org"
            }
          },
          {
            "high": {
              "value": 32,
              "code": "U/L",
              "system": "http://unitsofmeasure.org"
            }
          }
        ],
        "interpretation": [
          {
            "coding": [
              {
                "code": "L",
                "system": "http://terminology.hl7.org/CodeSystem/v3-ObservationInterpretation",
                "display": "Low"
              }
            ]
          }
        ],
        "text": {
          "status": "generated",
          "div": "<div xmlns=\"http://www.w3.org/1999/xhtml\"><table class=\"hl7__eu__lab__report\"><tr><th>Test</th><th>24-May-2017</th><th>Reference&#xA0;Range</th><th>Unit</th></tr><tr><td>Alanine aminotransferase [Enzymatic activity/volume] in Serum or Plasma</td><td>11.3</td><td>13 - 32</td><td>L</td><td>U/L</td></tr></table></div>"
        },
        "status": "final",
        "subject": {
          "reference": "urn:uuid:0f9297ff-15ed-4744-b7d5-7e9c2f476d36",
          "display": "Aniela Prażmo"
        },
        "effectiveDateTime": "2017-05-24T06:47:50Z",
        "specimen": {
          "reference": "urn:uuid:44cd5d1a-395a-4eed-862f-959490c2b317"
        }
      }
    },
    {
      "fullUrl": "urn:uuid:8dc02887-dc95-4b5b-aa22-b93ed86a0c24",
      "resource": {
        "resourceType": "Observation",
        "id": "8dc02887-dc95-4b5b-aa22-b93ed86a0c24",
        "meta": {
          "profile": [
            "http://hl7.eu/fhir/laboratory/StructureDefinition/Observation-resultslab-eu-lab"
          ]
        },
        "performer": [
          {
            "display": "The Central European Lab"
          }
        ],
        "category": [
          {
            "coding": [
              {
                "system": "http://terminology.hl7.org/CodeSystem/observation-category",
                "code": "laboratory"
              }
            ]
          }
        ],
        "code": {
          "coding": [
            {
              "code": "1920-8",
              "system": "http://loinc.org",
              "display": "Aspartate aminotransferase [Enzymatic activity/volume] in Serum or Plasma"
            }
          ],
          "text": "Aspartate aminotransferase [Enzymatic activity/volume] in Serum or Plasma"
        },
        "valueQuantity": {
          "system": "http://unitsofmeasure.org",
          "value": 21.7,
          "unit": "U/L",
          "code": "U/L"
        },
        "referenceRange": [
          {
            "low": {
              "value": 10,
              "code": "U/L",
              "system": "http://unitsofmeasure.org"
            }
          },
          {
            "high": {
              "value": 40,
              "code": "U/L",
              "system": "http://unitsofmeasure.org"
            }
          }
        ],
        "text": {
          "status": "generated",
          "div": "<div xmlns=\"http://www.w3.org/1999/xhtml\"><table class=\"hl7__eu__lab__report\"><tr><th>Test</th><th>24-May-2017</th><th>Reference&#xA0;Range</th><th>Unit</th></tr><tr><td>Aspartate aminotransferase [Enzymatic activity/volume] in Serum or Plasma</td><td>21.7</td><td>10 - 40</td><td></td><td>U/L</td></tr></table></div>"
        },
        "status": "final",
        "subject": {
          "reference": "urn:uuid:0f9297ff-15ed-4744-b7d5-7e9c2f476d36",
          "display": "Aniela Prażmo"
        },
        "effectiveDateTime": "2017-05-24T06:47:50Z",
        "specimen": {
          "reference": "urn:uuid:44cd5d1a-395a-4eed-862f-959490c2b317"
        }
      }
    },
    {
      "fullUrl": "urn:uuid:7d18e7d7-3dc8-4b36-8635-47529e495d2d",
      "resource": {
        "resourceType": "Observation",
        "id": "7d18e7d7-3dc8-4b36-8635-47529e495d2d",
        "meta": {
          "profile": [
            "http://hl7.eu/fhir/laboratory/StructureDefinition/Observation-resultslab-eu-lab"
          ]
        },
        "performer": [
          {
            "display": "The Central European Lab"
          }
        ],
        "category": [
          {
            "coding": [
              {
                "system": "http://terminology.hl7.org/CodeSystem/observation-category",
                "code": "laboratory"
              }
            ]
          }
        ],
        "code": {
          "coding": [
            {
              "code": "19123-9",
              "system": "http://loinc.org",
              "display": "Magnesium [Mass/volume] in Serum or Plasma"
            }
          ],
          "text": "Magnesium [Mass/volume] in Serum or Plasma"
        },
        "valueQuantity": {
          "system": "http://unitsofmeasure.org",
          "value": 1.7,
          "unit": "mg/dL",
          "code": "mg/dL"
        },
        "referenceRange": [
          {
            "low": {
              "value": 1.7,
              "code": "mg/dL",
              "system": "http://unitsofmeasure.org"
            }
          },
          {
            "high": {
              "value": 2.6,
              "code": "mg/dL",
              "system": "http://unitsofmeasure.org"
            }
          }
        ],
        "text": {
          "status": "generated",
          "div": "<div xmlns=\"http://www.w3.org/1999/xhtml\"><table class=\"hl7__eu__lab__report\"><tr><th>Test</th><th>24-May-2017</th><th>Reference&#xA0;Range</th><th>Unit</th></tr><tr><td>Magnesium [Mass/volume] in Serum or Plasma</td><td>1.7</td><td>1.7 - 2.6</td><td></td><td>mg/dL</td></tr></table></div>"
        },
        "status": "final",
        "subject": {
          "reference": "urn:uuid:0f9297ff-15ed-4744-b7d5-7e9c2f476d36",
          "display": "Aniela Prażmo"
        },
        "effectiveDateTime": "2017-05-24T06:47:50Z",
        "specimen": {
          "reference": "urn:uuid:44cd5d1a-395a-4eed-862f-959490c2b317"
        }
      }
    },
    {
      "fullUrl": "urn:uuid:acc652af-2d82-4518-ab28-4f067d062df6",
      "resource": {
        "resourceType": "Observation",
        "id": "acc652af-2d82-4518-ab28-4f067d062df6",
        "meta": {
          "profile": [
            "http://hl7.eu/fhir/laboratory/StructureDefinition/Observation-resultslab-eu-lab"
          ]
        },
        "performer": [
          {
            "display": "The Central European Lab"
          }
        ],
        "category": [
          {
            "coding": [
              {
                "system": "http://terminology.hl7.org/CodeSystem/observation-category",
                "code": "laboratory"
              }
            ]
          }
        ],
        "code": {
          "coding": [
            {
              "code": "2777-1",
              "system": "http://loinc.org",
              "display": "Phosphate [Mass/volume] in Serum or Plasma"
            }
          ],
          "text": "Phosphate [Mass/volume] in Serum or Plasma"
        },
        "valueQuantity": {
          "system": "http://unitsofmeasure.org",
          "value": 4.5,
          "unit": "mg/dL",
          "code": "mg/dL"
        },
        "referenceRange": [
          {
            "low": {
              "value": 2.5,
              "code": "mg/dL",
              "system": "http://unitsofmeasure.org"
            }
          },
          {
            "high": {
              "value": 4.5,
              "code": "mg/dL",
              "system": "http://unitsofmeasure.org"
            }
          }
        ],
        "text": {
          "status": "generated",
          "div": "<div xmlns=\"http://www.w3.org/1999/xhtml\"><table class=\"hl7__eu__lab__report\"><tr><th>Test</th><th>24-May-2017</th><th>Reference&#xA0;Range</th><th>Unit</th></tr><tr><td>Phosphate [Mass/volume] in Serum or Plasma</td><td>4.5</td><td>2.5 - 4.5</td><td></td><td>mg/dL</td></tr></table></div>"
        },
        "status": "final",
        "subject": {
          "reference": "urn:uuid:0f9297ff-15ed-4744-b7d5-7e9c2f476d36",
          "display": "Aniela Prażmo"
        },
        "effectiveDateTime": "2017-05-24T06:47:50Z",
        "specimen": {
          "reference": "urn:uuid:44cd5d1a-395a-4eed-862f-959490c2b317"
        }
      }
    },
    {
      "fullUrl": "urn:uuid:7742d353-46a1-46f7-99fa-9bf7a0041a52",
      "resource": {
        "resourceType": "Observation",
        "id": "7742d353-46a1-46f7-99fa-9bf7a0041a52",
        "meta": {
          "profile": [
            "http://hl7.eu/fhir/laboratory/StructureDefinition/Observation-resultslab-eu-lab"
          ]
        },
        "performer": [
          {
            "display": "The Central European Lab"
          }
        ],
        "category": [
          {
            "coding": [
              {
                "system": "http://terminology.hl7.org/CodeSystem/observation-category",
                "code": "laboratory"
              }
            ]
          }
        ],
        "code": {
          "coding": [
            {
              "code": "5902-2",
              "system": "http://loinc.org",
              "display": "Prothrombin time (PT)"
            }
          ],
          "text": "Prothrombin time (PT)"
        },
        "valueQuantity": {
          "system": "http://unitsofmeasure.org",
          "value": 10.2,
          "unit": "s",
          "code": "s"
        },
        "referenceRange": [
          {
            "low": {
              "value": 11,
              "code": "s",
              "system": "http://unitsofmeasure.org"
            }
          },
          {
            "high": {
              "value": 15,
              "code": "s",
              "system": "http://unitsofmeasure.org"
            }
          }
        ],
        "interpretation": [
          {
            "coding": [
              {
                "code": "L",
                "system": "http://terminology.hl7.org/CodeSystem/v3-ObservationInterpretation",
                "display": "Low"
              }
            ]
          }
        ],
        "text": {
          "status": "generated",
          "div": "<div xmlns=\"http://www.w3.org/1999/xhtml\"><table class=\"hl7__eu__lab__report\"><tr><th>Test</th><th>24-May-2017</th><th>Reference&#xA0;Range</th><th>Unit</th></tr><tr><td>Prothrombin time (PT)</td><td>10.2</td><td>11 - 15</td><td>L</td><td>s</td></tr></table></div>"
        },
        "status": "final",
        "subject": {
          "reference": "urn:uuid:0f9297ff-15ed-4744-b7d5-7e9c2f476d36",
          "display": "Aniela Prażmo"
        },
        "effectiveDateTime": "2017-05-24T06:47:50Z",
        "specimen": {
          "reference": "urn:uuid:e21471e6-2307-4494-ba6e-c7cb37ab1089"
        }
      }
    },
    {
      "fullUrl": "urn:uuid:41328db8-b40f-4c06-b9b3-e3484fad8f6d",
      "resource": {
        "resourceType": "Observation",
        "id": "41328db8-b40f-4c06-b9b3-e3484fad8f6d",
        "meta": {
          "profile": [
            "http://hl7.eu/fhir/laboratory/StructureDefinition/Observation-resultslab-eu-lab"
          ]
        },
        "performer": [
          {
            "display": "The Central European Lab"
          }
        ],
        "category": [
          {
            "coding": [
              {
                "system": "http://terminology.hl7.org/CodeSystem/observation-category",
                "code": "laboratory"
              }
            ]
          }
        ],
        "code": {
          "coding": [
            {
              "code": "6301-6",
              "system": "http://loinc.org",
              "display": "INR in Platelet poor plasma by Coagulation assay"
            }
          ],
          "text": "INR in Platelet poor plasma by Coagulation assay"
        },
        "valueQuantity": {
          "system": "http://unitsofmeasure.org",
          "value": 0.9,
          "unit": "{INR}",
          "code": "{INR}"
        },
        "referenceRange": [
          {
            "low": {
              "value": 0.9,
              "code": "INR",
              "system": "http://unitsofmeasure.org"
            }
          },
          {
            "high": {
              "value": 1.1,
              "code": "INR",
              "system": "http://unitsofmeasure.org"
            }
          }
        ],
        "text": {
          "status": "generated",
          "div": "<div xmlns=\"http://www.w3.org/1999/xhtml\"><table class=\"hl7__eu__lab__report\"><tr><th>Test</th><th>24-May-2017</th><th>Reference&#xA0;Range</th><th>Unit</th></tr><tr><td>INR in Platelet poor plasma by Coagulation assay</td><td>0.9</td><td>0.9 - 1.1</td><td></td><td>{INR}</td></tr></table></div>"
        },
        "status": "final",
        "subject": {
          "reference": "urn:uuid:0f9297ff-15ed-4744-b7d5-7e9c2f476d36",
          "display": "Aniela Prażmo"
        },
        "effectiveDateTime": "2017-05-24T06:47:50Z",
        "specimen": {
          "reference": "urn:uuid:e21471e6-2307-4494-ba6e-c7cb37ab1089"
        }
      }
    },
    {
      "fullUrl": "urn:uuid:9dbf433b-4667-413c-9912-742dacc030cd",
      "resource": {
        "resourceType": "Observation",
        "id": "9dbf433b-4667-413c-9912-742dacc030cd",
        "meta": {
          "profile": [
            "http://hl7.eu/fhir/laboratory/StructureDefinition/Observation-resultslab-eu-lab"
          ]
        },
        "performer": [
          {
            "display": "The Central European Lab"
          }
        ],
        "category": [
          {
            "coding": [
              {
                "system": "http://terminology.hl7.org/CodeSystem/observation-category",
                "code": "laboratory"
              }
            ]
          }
        ],
        "code": {
          "coding": [
            {
              "code": "3173-2",
              "system": "http://loinc.org",
              "display": "aPTT in Blood by Coagulation assay"
            }
          ],
          "text": "aPTT in Blood by Coagulation assay"
        },
        "valueQuantity": {
          "system": "http://unitsofmeasure.org",
          "value": 28.5,
          "unit": "s",
          "code": "s"
        },
        "referenceRange": [
          {
            "low": {
              "value": 25,
              "code": "seconds",
              "system": "http://unitsofmeasure.org"
            }
          },
          {
            "high": {
              "value": 35,
              "code": "seconds",
              "system": "http://unitsofmeasure.org"
            }
          }
        ],
        "text": {
          "status": "generated",
          "div": "<div xmlns=\"http://www.w3.org/1999/xhtml\"><table class=\"hl7__eu__lab__report\"><tr><th>Test</th><th>24-May-2017</th><th>Reference&#xA0;Range</th><th>Unit</th></tr><tr><td>aPTT in Blood by Coagulation assay</td><td>28.5</td><td>25 - 35</td><td></td><td>s</td></tr></table></div>"
        },
        "status": "final",
        "subject": {
          "reference": "urn:uuid:0f9297ff-15ed-4744-b7d5-7e9c2f476d36",
          "display": "Aniela Prażmo"
        },
        "effectiveDateTime": "2017-05-24T06:47:50Z",
        "specimen": {
          "reference": "urn:uuid:4de18b1c-f241-46ea-a3c8-97ead2d93cf4"
        }
      }
    },
    {
      "fullUrl": "urn:uuid:995571d6-e040-4e62-861b-73d8c001b578",
      "resource": {
        "resourceType": "Observation",
        "id": "995571d6-e040-4e62-861b-73d8c001b578",
        "meta": {
          "profile": [
            "http://hl7.eu/fhir/laboratory/StructureDefinition/Observation-resultslab-eu-lab"
          ]
        },
        "performer": [
          {
            "display": "The Central European Lab"
          }
        ],
        "category": [
          {
            "coding": [
              {
                "system": "http://terminology.hl7.org/CodeSystem/observation-category",
                "code": "laboratory"
              }
            ]
          }
        ],
        "code": {
          "coding": [
            {
              "code": "2744-1",
              "system": "http://loinc.org",
              "display": "pH of Arterial blood"
            }
          ],
          "text": "pH of Arterial blood"
        },
        "valueQuantity": {
          "system": "http://unitsofmeasure.org",
          "value": 7.2,
          "unit": "[pH]",
          "code": "[pH]"
        },
        "referenceRange": [
          {
            "low": {
              "value": 7.35,
              "code": "pH",
              "system": "http://unitsofmeasure.org"
            }
          },
          {
            "high": {
              "value": 7.45,
              "code": "pH",
              "system": "http://unitsofmeasure.org"
            }
          }
        ],
        "interpretation": [
          {
            "coding": [
              {
                "code": "L",
                "system": "http://terminology.hl7.org/CodeSystem/v3-ObservationInterpretation",
                "display": "Low"
              }
            ]
          }
        ],
        "text": {
          "status": "generated",
          "div": "<div xmlns=\"http://www.w3.org/1999/xhtml\"><table class=\"hl7__eu__lab__report\"><tr><th>Test</th><th>24-May-2017</th><th>Reference&#xA0;Range</th><th>Unit</th></tr><tr><td>pH of Arterial blood</td><td>7.2</td><td>7.35 - 7.45</td><td>L</td><td>[pH]</td></tr></table></div>"
        },
        "status": "final",
        "subject": {
          "reference": "urn:uuid:0f9297ff-15ed-4744-b7d5-7e9c2f476d36",
          "display": "Aniela Prażmo"
        },
        "effectiveDateTime": "2017-05-24T06:47:50Z",
        "specimen": {
          "reference": "urn:uuid:9d851ab3-ff4b-4ef9-98f8-376195158c1d"
        }
      }
    },
    {
      "fullUrl": "urn:uuid:c72b9ea1-83fa-48c3-b2f9-29d84fc46b9c",
      "resource": {
        "resourceType": "Observation",
        "id": "c72b9ea1-83fa-48c3-b2f9-29d84fc46b9c",
        "meta": {
          "profile": [
            "http://hl7.eu/fhir/laboratory/StructureDefinition/Observation-resultslab-eu-lab"
          ]
        },
        "performer": [
          {
            "display": "The Central European Lab"
          }
        ],
        "category": [
          {
            "coding": [
              {
                "system": "http://terminology.hl7.org/CodeSystem/observation-category",
                "code": "laboratory"
              }
            ]
          }
        ],
        "code": {
          "coding": [
            {
              "code": "2019-8",
              "system": "http://loinc.org",
              "display": "Carbon dioxide [Partial pressure] in Arterial blood"
            }
          ],
          "text": "Carbon dioxide [Partial pressure] in Arterial blood"
        },
        "valueQuantity": {
          "system": "http://unitsofmeasure.org",
          "value": 35,
          "unit": "mm[Hg]",
          "code": "mm[Hg]"
        },
        "referenceRange": [
          {
            "low": {
              "value": 38,
              "code": "mm[Hg]",
              "system": "http://unitsofmeasure.org"
            }
          },
          {
            "high": {
              "value": 48,
              "code": "mm[Hg]",
              "system": "http://unitsofmeasure.org"
            }
          }
        ],
        "interpretation": [
          {
            "coding": [
              {
                "code": "L",
                "system": "http://terminology.hl7.org/CodeSystem/v3-ObservationInterpretation",
                "display": "Low"
              }
            ]
          }
        ],
        "text": {
          "status": "generated",
          "div": "<div xmlns=\"http://www.w3.org/1999/xhtml\"><table class=\"hl7__eu__lab__report\"><tr><th>Test</th><th>24-May-2017</th><th>Reference&#xA0;Range</th><th>Unit</th></tr><tr><td>Carbon dioxide [Partial pressure] in Arterial blood</td><td>35.0</td><td>38 - 48</td><td>L</td><td>mm[Hg]</td></tr></table></div>"
        },
        "status": "final",
        "subject": {
          "reference": "urn:uuid:0f9297ff-15ed-4744-b7d5-7e9c2f476d36",
          "display": "Aniela Prażmo"
        },
        "effectiveDateTime": "2017-05-24T06:47:50Z",
        "specimen": {
          "reference": "urn:uuid:9d851ab3-ff4b-4ef9-98f8-376195158c1d"
        }
      }
    },
    {
      "fullUrl": "urn:uuid:a0b3fe09-c13b-4429-9ea5-7fb9c47eea0f",
      "resource": {
        "resourceType": "Observation",
        "id": "a0b3fe09-c13b-4429-9ea5-7fb9c47eea0f",
        "meta": {
          "profile": [
            "http://hl7.eu/fhir/laboratory/StructureDefinition/Observation-resultslab-eu-lab"
          ]
        },
        "performer": [
          {
            "display": "The Central European Lab"
          }
        ],
        "category": [
          {
            "coding": [
              {
                "system": "http://terminology.hl7.org/CodeSystem/observation-category",
                "code": "laboratory"
              }
            ]
          }
        ],
        "code": {
          "coding": [
            {
              "code": "2703-7",
              "system": "http://loinc.org",
              "display": "Oxygen [Partial pressure] in Arterial blood"
            }
          ],
          "text": "Oxygen [Partial pressure] in Arterial blood"
        },
        "valueQuantity": {
          "system": "http://unitsofmeasure.org",
          "value": 94.6,
          "unit": "mm[Hg]",
          "code": "mm[Hg]"
        },
        "referenceRange": [
          {
            "low": {
              "value": 75,
              "code": "mm[Hg]",
              "system": "http://unitsofmeasure.org"
            }
          },
          {
            "high": {
              "value": 100,
              "code": "mm[Hg]",
              "system": "http://unitsofmeasure.org"
            }
          }
        ],
        "text": {
          "status": "generated",
          "div": "<div xmlns=\"http://www.w3.org/1999/xhtml\"><table class=\"hl7__eu__lab__report\"><tr><th>Test</th><th>24-May-2017</th><th>Reference&#xA0;Range</th><th>Unit</th></tr><tr><td>Oxygen [Partial pressure] in Arterial blood</td><td>94.6</td><td>75 - 100</td><td></td><td>mm[Hg]</td></tr></table></div>"
        },
        "status": "final",
        "subject": {
          "reference": "urn:uuid:0f9297ff-15ed-4744-b7d5-7e9c2f476d36",
          "display": "Aniela Prażmo"
        },
        "effectiveDateTime": "2017-05-24T06:47:50Z",
        "specimen": {
          "reference": "urn:uuid:9d851ab3-ff4b-4ef9-98f8-376195158c1d"
        }
      }
    },
    {
      "fullUrl": "urn:uuid:11df8614-ac60-4818-8ef7-6510fa6e9f7e",
      "resource": {
        "resourceType": "Observation",
        "id": "11df8614-ac60-4818-8ef7-6510fa6e9f7e",
        "meta": {
          "profile": [
            "http://hl7.eu/fhir/laboratory/StructureDefinition/Observation-resultslab-eu-lab"
          ]
        },
        "performer": [
          {
            "display": "The Central European Lab"
          }
        ],
        "category": [
          {
            "coding": [
              {
                "system": "http://terminology.hl7.org/CodeSystem/observation-category",
                "code": "laboratory"
              }
            ]
          }
        ],
        "code": {
          "coding": [
            {
              "code": "1960-4",
              "system": "http://loinc.org",
              "display": "Bicarbonate [Moles/volume] in Arterial blood"
            }
          ],
          "text": "Bicarbonate [Moles/volume] in Arterial blood"
        },
        "valueQuantity": {
          "system": "http://unitsofmeasure.org",
          "value": 26.8,
          "unit": "mmol/L",
          "code": "mmol/L"
        },
        "referenceRange": [
          {
            "low": {
              "value": 22,
              "code": "mmol/L",
              "system": "http://unitsofmeasure.org"
            }
          },
          {
            "high": {
              "value": 31,
              "code": "mmol/L",
              "system": "http://unitsofmeasure.org"
            }
          }
        ],
        "text": {
          "status": "generated",
          "div": "<div xmlns=\"http://www.w3.org/1999/xhtml\"><table class=\"hl7__eu__lab__report\"><tr><th>Test</th><th>24-May-2017</th><th>Reference&#xA0;Range</th><th>Unit</th></tr><tr><td>Bicarbonate [Moles/volume] in Arterial blood</td><td>26.8</td><td>22 - 31</td><td></td><td>mmol/L</td></tr></table></div>"
        },
        "status": "final",
        "subject": {
          "reference": "urn:uuid:0f9297ff-15ed-4744-b7d5-7e9c2f476d36",
          "display": "Aniela Prażmo"
        },
        "effectiveDateTime": "2017-05-24T06:47:50Z",
        "specimen": {
          "reference": "urn:uuid:9d851ab3-ff4b-4ef9-98f8-376195158c1d"
        }
      }
    },
    {
      "fullUrl": "urn:uuid:97e13f25-3d9c-4feb-9490-22d851d62b9b",
      "resource": {
        "resourceType": "Observation",
        "id": "97e13f25-3d9c-4feb-9490-22d851d62b9b",
        "meta": {
          "profile": [
            "http://hl7.eu/fhir/laboratory/StructureDefinition/Observation-resultslab-eu-lab"
          ]
        },
        "performer": [
          {
            "display": "The Central European Lab"
          }
        ],
        "category": [
          {
            "coding": [
              {
                "system": "http://terminology.hl7.org/CodeSystem/observation-category",
                "code": "laboratory"
              }
            ]
          }
        ],
        "code": {
          "coding": [
            {
              "code": "2708-6",
              "system": "http://loinc.org",
              "display": "Oxygen saturation in Arterial blood"
            }
          ],
          "text": "Oxygen saturation in Arterial blood"
        },
        "valueQuantity": {
          "system": "http://unitsofmeasure.org",
          "value": 94,
          "unit": "%",
          "code": "%"
        },
        "referenceRange": [
          {
            "low": {
              "value": 95,
              "code": "%",
              "system": "http://unitsofmeasure.org"
            }
          },
          {
            "high": {
              "value": 100,
              "code": "%",
              "system": "http://unitsofmeasure.org"
            }
          }
        ],
        "interpretation": [
          {
            "coding": [
              {
                "code": "L",
                "system": "http://terminology.hl7.org/CodeSystem/v3-ObservationInterpretation",
                "display": "Low"
              }
            ]
          }
        ],
        "text": {
          "status": "generated",
          "div": "<div xmlns=\"http://www.w3.org/1999/xhtml\"><table class=\"hl7__eu__lab__report\"><tr><th>Test</th><th>24-May-2017</th><th>Reference&#xA0;Range</th><th>Unit</th></tr><tr><td>Oxygen saturation in Arterial blood</td><td>94.0</td><td>95 - 100</td><td>L</td><td>%</td></tr></table></div>"
        },
        "status": "final",
        "subject": {
          "reference": "urn:uuid:0f9297ff-15ed-4744-b7d5-7e9c2f476d36",
          "display": "Aniela Prażmo"
        },
        "effectiveDateTime": "2017-05-24T06:47:50Z",
        "specimen": {
          "reference": "urn:uuid:9d851ab3-ff4b-4ef9-98f8-376195158c1d"
        }
      }
    },
    {
      "fullUrl": "urn:uuid:7a4752d4-c85a-43a0-a8f6-f8b86ffecfa0",
      "resource": {
        "resourceType": "Observation",
        "id": "7a4752d4-c85a-43a0-a8f6-f8b86ffecfa0",
        "meta": {
          "profile": [
            "http://hl7.eu/fhir/laboratory/StructureDefinition/Observation-resultslab-eu-lab"
          ]
        },
        "performer": [
          {
            "display": "The Central European Lab"
          }
        ],
        "category": [
          {
            "coding": [
              {
                "system": "http://terminology.hl7.org/CodeSystem/observation-category",
                "code": "laboratory"
              }
            ]
          }
        ],
        "code": {
          "coding": [
            {
              "code": "2093-3",
              "system": "http://loinc.org",
              "display": "Cholesterol [Mass/volume] in Serum or Plasma"
            }
          ],
          "text": "Cholesterol [Mass/volume] in Serum or Plasma"
        },
        "valueQuantity": {
          "system": "http://unitsofmeasure.org",
          "value": 299.5,
          "unit": "mg/dL",
          "code": "mg/dL"
        },
        "referenceRange": [
          {
            "low": {
              "value": 130,
              "code": "mg/dL",
              "system": "http://unitsofmeasure.org"
            }
          },
          {
            "high": {
              "value": 200,
              "code": "mg/dL",
              "system": "http://unitsofmeasure.org"
            }
          }
        ],
        "interpretation": [
          {
            "coding": [
              {
                "code": "H",
                "system": "http://terminology.hl7.org/CodeSystem/v3-ObservationInterpretation",
                "display": "High"
              }
            ]
          }
        ],
        "text": {
          "status": "generated",
          "div": "<div xmlns=\"http://www.w3.org/1999/xhtml\"><table class=\"hl7__eu__lab__report\"><tr><th>Test</th><th>24-May-2017</th><th>Reference&#xA0;Range</th><th>Unit</th></tr><tr><td>Cholesterol [Mass/volume] in Serum or Plasma</td><td>299.5</td><td>130 - 200</td><td>H</td><td>mg/dL</td></tr></table></div>"
        },
        "status": "final",
        "subject": {
          "reference": "urn:uuid:0f9297ff-15ed-4744-b7d5-7e9c2f476d36",
          "display": "Aniela Prażmo"
        },
        "effectiveDateTime": "2017-05-24T06:47:50Z",
        "specimen": {
          "reference": "urn:uuid:44cd5d1a-395a-4eed-862f-959490c2b317"
        }
      }
    },
    {
      "fullUrl": "urn:uuid:22ece369-0de3-47b9-8883-26be10fe4ea1",
      "resource": {
        "resourceType": "Observation",
        "id": "22ece369-0de3-47b9-8883-26be10fe4ea1",
        "meta": {
          "profile": [
            "http://hl7.eu/fhir/laboratory/StructureDefinition/Observation-resultslab-eu-lab"
          ]
        },
        "performer": [
          {
            "display": "The Central European Lab"
          }
        ],
        "category": [
          {
            "coding": [
              {
                "system": "http://terminology.hl7.org/CodeSystem/observation-category",
                "code": "laboratory"
              }
            ]
          }
        ],
        "code": {
          "coding": [
            {
              "code": "2571-8",
              "system": "http://loinc.org",
              "display": "Triglyceride [Mass/volume] in Serum or Plasma"
            }
          ],
          "text": "Triglyceride [Mass/volume] in Serum or Plasma"
        },
        "valueQuantity": {
          "system": "http://unitsofmeasure.org",
          "value": 140.8,
          "unit": "mg/dL",
          "code": "mg/dL"
        },
        "referenceRange": [
          {
            "low": {
              "value": 0,
              "code": "mg/dL",
              "system": "http://unitsofmeasure.org"
            }
          },
          {
            "high": {
              "value": 199,
              "code": "mg/dL",
              "system": "http://unitsofmeasure.org"
            }
          }
        ],
        "text": {
          "status": "generated",
          "div": "<div xmlns=\"http://www.w3.org/1999/xhtml\"><table class=\"hl7__eu__lab__report\"><tr><th>Test</th><th>24-May-2017</th><th>Reference&#xA0;Range</th><th>Unit</th></tr><tr><td>Triglyceride [Mass/volume] in Serum or Plasma</td><td>140.8</td><td>0 - 199</td><td></td><td>mg/dL</td></tr></table></div>"
        },
        "status": "final",
        "subject": {
          "reference": "urn:uuid:0f9297ff-15ed-4744-b7d5-7e9c2f476d36",
          "display": "Aniela Prażmo"
        },
        "effectiveDateTime": "2017-05-24T06:47:50Z",
        "specimen": {
          "reference": "urn:uuid:44cd5d1a-395a-4eed-862f-959490c2b317"
        }
      }
    },
    {
      "fullUrl": "urn:uuid:7d8fcc59-921d-4244-af46-a7a429bcef8f",
      "resource": {
        "resourceType": "Observation",
        "id": "7d8fcc59-921d-4244-af46-a7a429bcef8f",
        "meta": {
          "profile": [
            "http://hl7.eu/fhir/laboratory/StructureDefinition/Observation-resultslab-eu-lab"
          ]
        },
        "performer": [
          {
            "display": "The Central European Lab"
          }
        ],
        "category": [
          {
            "coding": [
              {
                "system": "http://terminology.hl7.org/CodeSystem/observation-category",
                "code": "laboratory"
              }
            ]
          }
        ],
        "code": {
          "coding": [
            {
              "code": "18262-6",
              "system": "http://loinc.org",
              "display": "Cholesterol in LDL [Mass/volume] in Serum or Plasma by Direct assay"
            }
          ],
          "text": "Cholesterol in LDL [Mass/volume] in Serum or Plasma by Direct assay"
        },
        "valueQuantity": {
          "system": "http://unitsofmeasure.org",
          "value": 210.5,
          "unit": "mg/dL",
          "code": "mg/dL"
        },
        "referenceRange": [
          {
            "low": {
              "value": 0,
              "code": "mg/dL",
              "system": "http://unitsofmeasure.org"
            }
          },
          {
            "high": {
              "value": 130,
              "code": "mg/dL",
              "system": "http://unitsofmeasure.org"
            }
          }
        ],
        "interpretation": [
          {
            "coding": [
              {
                "code": "H",
                "system": "http://terminology.hl7.org/CodeSystem/v3-ObservationInterpretation",
                "display": "High"
              }
            ]
          }
        ],
        "text": {
          "status": "generated",
          "div": "<div xmlns=\"http://www.w3.org/1999/xhtml\"><table class=\"hl7__eu__lab__report\"><tr><th>Test</th><th>24-May-2017</th><th>Reference&#xA0;Range</th><th>Unit</th></tr><tr><td>Cholesterol in LDL [Mass/volume] in Serum or Plasma by Direct assay</td><td>210.5</td><td>0 - 130</td><td>H</td><td>mg/dL</td></tr></table></div>"
        },
        "status": "final",
        "subject": {
          "reference": "urn:uuid:0f9297ff-15ed-4744-b7d5-7e9c2f476d36",
          "display": "Aniela Prażmo"
        },
        "effectiveDateTime": "2017-05-24T06:47:50Z",
        "specimen": {
          "reference": "urn:uuid:44cd5d1a-395a-4eed-862f-959490c2b317"
        }
      }
    },
    {
      "fullUrl": "urn:uuid:1eea2916-3ea5-45ee-aa8a-70b21862df72",
      "resource": {
        "resourceType": "Observation",
        "id": "1eea2916-3ea5-45ee-aa8a-70b21862df72",
        "meta": {
          "profile": [
            "http://hl7.eu/fhir/laboratory/StructureDefinition/Observation-resultslab-eu-lab"
          ]
        },
        "performer": [
          {
            "display": "The Central European Lab"
          }
        ],
        "category": [
          {
            "coding": [
              {
                "system": "http://terminology.hl7.org/CodeSystem/observation-category",
                "code": "laboratory"
              }
            ]
          }
        ],
        "code": {
          "coding": [
            {
              "code": "2085-9",
              "system": "http://loinc.org",
              "display": "Cholesterol in HDL [Mass/volume] in Serum or Plasma"
            }
          ],
          "text": "Cholesterol in HDL [Mass/volume] in Serum or Plasma"
        },
        "valueQuantity": {
          "system": "http://unitsofmeasure.org",
          "value": 60.9,
          "unit": "mg/dL",
          "code": "mg/dL"
        },
        "referenceRange": [
          {
            "low": {
              "value": 50,
              "code": "mg/dL",
              "system": "http://unitsofmeasure.org"
            }
          },
          {
            "high": {
              "value": 100,
              "code": "mg/dL",
              "system": "http://unitsofmeasure.org"
            }
          }
        ],
        "text": {
          "status": "generated",
          "div": "<div xmlns=\"http://www.w3.org/1999/xhtml\"><table class=\"hl7__eu__lab__report\"><tr><th>Test</th><th>24-May-2017</th><th>Reference&#xA0;Range</th><th>Unit</th></tr><tr><td>Cholesterol in HDL [Mass/volume] in Serum or Plasma</td><td>60.9</td><td>50 - 100</td><td></td><td>mg/dL</td></tr></table></div>"
        },
        "status": "final",
        "subject": {
          "reference": "urn:uuid:0f9297ff-15ed-4744-b7d5-7e9c2f476d36",
          "display": "Aniela Prażmo"
        },
        "effectiveDateTime": "2017-05-24T06:47:50Z",
        "specimen": {
          "reference": "urn:uuid:44cd5d1a-395a-4eed-862f-959490c2b317"
        }
      }
    },
    {
      "fullUrl": "urn:uuid:54217c97-de6b-42f8-99a1-17390b2de679",
      "resource": {
        "resourceType": "Device",
        "id": "54217c97-de6b-42f8-99a1-17390b2de679",
        "deviceName": [
          {
            "name": "SYNDERAI Synthetic Generator",
            "type": "manufacturer-name"
          }
        ],
        "version": [
          {
            "value": "5.0"
          }
        ],
        "text": {
          "status": "generated",
          "div": "<div xmlns=\"http://www.w3.org/1999/xhtml\">SYNDERAI Synthetic Generator v5.0</div>"
        },
        "status": "active\"",
        "distinctIdentifier": "synderai-generator-50",
        "manufacturer": "SYNDERAI Project"
      }
    },
    {
      "fullUrl": "urn:uuid:35945cc5-b30e-4422-ac35-704cce4cb726",
      "resource": {
        "resourceType": "Provenance",
        "id": "35945cc5-b30e-4422-ac35-704cce4cb726",
        "target": [
          {
            "reference": "Patient/0f9297ff-15ed-4744-b7d5-7e9c2f476d36"
          },
          {
            "reference": "Bundle/f384b36a-e8e1-4b8b-ae34-0d9e4a59853d"
          },
          {
            "reference": "Composition/b4ca14e3-39da-46fd-b754-24d364a3c403"
          },
          {
            "reference": "PractitionerRole/c5680613-0735-4707-987f-40367f2ea6ba"
          },
          {
            "reference": "Practitioner/b5764748-739d-42df-b12d-7417eb208487"
          },
          {
            "reference": "PractitionerRole/8901ff13-eb1a-48bb-8365-913dd727e4b6"
          },
          {
            "reference": "Organization/a24a320e-4ec7-435d-a731-6f716705efc0"
          }
        ],
        "activity": {
          "text": "Synthetic Example Data Generation"
        },
        "policy": [
          "https://synderai.net/synderai-synthetic-data-policy"
        ],
        "agent": [
          {
            "type": {
              "text": "author"
            },
            "who": {
              "reference": "Device/54217c97-de6b-42f8-99a1-17390b2de679"
            }
          }
        ],
        "reason": [
          {
            "text": "Interoperability Testing and Training (non-clinical use)"
          }
        ],
        "text": {
          "status": "generated",
          "div": "<div xmlns=\"http://www.w3.org/1999/xhtml\">Provenance for SYNDERAI Synthetic Example Data Resource</div>"
        },
        "recorded": "2017-05-24T08:47:50Z"
      }
    },
    {
      "fullUrl": "urn:uuid:c5680613-0735-4707-987f-40367f2ea6ba",
      "resource": {
        "resourceType": "PractitionerRole",
        "id": "c5680613-0735-4707-987f-40367f2ea6ba",
        "meta": {
          "profile": [
            "http://hl7.eu/fhir/base/StructureDefinition/practitionerRole-eu"
          ]
        },
        "text": {
          "status": "generated",
          "div": "<div xmlns=\"http://www.w3.org/1999/xhtml\">Laboratory Role Id: c5680613-0735-4707-987f-40367f2ea6ba</div>"
        },
        "practitioner": {
          "reference": "urn:uuid:b5764748-739d-42df-b12d-7417eb208487"
        }
      }
    },
    {
      "fullUrl": "urn:uuid:b5764748-739d-42df-b12d-7417eb208487",
      "resource": {
        "resourceType": "Practitioner",
        "id": "b5764748-739d-42df-b12d-7417eb208487",
        "meta": {
          "profile": [
            "http://hl7.eu/fhir/base/StructureDefinition/practitioner-eu"
          ]
        },
        "identifier": [
          {
            "assigner": {
              "display": "HL7 Europe"
            },
            "system": "urn:oid:2.16.840.1.113883.2.51.999",
            "value": "9c9c96cd-0677-4225-8a03-cff54d51b1c6"
          }
        ],
        "name": [
          {
            "prefix": [
              "dr"
            ],
            "given": [
              "Ex"
            ],
            "family": "Ample"
          }
        ],
        "address": [
          {
            "line": [
              "Laboratoire Central Européenne",
              "Boulevard du Jardin Botanique 32"
            ],
            "postalCode": "1000",
            "city": "Brussels",
            "country": "Belgium"
          }
        ],
        "text": {
          "status": "generated",
          "div": "<div xmlns=\"http://www.w3.org/1999/xhtml\">Laboratory: Laboratoire Central Européenne, 1000 Brussels, Belgium</div>"
        }
      }
    }
  ],
  "type": "document",
  "timestamp": "2017-05-24T08:47:50Z"
}
