{
  "resourceType": "Bundle",
  "id": "0cc56e2d-0b27-4ad1-bb3d-7694503102bc",
  "meta": {
    "profile": [
      "http://hl7.eu/fhir/laboratory/StructureDefinition/Bundle-eu-lab"
    ]
  },
  "identifier": {
    "assigner": {
      "display": "HL7 Europe"
    },
    "system": "urn:oid:2.16.840.1.113883.2.51.999",
    "value": "df84735f-b2f2-4d14-84ad-f3b8fb33adeb"
  },
  "entry": [
    {
      "fullUrl": "urn:uuid:94d35264-200d-4a9b-9452-71deaaeede91",
      "resource": {
        "resourceType": "Composition",
        "id": "94d35264-200d-4a9b-9452-71deaaeede91",
        "meta": {
          "profile": [
            "http://hl7.eu/fhir/laboratory/StructureDefinition/Composition-eu-lab"
          ]
        },
        "identifier": {
          "assigner": {
            "display": "HL7 Europe"
          },
          "system": "urn:oid:2.16.840.1.113883.2.51.999",
          "value": "c3c9dccf-59a8-44b7-80ad-e34f2971b27d"
        },
        "author": [
          {
            "reference": "urn:uuid:9fca34d0-6e77-47f4-a8a8-f4e32ea5ee23"
          }
        ],
        "category": [
          {
            "coding": [
              {
                "code": "26436-6",
                "system": "http://loinc.org",
                "display": "Laboratory studies (set)"
              }
            ]
          }
        ],
        "type": {
          "coding": [
            {
              "code": "11502-2",
              "system": "http://loinc.org",
              "display": "Laboratory report"
            }
          ],
          "text": "Laboratory Report"
        },
        "section": [
          {
            "code": {
              "coding": [
                {
                  "code": "26436-6",
                  "system": "http://loinc.org",
                  "display": "Laboratory studies (set)"
                }
              ],
              "text": "Laboratory studies"
            },
            "section": [
              {
                "code": {
                  "coding": [
                    {
                      "code": "$18719-5",
                      "system": "http://loinc.org",
                      "display": "Chemistry studies (set)"
                    }
                  ],
                  "text": "Chemistry"
                },
                "entry": [
                  {
                    "reference": "urn:uuid:ccb04b12-96e0-4b27-9c07-cd522bf8511a"
                  },
                  {
                    "reference": "urn:uuid:965eb51e-3eec-49c3-a59d-6782700fa992"
                  },
                  {
                    "reference": "urn:uuid:b8dc217c-8be9-42cb-b019-c50a6ab77c22"
                  },
                  {
                    "reference": "urn:uuid:6ae3328b-98b0-4ca1-a41f-149824199987"
                  },
                  {
                    "reference": "urn:uuid:f45c0742-e7a8-4d0d-826f-9c974a0fc7e2"
                  },
                  {
                    "reference": "urn:uuid:49113486-42db-4d14-831e-c04bee9f8b24"
                  },
                  {
                    "reference": "urn:uuid:d376082a-7946-48f8-97f7-2c4012306529"
                  },
                  {
                    "reference": "urn:uuid:44649bd1-f8da-4239-a41d-d5b82e0dc64f"
                  },
                  {
                    "reference": "urn:uuid:2a8fe019-93a0-4f3d-be56-c9b795f916db"
                  }
                ],
                "text": {
                  "status": "generated",
                  "div": "<div xmlns=\"http://www.w3.org/1999/xhtml\"><h3>Chemistry</h3><table class=\"hl7__eu__lab__report\"><thead><tr><th>Test</th><th>12-AUG-2023</th><th>Reference&#xA0;Range</th><th>Unit</th></tr></thead><tbody><tr><td>Hemoglobin A1c/Hemoglobin.total in Blood</td><td>5.9</td><td>4.3 - 6.4</td><td>%</td></tr><tr><td>Glucose [Mass/volume] in Blood</td><td>98.5</td><td>70 - 140</td><td>mg/dL</td></tr><tr><td>Urea nitrogen [Mass/volume] in Blood</td><td>10.4</td><td>7 - 20</td><td>mg/dL</td></tr><tr><td>Creatinine [Mass/volume] in Blood</td><td>1.3</td><td>0.6 - 1.3</td><td>mg/dL</td></tr><tr><td>Calcium [Mass/volume] in Blood</td><td>9.8</td><td>8.5 - 10.5</td><td>mg/dL</td></tr><tr><td>Sodium [Moles/volume] in Blood</td><td>143.1</td><td>135 - 145</td><td>mmol/L</td></tr><tr><td>Potassium [Moles/volume] in Blood</td><td>3.8</td><td>3.5 - 5.3</td><td>mmol/L</td></tr><tr><td>Chloride [Moles/volume] in Blood</td><td>105.1</td><td>98 - 110</td><td>mmol/L</td></tr><tr><td>Carbon dioxide, total [Moles/volume] in Blood</td><td>28.1</td><td>22 - 29</td><td>mmol/L</td></tr></tbody></table></div>"
                },
                "title": "Chemistry"
              }
            ],
            "title": "Laboratory Report"
          },
          {
            "text": {
              "status": "generated",
              "div": "<div xmlns=\"http://www.w3.org/1999/xhtml\"><h3>Annotation</h3><table class=\"hl7__eu__lab__report\"><tr><th>Conclusion and Recommendations based on this report and previous findings known to us</th></tr><tr><td>All measured parameters are within normal limits, except for creatinine, which is at the upper limit of normal. Glycemic control (HbA1c, glucose) is adequate. Renal function and electrolytes are stable, but kidney function should be monitored due to borderline creatinine. No acute abnormalities detected.</td></tr></table></div>"
            },
            "code": {
              "coding": [
                {
                  "system": "http://loinc.org",
                  "code": "48767-8",
                  "display": "Annotation comment"
                }
              ]
            },
            "title": "Annotation comment"
          }
        ],
        "status": "final",
        "subject": {
          "reference": "urn:uuid:a924b839-0ccc-4799-aa15-a07f44c724b6",
          "display": "Andrzej Frydrychowicz"
        },
        "date": "2023-08-12T23:33:04Z",
        "title": "Laboratory Report",
        "confidentiality": "N"
      }
    },
    {
      "fullUrl": "urn:uuid:5a18e8ea-cc23-486c-a694-c14f7fda7ee9",
      "resource": {
        "resourceType": "DiagnosticReport",
        "id": "5a18e8ea-cc23-486c-a694-c14f7fda7ee9",
        "meta": {
          "profile": [
            "http://hl7.eu/fhir/laboratory/StructureDefinition/DiagnosticReport-eu-lab"
          ]
        },
        "identifier": [
          {
            "assigner": {
              "display": "HL7 Europe"
            },
            "system": "urn:oid:2.16.840.1.113883.2.51.999",
            "value": "6f99b993-47bf-40b3-97f3-5411695c82ab"
          }
        ],
        "extension": [
          {
            "url": "http://hl7.org/fhir/5.0/StructureDefinition/extension-DiagnosticReport.composition",
            "valueReference": {
              "reference": "urn:uuid:c3c9dccf-59a8-44b7-80ad-e34f2971b27d"
            }
          }
        ],
        "category": [
          {
            "coding": [
              {
                "code": "26436-6",
                "system": "http://loinc.org",
                "display": "Laboratory studies (set)"
              }
            ]
          }
        ],
        "specimen": [
          {
            "reference": "urn:uuid:1a71f8e9-42a3-4733-9725-106a40dad1ad"
          }
        ],
        "result": [
          {
            "reference": "urn:uuid:ccb04b12-96e0-4b27-9c07-cd522bf8511a"
          },
          {
            "reference": "urn:uuid:965eb51e-3eec-49c3-a59d-6782700fa992"
          },
          {
            "reference": "urn:uuid:b8dc217c-8be9-42cb-b019-c50a6ab77c22"
          },
          {
            "reference": "urn:uuid:6ae3328b-98b0-4ca1-a41f-149824199987"
          },
          {
            "reference": "urn:uuid:f45c0742-e7a8-4d0d-826f-9c974a0fc7e2"
          },
          {
            "reference": "urn:uuid:49113486-42db-4d14-831e-c04bee9f8b24"
          },
          {
            "reference": "urn:uuid:d376082a-7946-48f8-97f7-2c4012306529"
          },
          {
            "reference": "urn:uuid:44649bd1-f8da-4239-a41d-d5b82e0dc64f"
          },
          {
            "reference": "urn:uuid:2a8fe019-93a0-4f3d-be56-c9b795f916db"
          }
        ],
        "status": "registered",
        "code": {
          "coding": [
            {
              "code": "11502-2",
              "system": "http://loinc.org",
              "display": "Laboratory report"
            }
          ]
        },
        "subject": {
          "reference": "urn:uuid:a924b839-0ccc-4799-aa15-a07f44c724b6",
          "display": "Andrzej Frydrychowicz"
        }
      }
    },
    {
      "fullUrl": "urn:uuid:a924b839-0ccc-4799-aa15-a07f44c724b6",
      "resource": {
        "resourceType": "Patient",
        "id": "a924b839-0ccc-4799-aa15-a07f44c724b6",
        "meta": {
          "security": [
            {
              "system": "http://terminology.hl7.org/CodeSystem/v3-ActReason",
              "code": "HTEST"
            },
            {
              "system": "http://terminology.hl7.org/CodeSystem/v3-ActReason",
              "code": "TRAIN"
            }
          ],
          "tag": [
            {
              "system": "https://synderai.net/fhir/CodeSystem/tags",
              "code": "synthetic",
              "display": "SYNDERAI Synthetic data"
            }
          ],
          "profile": [
            "http://hl7.eu/fhir/base/StructureDefinition/patient-eu-core"
          ]
        },
        "identifier": [
          {
            "type": {
              "coding": [
                {
                  "code": "PT",
                  "system": "http://terminology.hl7.org/CodeSystem/v2-0203"
                }
              ]
            },
            "system": "http://ec.europa.eu/identifier/eci",
            "value": "7036-931598-4"
          },
          {
            "type": {
              "coding": [
                {
                  "code": "MR",
                  "system": "http://terminology.hl7.org/CodeSystem/v2-0203"
                }
              ]
            },
            "system": "http://local.setting.eu/identifier",
            "value": "c84bd820-cdcf-9bc1-d9ba-aa083a5eb400"
          }
        ],
        "name": [
          {
            "family": "Frydrychowicz"
          },
          {
            "given": [
              "Andrzej"
            ]
          },
          {
            "text": "Andrzej Frydrychowicz"
          }
        ],
        "address": [
          {
            "line": [
              "aleja Tulipanowa 94"
            ],
            "use": "home",
            "type": "physical",
            "postalCode": "21-040",
            "city": "Świdnik",
            "country": "Poland"
          }
        ],
        "telecom": [
          {
            "system": "phone",
            "value": "516 092 560"
          }
        ],
        "extension": [
          {
            "url": "http://hl7.org/fhir/StructureDefinition/patient-nationality",
            "valueCodeableConcept": {
              "coding": [
                {
                  "code": "PL",
                  "system": "http://hl7.org/fhir/ValueSet/country"
                }
              ]
            }
          }
        ],
        "text": {
          "status": "generated",
          "div": "<div xmlns=\"http://www.w3.org/1999/xhtml\"><table class=\"hl7__ips\"><tr><td>Andrzej Frydrychowicz</td><td>male</td><td>12-Apr-1974</td></tr></table></div>"
        },
        "gender": "male",
        "birthDate": "1974-04-12"
      }
    },
    {
      "fullUrl": "urn:uuid:3fe9c69b-61f5-467b-92c5-e7c7a2ca053d",
      "resource": {
        "resourceType": "ServiceRequest",
        "id": "3fe9c69b-61f5-467b-92c5-e7c7a2ca053d",
        "meta": {
          "profile": [
            "http://hl7.eu/fhir/laboratory/StructureDefinition/ServiceRequest-eu-lab"
          ]
        },
        "identifier": [
          {
            "system": "http://example.org",
            "value": "757e4728-9304-4b77-94db-caa113c05042"
          }
        ],
        "specimen": [
          {
            "reference": "urn:uuid:1a71f8e9-42a3-4733-9725-106a40dad1ad"
          }
        ],
        "reasonCode": [
          {
            "coding": [
              {
                "code": "414545008",
                "system": "http://snomed.info/sct",
                "display": "Ischemic heart disease"
              }
            ]
          },
          {
            "coding": [
              {
                "code": "239873007",
                "system": "http://snomed.info/sct",
                "display": "Osteoarthritis of knee"
              }
            ]
          },
          {
            "coding": [
              {
                "code": "15777000",
                "system": "http://snomed.info/sct",
                "display": "Prediabetes"
              }
            ]
          },
          {
            "coding": [
              {
                "code": "271737000",
                "system": "http://snomed.info/sct",
                "display": "Anemia"
              }
            ]
          }
        ],
        "status": "active",
        "intent": "order",
        "code": {
          "coding": [
            {
              "code": "108252007",
              "system": "http://snomed.info/sct",
              "display": "Laboratory procedure"
            }
          ]
        },
        "subject": {
          "reference": "urn:uuid:a924b839-0ccc-4799-aa15-a07f44c724b6",
          "display": "Andrzej Frydrychowicz"
        },
        "requester": {
          "reference": "urn:uuid:fdce40d7-8e2d-465c-b0f9-54de5df33fa4"
        }
      }
    },
    {
      "fullUrl": "urn:uuid:fdce40d7-8e2d-465c-b0f9-54de5df33fa4",
      "resource": {
        "resourceType": "PractitionerRole",
        "id": "fdce40d7-8e2d-465c-b0f9-54de5df33fa4",
        "meta": {
          "profile": [
            "http://hl7.eu/fhir/base/StructureDefinition/practitionerRole-eu"
          ]
        },
        "text": {
          "status": "generated",
          "div": "<div xmlns=\"http://www.w3.org/1999/xhtml\">Provider Role Id: fdce40d7-8e2d-465c-b0f9-54de5df33fa4</div>"
        },
        "organization": {
          "reference": "urn:uuid:4eaf3c29-ed4c-4899-8398-d8bcde073614"
        }
      }
    },
    {
      "fullUrl": "urn:uuid:4eaf3c29-ed4c-4899-8398-d8bcde073614",
      "resource": {
        "resourceType": "Organization",
        "id": "4eaf3c29-ed4c-4899-8398-d8bcde073614",
        "meta": {
          "profile": [
            "http://hl7.eu/fhir/base/StructureDefinition/organization-eu"
          ]
        },
        "identifier": [
          {
            "assigner": {
              "display": "HL7 Europe"
            },
            "system": "urn:oid:2.16.840.1.113883.2.51.999",
            "value": "226bae04-edbc-4582-8766-41c63963c54b"
          }
        ],
        "address": [
          {
            "line": [
              "Aleja Lotników Polskich 82"
            ],
            "city": "Świdnik",
            "postalCode": "21-040",
            "country": "Poland"
          }
        ],
        "text": {
          "status": "generated",
          "div": "<div xmlns=\"http://www.w3.org/1999/xhtml\">Provider Organization: Lubelskie Centrum Diagnostyczne</div>"
        },
        "name": "Lubelskie Centrum Diagnostyczne"
      }
    },
    {
      "fullUrl": "urn:uuid:1a71f8e9-42a3-4733-9725-106a40dad1ad",
      "resource": {
        "resourceType": "Specimen",
        "id": "1a71f8e9-42a3-4733-9725-106a40dad1ad",
        "meta": {
          "profile": [
            "http://hl7.eu/fhir/laboratory/StructureDefinition/Specimen-eu-lab"
          ]
        },
        "collection": {
          "collectedDateTime": "2023-08-12"
        },
        "text": {
          "status": "generated",
          "div": "<div xmlns=\"http://www.w3.org/1999/xhtml\"><table class=\"hl7__eu__lab__report\"><tr><th>Specimen</th><th>Collection Date</th></tr><tr><td>Whole blood specimen (specimen)</td><td><span class=\"nb\">12-Aug-2023</span></td></tr></table></div>"
        },
        "type": {
          "coding": [
            {
              "code": "258580003",
              "system": "http://snomed.info/sct",
              "display": "Whole blood specimen (specimen)"
            }
          ]
        }
      }
    },
    {
      "fullUrl": "urn:uuid:ccb04b12-96e0-4b27-9c07-cd522bf8511a",
      "resource": {
        "resourceType": "Observation",
        "id": "ccb04b12-96e0-4b27-9c07-cd522bf8511a",
        "meta": {
          "profile": [
            "http://hl7.eu/fhir/laboratory/StructureDefinition/Observation-resultslab-eu-lab"
          ]
        },
        "performer": [
          {
            "display": "The Central European Lab"
          }
        ],
        "category": [
          {
            "coding": [
              {
                "system": "http://terminology.hl7.org/CodeSystem/observation-category",
                "code": "laboratory"
              }
            ]
          }
        ],
        "code": {
          "coding": [
            {
              "code": "4548-4",
              "system": "http://loinc.org",
              "display": "Hemoglobin A1c/Hemoglobin.total in Blood"
            }
          ],
          "text": "Hemoglobin A1c/Hemoglobin.total in Blood"
        },
        "valueQuantity": {
          "system": "http://unitsofmeasure.org",
          "value": 5.9,
          "unit": "%",
          "code": "%"
        },
        "referenceRange": [
          {
            "low": {
              "value": 4.3,
              "code": "%",
              "system": "http://unitsofmeasure.org"
            }
          },
          {
            "high": {
              "value": 6.4,
              "code": "%",
              "system": "http://unitsofmeasure.org"
            }
          }
        ],
        "text": {
          "status": "generated",
          "div": "<div xmlns=\"http://www.w3.org/1999/xhtml\"><table class=\"hl7__eu__lab__report\"><tr><th>Test</th><th>12-Aug-2023</th><th>Reference&#xA0;Range</th><th>Unit</th></tr><tr><td>Hemoglobin A1c/Hemoglobin.total in Blood</td><td>5.9</td><td>4.3 - 6.4</td><td></td><td>%</td></tr></table></div>"
        },
        "status": "final",
        "subject": {
          "reference": "urn:uuid:a924b839-0ccc-4799-aa15-a07f44c724b6",
          "display": "Andrzej Frydrychowicz"
        },
        "effectiveDateTime": "2023-08-12T21:33:04Z",
        "specimen": {
          "reference": "urn:uuid:1a71f8e9-42a3-4733-9725-106a40dad1ad"
        }
      }
    },
    {
      "fullUrl": "urn:uuid:965eb51e-3eec-49c3-a59d-6782700fa992",
      "resource": {
        "resourceType": "Observation",
        "id": "965eb51e-3eec-49c3-a59d-6782700fa992",
        "meta": {
          "profile": [
            "http://hl7.eu/fhir/laboratory/StructureDefinition/Observation-resultslab-eu-lab"
          ]
        },
        "performer": [
          {
            "display": "The Central European Lab"
          }
        ],
        "category": [
          {
            "coding": [
              {
                "system": "http://terminology.hl7.org/CodeSystem/observation-category",
                "code": "laboratory"
              }
            ]
          }
        ],
        "code": {
          "coding": [
            {
              "code": "2339-0",
              "system": "http://loinc.org",
              "display": "Glucose [Mass/volume] in Blood"
            }
          ],
          "text": "Glucose [Mass/volume] in Blood"
        },
        "valueQuantity": {
          "system": "http://unitsofmeasure.org",
          "value": 98.5,
          "unit": "mg/dL",
          "code": "mg/dL"
        },
        "referenceRange": [
          {
            "low": {
              "value": 70,
              "code": "mg/dL",
              "system": "http://unitsofmeasure.org"
            }
          },
          {
            "high": {
              "value": 140,
              "code": "mg/dL",
              "system": "http://unitsofmeasure.org"
            }
          }
        ],
        "text": {
          "status": "generated",
          "div": "<div xmlns=\"http://www.w3.org/1999/xhtml\"><table class=\"hl7__eu__lab__report\"><tr><th>Test</th><th>12-Aug-2023</th><th>Reference&#xA0;Range</th><th>Unit</th></tr><tr><td>Glucose [Mass/volume] in Blood</td><td>98.5</td><td>70 - 140</td><td></td><td>mg/dL</td></tr></table></div>"
        },
        "status": "final",
        "subject": {
          "reference": "urn:uuid:a924b839-0ccc-4799-aa15-a07f44c724b6",
          "display": "Andrzej Frydrychowicz"
        },
        "effectiveDateTime": "2023-08-12T21:33:04Z",
        "specimen": {
          "reference": "urn:uuid:1a71f8e9-42a3-4733-9725-106a40dad1ad"
        }
      }
    },
    {
      "fullUrl": "urn:uuid:b8dc217c-8be9-42cb-b019-c50a6ab77c22",
      "resource": {
        "resourceType": "Observation",
        "id": "b8dc217c-8be9-42cb-b019-c50a6ab77c22",
        "meta": {
          "profile": [
            "http://hl7.eu/fhir/laboratory/StructureDefinition/Observation-resultslab-eu-lab"
          ]
        },
        "performer": [
          {
            "display": "The Central European Lab"
          }
        ],
        "category": [
          {
            "coding": [
              {
                "system": "http://terminology.hl7.org/CodeSystem/observation-category",
                "code": "laboratory"
              }
            ]
          }
        ],
        "code": {
          "coding": [
            {
              "code": "6299-2",
              "system": "http://loinc.org",
              "display": "Urea nitrogen [Mass/volume] in Blood"
            }
          ],
          "text": "Urea nitrogen [Mass/volume] in Blood"
        },
        "valueQuantity": {
          "system": "http://unitsofmeasure.org",
          "value": 10.4,
          "unit": "mg/dL",
          "code": "mg/dL"
        },
        "referenceRange": [
          {
            "low": {
              "value": 7,
              "code": "mg/dL",
              "system": "http://unitsofmeasure.org"
            }
          },
          {
            "high": {
              "value": 20,
              "code": "mg/dL",
              "system": "http://unitsofmeasure.org"
            }
          }
        ],
        "text": {
          "status": "generated",
          "div": "<div xmlns=\"http://www.w3.org/1999/xhtml\"><table class=\"hl7__eu__lab__report\"><tr><th>Test</th><th>12-Aug-2023</th><th>Reference&#xA0;Range</th><th>Unit</th></tr><tr><td>Urea nitrogen [Mass/volume] in Blood</td><td>10.4</td><td>7 - 20</td><td></td><td>mg/dL</td></tr></table></div>"
        },
        "status": "final",
        "subject": {
          "reference": "urn:uuid:a924b839-0ccc-4799-aa15-a07f44c724b6",
          "display": "Andrzej Frydrychowicz"
        },
        "effectiveDateTime": "2023-08-12T21:33:04Z",
        "specimen": {
          "reference": "urn:uuid:1a71f8e9-42a3-4733-9725-106a40dad1ad"
        }
      }
    },
    {
      "fullUrl": "urn:uuid:6ae3328b-98b0-4ca1-a41f-149824199987",
      "resource": {
        "resourceType": "Observation",
        "id": "6ae3328b-98b0-4ca1-a41f-149824199987",
        "meta": {
          "profile": [
            "http://hl7.eu/fhir/laboratory/StructureDefinition/Observation-resultslab-eu-lab"
          ]
        },
        "performer": [
          {
            "display": "The Central European Lab"
          }
        ],
        "category": [
          {
            "coding": [
              {
                "system": "http://terminology.hl7.org/CodeSystem/observation-category",
                "code": "laboratory"
              }
            ]
          }
        ],
        "code": {
          "coding": [
            {
              "code": "38483-4",
              "system": "http://loinc.org",
              "display": "Creatinine [Mass/volume] in Blood"
            }
          ],
          "text": "Creatinine [Mass/volume] in Blood"
        },
        "valueQuantity": {
          "system": "http://unitsofmeasure.org",
          "value": 1.3,
          "unit": "mg/dL",
          "code": "mg/dL"
        },
        "referenceRange": [
          {
            "low": {
              "value": 0.6,
              "code": "mg/dL",
              "system": "http://unitsofmeasure.org"
            }
          },
          {
            "high": {
              "value": 1.3,
              "code": "mg/dL",
              "system": "http://unitsofmeasure.org"
            }
          }
        ],
        "text": {
          "status": "generated",
          "div": "<div xmlns=\"http://www.w3.org/1999/xhtml\"><table class=\"hl7__eu__lab__report\"><tr><th>Test</th><th>12-Aug-2023</th><th>Reference&#xA0;Range</th><th>Unit</th></tr><tr><td>Creatinine [Mass/volume] in Blood</td><td>1.3</td><td>0.6 - 1.3</td><td></td><td>mg/dL</td></tr></table></div>"
        },
        "status": "final",
        "subject": {
          "reference": "urn:uuid:a924b839-0ccc-4799-aa15-a07f44c724b6",
          "display": "Andrzej Frydrychowicz"
        },
        "effectiveDateTime": "2023-08-12T21:33:04Z",
        "specimen": {
          "reference": "urn:uuid:1a71f8e9-42a3-4733-9725-106a40dad1ad"
        }
      }
    },
    {
      "fullUrl": "urn:uuid:f45c0742-e7a8-4d0d-826f-9c974a0fc7e2",
      "resource": {
        "resourceType": "Observation",
        "id": "f45c0742-e7a8-4d0d-826f-9c974a0fc7e2",
        "meta": {
          "profile": [
            "http://hl7.eu/fhir/laboratory/StructureDefinition/Observation-resultslab-eu-lab"
          ]
        },
        "performer": [
          {
            "display": "The Central European Lab"
          }
        ],
        "category": [
          {
            "coding": [
              {
                "system": "http://terminology.hl7.org/CodeSystem/observation-category",
                "code": "laboratory"
              }
            ]
          }
        ],
        "code": {
          "coding": [
            {
              "code": "49765-1",
              "system": "http://loinc.org",
              "display": "Calcium [Mass/volume] in Blood"
            }
          ],
          "text": "Calcium [Mass/volume] in Blood"
        },
        "valueQuantity": {
          "system": "http://unitsofmeasure.org",
          "value": 9.8,
          "unit": "mg/dL",
          "code": "mg/dL"
        },
        "referenceRange": [
          {
            "low": {
              "value": 8.5,
              "code": "mg/dL",
              "system": "http://unitsofmeasure.org"
            }
          },
          {
            "high": {
              "value": 10.5,
              "code": "mg/dL",
              "system": "http://unitsofmeasure.org"
            }
          }
        ],
        "text": {
          "status": "generated",
          "div": "<div xmlns=\"http://www.w3.org/1999/xhtml\"><table class=\"hl7__eu__lab__report\"><tr><th>Test</th><th>12-Aug-2023</th><th>Reference&#xA0;Range</th><th>Unit</th></tr><tr><td>Calcium [Mass/volume] in Blood</td><td>9.8</td><td>8.5 - 10.5</td><td></td><td>mg/dL</td></tr></table></div>"
        },
        "status": "final",
        "subject": {
          "reference": "urn:uuid:a924b839-0ccc-4799-aa15-a07f44c724b6",
          "display": "Andrzej Frydrychowicz"
        },
        "effectiveDateTime": "2023-08-12T21:33:04Z",
        "specimen": {
          "reference": "urn:uuid:1a71f8e9-42a3-4733-9725-106a40dad1ad"
        }
      }
    },
    {
      "fullUrl": "urn:uuid:49113486-42db-4d14-831e-c04bee9f8b24",
      "resource": {
        "resourceType": "Observation",
        "id": "49113486-42db-4d14-831e-c04bee9f8b24",
        "meta": {
          "profile": [
            "http://hl7.eu/fhir/laboratory/StructureDefinition/Observation-resultslab-eu-lab"
          ]
        },
        "performer": [
          {
            "display": "The Central European Lab"
          }
        ],
        "category": [
          {
            "coding": [
              {
                "system": "http://terminology.hl7.org/CodeSystem/observation-category",
                "code": "laboratory"
              }
            ]
          }
        ],
        "code": {
          "coding": [
            {
              "code": "2947-0",
              "system": "http://loinc.org",
              "display": "Sodium [Moles/volume] in Blood"
            }
          ],
          "text": "Sodium [Moles/volume] in Blood"
        },
        "valueQuantity": {
          "system": "http://unitsofmeasure.org",
          "value": 143.1,
          "unit": "mmol/L",
          "code": "mmol/L"
        },
        "referenceRange": [
          {
            "low": {
              "value": 135,
              "code": "mmol/L",
              "system": "http://unitsofmeasure.org"
            }
          },
          {
            "high": {
              "value": 145,
              "code": "mmol/L",
              "system": "http://unitsofmeasure.org"
            }
          }
        ],
        "text": {
          "status": "generated",
          "div": "<div xmlns=\"http://www.w3.org/1999/xhtml\"><table class=\"hl7__eu__lab__report\"><tr><th>Test</th><th>12-Aug-2023</th><th>Reference&#xA0;Range</th><th>Unit</th></tr><tr><td>Sodium [Moles/volume] in Blood</td><td>143.1</td><td>135 - 145</td><td></td><td>mmol/L</td></tr></table></div>"
        },
        "status": "final",
        "subject": {
          "reference": "urn:uuid:a924b839-0ccc-4799-aa15-a07f44c724b6",
          "display": "Andrzej Frydrychowicz"
        },
        "effectiveDateTime": "2023-08-12T21:33:04Z",
        "specimen": {
          "reference": "urn:uuid:1a71f8e9-42a3-4733-9725-106a40dad1ad"
        }
      }
    },
    {
      "fullUrl": "urn:uuid:d376082a-7946-48f8-97f7-2c4012306529",
      "resource": {
        "resourceType": "Observation",
        "id": "d376082a-7946-48f8-97f7-2c4012306529",
        "meta": {
          "profile": [
            "http://hl7.eu/fhir/laboratory/StructureDefinition/Observation-resultslab-eu-lab"
          ]
        },
        "performer": [
          {
            "display": "The Central European Lab"
          }
        ],
        "category": [
          {
            "coding": [
              {
                "system": "http://terminology.hl7.org/CodeSystem/observation-category",
                "code": "laboratory"
              }
            ]
          }
        ],
        "code": {
          "coding": [
            {
              "code": "6298-4",
              "system": "http://loinc.org",
              "display": "Potassium [Moles/volume] in Blood"
            }
          ],
          "text": "Potassium [Moles/volume] in Blood"
        },
        "valueQuantity": {
          "system": "http://unitsofmeasure.org",
          "value": 3.8,
          "unit": "mmol/L",
          "code": "mmol/L"
        },
        "referenceRange": [
          {
            "low": {
              "value": 3.5,
              "code": "mmol/L",
              "system": "http://unitsofmeasure.org"
            }
          },
          {
            "high": {
              "value": 5.3,
              "code": "mmol/L",
              "system": "http://unitsofmeasure.org"
            }
          }
        ],
        "text": {
          "status": "generated",
          "div": "<div xmlns=\"http://www.w3.org/1999/xhtml\"><table class=\"hl7__eu__lab__report\"><tr><th>Test</th><th>12-Aug-2023</th><th>Reference&#xA0;Range</th><th>Unit</th></tr><tr><td>Potassium [Moles/volume] in Blood</td><td>3.8</td><td>3.5 - 5.3</td><td></td><td>mmol/L</td></tr></table></div>"
        },
        "status": "final",
        "subject": {
          "reference": "urn:uuid:a924b839-0ccc-4799-aa15-a07f44c724b6",
          "display": "Andrzej Frydrychowicz"
        },
        "effectiveDateTime": "2023-08-12T21:33:04Z",
        "specimen": {
          "reference": "urn:uuid:1a71f8e9-42a3-4733-9725-106a40dad1ad"
        }
      }
    },
    {
      "fullUrl": "urn:uuid:44649bd1-f8da-4239-a41d-d5b82e0dc64f",
      "resource": {
        "resourceType": "Observation",
        "id": "44649bd1-f8da-4239-a41d-d5b82e0dc64f",
        "meta": {
          "profile": [
            "http://hl7.eu/fhir/laboratory/StructureDefinition/Observation-resultslab-eu-lab"
          ]
        },
        "performer": [
          {
            "display": "The Central European Lab"
          }
        ],
        "category": [
          {
            "coding": [
              {
                "system": "http://terminology.hl7.org/CodeSystem/observation-category",
                "code": "laboratory"
              }
            ]
          }
        ],
        "code": {
          "coding": [
            {
              "code": "2069-3",
              "system": "http://loinc.org",
              "display": "Chloride [Moles/volume] in Blood"
            }
          ],
          "text": "Chloride [Moles/volume] in Blood"
        },
        "valueQuantity": {
          "system": "http://unitsofmeasure.org",
          "value": 105.1,
          "unit": "mmol/L",
          "code": "mmol/L"
        },
        "referenceRange": [
          {
            "low": {
              "value": 98,
              "code": "mmol/L",
              "system": "http://unitsofmeasure.org"
            }
          },
          {
            "high": {
              "value": 110,
              "code": "mmol/L",
              "system": "http://unitsofmeasure.org"
            }
          }
        ],
        "text": {
          "status": "generated",
          "div": "<div xmlns=\"http://www.w3.org/1999/xhtml\"><table class=\"hl7__eu__lab__report\"><tr><th>Test</th><th>12-Aug-2023</th><th>Reference&#xA0;Range</th><th>Unit</th></tr><tr><td>Chloride [Moles/volume] in Blood</td><td>105.1</td><td>98 - 110</td><td></td><td>mmol/L</td></tr></table></div>"
        },
        "status": "final",
        "subject": {
          "reference": "urn:uuid:a924b839-0ccc-4799-aa15-a07f44c724b6",
          "display": "Andrzej Frydrychowicz"
        },
        "effectiveDateTime": "2023-08-12T21:33:04Z",
        "specimen": {
          "reference": "urn:uuid:1a71f8e9-42a3-4733-9725-106a40dad1ad"
        }
      }
    },
    {
      "fullUrl": "urn:uuid:2a8fe019-93a0-4f3d-be56-c9b795f916db",
      "resource": {
        "resourceType": "Observation",
        "id": "2a8fe019-93a0-4f3d-be56-c9b795f916db",
        "meta": {
          "profile": [
            "http://hl7.eu/fhir/laboratory/StructureDefinition/Observation-resultslab-eu-lab"
          ]
        },
        "performer": [
          {
            "display": "The Central European Lab"
          }
        ],
        "category": [
          {
            "coding": [
              {
                "system": "http://terminology.hl7.org/CodeSystem/observation-category",
                "code": "laboratory"
              }
            ]
          }
        ],
        "code": {
          "coding": [
            {
              "code": "20565-8",
              "system": "http://loinc.org",
              "display": "Carbon dioxide, total [Moles/volume] in Blood"
            }
          ],
          "text": "Carbon dioxide, total [Moles/volume] in Blood"
        },
        "valueQuantity": {
          "system": "http://unitsofmeasure.org",
          "value": 28.1,
          "unit": "mmol/L",
          "code": "mmol/L"
        },
        "referenceRange": [
          {
            "low": {
              "value": 22,
              "code": "mmol/L",
              "system": "http://unitsofmeasure.org"
            }
          },
          {
            "high": {
              "value": 29,
              "code": "mmol/L",
              "system": "http://unitsofmeasure.org"
            }
          }
        ],
        "text": {
          "status": "generated",
          "div": "<div xmlns=\"http://www.w3.org/1999/xhtml\"><table class=\"hl7__eu__lab__report\"><tr><th>Test</th><th>12-Aug-2023</th><th>Reference&#xA0;Range</th><th>Unit</th></tr><tr><td>Carbon dioxide, total [Moles/volume] in Blood</td><td>28.1</td><td>22 - 29</td><td></td><td>mmol/L</td></tr></table></div>"
        },
        "status": "final",
        "subject": {
          "reference": "urn:uuid:a924b839-0ccc-4799-aa15-a07f44c724b6",
          "display": "Andrzej Frydrychowicz"
        },
        "effectiveDateTime": "2023-08-12T21:33:04Z",
        "specimen": {
          "reference": "urn:uuid:1a71f8e9-42a3-4733-9725-106a40dad1ad"
        }
      }
    },
    {
      "fullUrl": "urn:uuid:67beb8f0-c137-45d9-a468-408d7080d6cf",
      "resource": {
        "resourceType": "Device",
        "id": "67beb8f0-c137-45d9-a468-408d7080d6cf",
        "deviceName": [
          {
            "name": "SYNDERAI Synthetic Generator",
            "type": "manufacturer-name"
          }
        ],
        "version": [
          {
            "value": "5.0"
          }
        ],
        "text": {
          "status": "generated",
          "div": "<div xmlns=\"http://www.w3.org/1999/xhtml\">SYNDERAI Synthetic Generator v5.0</div>"
        },
        "status": "active\"",
        "distinctIdentifier": "synderai-generator-50",
        "manufacturer": "SYNDERAI Project"
      }
    },
    {
      "fullUrl": "urn:uuid:7aa71108-0700-4fec-8527-f263c0b96232",
      "resource": {
        "resourceType": "Provenance",
        "id": "7aa71108-0700-4fec-8527-f263c0b96232",
        "target": [
          {
            "reference": "Patient/a924b839-0ccc-4799-aa15-a07f44c724b6"
          },
          {
            "reference": "Bundle/0cc56e2d-0b27-4ad1-bb3d-7694503102bc"
          },
          {
            "reference": "Composition/94d35264-200d-4a9b-9452-71deaaeede91"
          },
          {
            "reference": "PractitionerRole/9fca34d0-6e77-47f4-a8a8-f4e32ea5ee23"
          },
          {
            "reference": "Practitioner/f60d2a5a-75fe-4650-b28b-e5beebbac964"
          },
          {
            "reference": "PractitionerRole/fdce40d7-8e2d-465c-b0f9-54de5df33fa4"
          },
          {
            "reference": "Organization/4eaf3c29-ed4c-4899-8398-d8bcde073614"
          }
        ],
        "activity": {
          "text": "Synthetic Example Data Generation"
        },
        "policy": [
          "https://synderai.net/synderai-synthetic-data-policy"
        ],
        "agent": [
          {
            "type": {
              "text": "author"
            },
            "who": {
              "reference": "Device/67beb8f0-c137-45d9-a468-408d7080d6cf"
            }
          }
        ],
        "reason": [
          {
            "text": "Interoperability Testing and Training (non-clinical use)"
          }
        ],
        "text": {
          "status": "generated",
          "div": "<div xmlns=\"http://www.w3.org/1999/xhtml\">Provenance for SYNDERAI Synthetic Example Data Resource</div>"
        },
        "recorded": "2023-08-12T23:33:04Z"
      }
    },
    {
      "fullUrl": "urn:uuid:9fca34d0-6e77-47f4-a8a8-f4e32ea5ee23",
      "resource": {
        "resourceType": "PractitionerRole",
        "id": "9fca34d0-6e77-47f4-a8a8-f4e32ea5ee23",
        "meta": {
          "profile": [
            "http://hl7.eu/fhir/base/StructureDefinition/practitionerRole-eu"
          ]
        },
        "text": {
          "status": "generated",
          "div": "<div xmlns=\"http://www.w3.org/1999/xhtml\">Laboratory Role Id: 9fca34d0-6e77-47f4-a8a8-f4e32ea5ee23</div>"
        },
        "practitioner": {
          "reference": "urn:uuid:f60d2a5a-75fe-4650-b28b-e5beebbac964"
        }
      }
    },
    {
      "fullUrl": "urn:uuid:f60d2a5a-75fe-4650-b28b-e5beebbac964",
      "resource": {
        "resourceType": "Practitioner",
        "id": "f60d2a5a-75fe-4650-b28b-e5beebbac964",
        "meta": {
          "profile": [
            "http://hl7.eu/fhir/base/StructureDefinition/practitioner-eu"
          ]
        },
        "identifier": [
          {
            "assigner": {
              "display": "HL7 Europe"
            },
            "system": "urn:oid:2.16.840.1.113883.2.51.999",
            "value": "1dd8e339-e9c4-4dee-8440-c946a4627e98"
          }
        ],
        "name": [
          {
            "prefix": [
              "dr"
            ],
            "given": [
              "Ex"
            ],
            "family": "Ample"
          }
        ],
        "address": [
          {
            "line": [
              "Laboratoire Central Européenne",
              "Boulevard du Jardin Botanique 32"
            ],
            "postalCode": "1000",
            "city": "Brussels",
            "country": "Belgium"
          }
        ],
        "text": {
          "status": "generated",
          "div": "<div xmlns=\"http://www.w3.org/1999/xhtml\">Laboratory: Laboratoire Central Européenne, 1000 Brussels, Belgium</div>"
        }
      }
    }
  ],
  "type": "document",
  "timestamp": "2023-08-12T23:33:04Z"
}
