{
  "resourceType": "Bundle",
  "id": "3e68af85-e8bc-4694-9a1f-d3b663a4e41c",
  "meta": {
    "profile": [
      "http://hl7.eu/fhir/laboratory/StructureDefinition/Bundle-eu-lab"
    ]
  },
  "identifier": {
    "assigner": {
      "display": "HL7 Europe"
    },
    "system": "urn:oid:2.16.840.1.113883.2.51.999",
    "value": "bb48d8dc-ec59-4b3a-9b1f-da17749d3445"
  },
  "entry": [
    {
      "fullUrl": "urn:uuid:25055c1d-e06c-46b8-a663-3145497acfe9",
      "resource": {
        "resourceType": "Composition",
        "id": "25055c1d-e06c-46b8-a663-3145497acfe9",
        "meta": {
          "profile": [
            "http://hl7.eu/fhir/laboratory/StructureDefinition/Composition-eu-lab"
          ]
        },
        "identifier": {
          "assigner": {
            "display": "HL7 Europe"
          },
          "system": "urn:oid:2.16.840.1.113883.2.51.999",
          "value": "85d8a039-bbf2-4036-93d8-2c63317eed0d"
        },
        "author": [
          {
            "reference": "urn:uuid:ea4b3e3e-ede0-47d6-a02d-9bc2a326b138"
          }
        ],
        "category": [
          {
            "coding": [
              {
                "code": "26436-6",
                "system": "http://loinc.org",
                "display": "Laboratory studies (set)"
              }
            ]
          }
        ],
        "type": {
          "coding": [
            {
              "code": "11502-2",
              "system": "http://loinc.org",
              "display": "Laboratory report"
            }
          ],
          "text": "Laboratory Report"
        },
        "section": [
          {
            "code": {
              "coding": [
                {
                  "code": "26436-6",
                  "system": "http://loinc.org",
                  "display": "Laboratory studies (set)"
                }
              ],
              "text": "Laboratory studies"
            },
            "section": [
              {
                "code": {
                  "coding": [
                    {
                      "code": "$18719-5",
                      "system": "http://loinc.org",
                      "display": "Chemistry studies (set)"
                    }
                  ],
                  "text": "Chemistry"
                },
                "entry": [
                  {
                    "reference": "urn:uuid:09ef07ed-658e-43e8-a7e6-3ce5ddb49d39"
                  },
                  {
                    "reference": "urn:uuid:cb649b3c-34b8-475a-ae95-95fd720d6da2"
                  },
                  {
                    "reference": "urn:uuid:2c404a6f-2d17-48ff-89dd-2758b0e0ca5b"
                  },
                  {
                    "reference": "urn:uuid:84ee6b8c-f65d-41e6-8635-7f9967f87eff"
                  },
                  {
                    "reference": "urn:uuid:005d6060-6cff-4a06-923f-a9ba3b0eef3c"
                  },
                  {
                    "reference": "urn:uuid:e000ff36-7594-44dc-989a-a44142de0e3e"
                  },
                  {
                    "reference": "urn:uuid:999b14d1-4100-49e9-a33e-046f572ebdbc"
                  },
                  {
                    "reference": "urn:uuid:5cae2c92-c64a-4443-b044-d3daec1881e7"
                  },
                  {
                    "reference": "urn:uuid:a7473df5-2cd8-4bd2-95b4-e569b1885090"
                  },
                  {
                    "reference": "urn:uuid:ba7c07bc-0d31-4690-aca4-4c98e788228f"
                  },
                  {
                    "reference": "urn:uuid:48656730-7d26-416c-8dc0-383e23a8023d"
                  },
                  {
                    "reference": "urn:uuid:6682deb9-2de8-457c-ad47-35ab20894a34"
                  },
                  {
                    "reference": "urn:uuid:19613c57-ea5f-4b9a-8d22-0b8d5abb5306"
                  },
                  {
                    "reference": "urn:uuid:b9f21e81-a9dc-43d6-bcb0-d9941c3e9b0d"
                  },
                  {
                    "reference": "urn:uuid:99a05529-4e27-4691-b82a-de9f1f04e866"
                  },
                  {
                    "reference": "urn:uuid:6edc1286-581a-4c72-9266-ecfa7f926a12"
                  },
                  {
                    "reference": "urn:uuid:e502de0e-0ff5-48fc-8459-ad401890ceb3"
                  },
                  {
                    "reference": "urn:uuid:7e338f5d-0743-4ce1-82b2-0c5abdaef341"
                  },
                  {
                    "reference": "urn:uuid:0adbfadc-b39d-493a-941b-58c15d25b4aa"
                  }
                ],
                "text": {
                  "status": "generated",
                  "div": "<div xmlns=\"http://www.w3.org/1999/xhtml\"><h3>Chemistry</h3><table class=\"hl7__eu__lab__report\"><thead><tr><th>Test</th><th>16-JUN-2024</th><th>Reference&#xA0;Range</th><th>Unit</th></tr></thead><tbody><tr><td>Glucose [Mass/volume] in Blood</td><td>82.9</td><td>70 - 140</td><td>mg/dL</td></tr><tr><td>Urea nitrogen [Mass/volume] in Blood</td><td>11.0</td><td>7 - 20</td><td>mg/dL</td></tr><tr><td>Creatinine [Mass/volume] in Blood</td><td><strong>2.5 H</strong></td><td>0.6 - 1.3</td><td>mg/dL</td></tr><tr><td>Calcium [Mass/volume] in Blood</td><td>8.5</td><td>8.5 - 10.5</td><td>mg/dL</td></tr><tr><td>Sodium [Moles/volume] in Blood</td><td>142.5</td><td>135 - 145</td><td>mmol/L</td></tr><tr><td>Potassium [Moles/volume] in Blood</td><td>4.5</td><td>3.6 - 5.1</td><td>mmol/L</td></tr><tr><td>Chloride [Moles/volume] in Blood</td><td><strong>107.8 H</strong></td><td>98 - 107</td><td>mmol/L</td></tr><tr><td>Carbon dioxide, total [Moles/volume] in Blood</td><td><strong>21.9 L</strong></td><td>22 - 32</td><td>mmol/L</td></tr><tr><td>Protein [Mass/volume] in Serum or Plasma</td><td>7.0</td><td>6 - 8.3</td><td>g/dL</td></tr><tr><td>Albumin [Mass/volume] in Serum or Plasma</td><td>4.3</td><td>3.5 - 5</td><td>g/dL</td></tr><tr><td>Globulin [Mass/volume] in Serum by calculation</td><td>3.3</td><td>2 - 3.9</td><td>g/L</td></tr><tr><td>Bilirubin.total [Mass/volume] in Serum or Plasma</td><td>1.2</td><td>0.3 - 1.2</td><td>mg/dL</td></tr><tr><td>Alkaline phosphatase [Enzymatic activity/volume] in Serum or Plasma</td><td>93.2</td><td>32 - 150</td><td>U/L</td></tr><tr><td>Alanine aminotransferase [Enzymatic activity/volume] in Serum or Plasma</td><td>31.6</td><td>13 - 32</td><td>U/L</td></tr><tr><td>Aspartate aminotransferase [Enzymatic activity/volume] in Serum or Plasma</td><td>39.8</td><td>10 - 40</td><td>U/L</td></tr><tr><td>Cholesterol [Mass/volume] in Serum or Plasma</td><td><strong>204.2 H</strong></td><td>130 - 200</td><td>mg/dL</td></tr><tr><td>Triglyceride [Mass/volume] in Serum or Plasma</td><td>145.7</td><td>0 - 199</td><td>mg/dL</td></tr><tr><td>Cholesterol in LDL [Mass/volume] in Serum or Plasma by Direct assay</td><td>126.7</td><td>0 - 130</td><td>mg/dL</td></tr><tr><td>Cholesterol in HDL [Mass/volume] in Serum or Plasma</td><td>55.2</td><td>50 - 100</td><td>mg/dL</td></tr></tbody></table></div>"
                },
                "title": "Chemistry"
              }
            ],
            "title": "Laboratory Report"
          },
          {
            "text": {
              "status": "generated",
              "div": "<div xmlns=\"http://www.w3.org/1999/xhtml\"><h3>Annotation</h3><table class=\"hl7__eu__lab__report\"><tr><th>Conclusion and Recommendations based on this report and previous findings known to us</th></tr><tr><td>The patient shows elevated creatinine, suggesting impaired renal function, and mild hyperchloremia with low total CO₂, which may indicate a mild metabolic acidosis. Cholesterol is slightly elevated, but LDL and HDL are within acceptable limits. Other parameters, including glucose, liver enzymes, and proteins, are within normal ranges. Renal function and acid-base status should be further evaluated.</td></tr></table></div>"
            },
            "code": {
              "coding": [
                {
                  "system": "http://loinc.org",
                  "code": "48767-8",
                  "display": "Annotation comment"
                }
              ]
            },
            "title": "Annotation comment"
          }
        ],
        "status": "final",
        "subject": {
          "reference": "urn:uuid:8ea4e531-f90f-4556-a678-0e6972aea37b",
          "display": "Aniela Prażmo"
        },
        "date": "2024-06-16T15:25:25Z",
        "title": "Laboratory Report",
        "confidentiality": "N"
      }
    },
    {
      "fullUrl": "urn:uuid:05dc9029-27ea-4053-ad9c-5b8edaffda61",
      "resource": {
        "resourceType": "DiagnosticReport",
        "id": "05dc9029-27ea-4053-ad9c-5b8edaffda61",
        "meta": {
          "profile": [
            "http://hl7.eu/fhir/laboratory/StructureDefinition/DiagnosticReport-eu-lab"
          ]
        },
        "identifier": [
          {
            "assigner": {
              "display": "HL7 Europe"
            },
            "system": "urn:oid:2.16.840.1.113883.2.51.999",
            "value": "d019a61a-427f-4e92-b724-bdb6506550fe"
          }
        ],
        "extension": [
          {
            "url": "http://hl7.org/fhir/5.0/StructureDefinition/extension-DiagnosticReport.composition",
            "valueReference": {
              "reference": "urn:uuid:85d8a039-bbf2-4036-93d8-2c63317eed0d"
            }
          }
        ],
        "category": [
          {
            "coding": [
              {
                "code": "26436-6",
                "system": "http://loinc.org",
                "display": "Laboratory studies (set)"
              }
            ]
          }
        ],
        "specimen": [
          {
            "reference": "urn:uuid:6c5b5380-7437-44b6-9eec-69fcdc62e947"
          },
          {
            "reference": "urn:uuid:df2720be-8127-4fe9-9b82-03362e102443"
          },
          {
            "reference": "urn:uuid:412e801a-ae3a-4e45-953a-16b62d890e2b"
          }
        ],
        "result": [
          {
            "reference": "urn:uuid:09ef07ed-658e-43e8-a7e6-3ce5ddb49d39"
          },
          {
            "reference": "urn:uuid:cb649b3c-34b8-475a-ae95-95fd720d6da2"
          },
          {
            "reference": "urn:uuid:2c404a6f-2d17-48ff-89dd-2758b0e0ca5b"
          },
          {
            "reference": "urn:uuid:84ee6b8c-f65d-41e6-8635-7f9967f87eff"
          },
          {
            "reference": "urn:uuid:005d6060-6cff-4a06-923f-a9ba3b0eef3c"
          },
          {
            "reference": "urn:uuid:e000ff36-7594-44dc-989a-a44142de0e3e"
          },
          {
            "reference": "urn:uuid:999b14d1-4100-49e9-a33e-046f572ebdbc"
          },
          {
            "reference": "urn:uuid:5cae2c92-c64a-4443-b044-d3daec1881e7"
          },
          {
            "reference": "urn:uuid:a7473df5-2cd8-4bd2-95b4-e569b1885090"
          },
          {
            "reference": "urn:uuid:ba7c07bc-0d31-4690-aca4-4c98e788228f"
          },
          {
            "reference": "urn:uuid:48656730-7d26-416c-8dc0-383e23a8023d"
          },
          {
            "reference": "urn:uuid:6682deb9-2de8-457c-ad47-35ab20894a34"
          },
          {
            "reference": "urn:uuid:19613c57-ea5f-4b9a-8d22-0b8d5abb5306"
          },
          {
            "reference": "urn:uuid:b9f21e81-a9dc-43d6-bcb0-d9941c3e9b0d"
          },
          {
            "reference": "urn:uuid:99a05529-4e27-4691-b82a-de9f1f04e866"
          },
          {
            "reference": "urn:uuid:6edc1286-581a-4c72-9266-ecfa7f926a12"
          },
          {
            "reference": "urn:uuid:e502de0e-0ff5-48fc-8459-ad401890ceb3"
          },
          {
            "reference": "urn:uuid:7e338f5d-0743-4ce1-82b2-0c5abdaef341"
          },
          {
            "reference": "urn:uuid:0adbfadc-b39d-493a-941b-58c15d25b4aa"
          }
        ],
        "status": "registered",
        "code": {
          "coding": [
            {
              "code": "11502-2",
              "system": "http://loinc.org",
              "display": "Laboratory report"
            }
          ]
        },
        "subject": {
          "reference": "urn:uuid:8ea4e531-f90f-4556-a678-0e6972aea37b",
          "display": "Aniela Prażmo"
        }
      }
    },
    {
      "fullUrl": "urn:uuid:8ea4e531-f90f-4556-a678-0e6972aea37b",
      "resource": {
        "resourceType": "Patient",
        "id": "8ea4e531-f90f-4556-a678-0e6972aea37b",
        "meta": {
          "security": [
            {
              "system": "http://terminology.hl7.org/CodeSystem/v3-ActReason",
              "code": "HTEST"
            },
            {
              "system": "http://terminology.hl7.org/CodeSystem/v3-ActReason",
              "code": "TRAIN"
            }
          ],
          "tag": [
            {
              "system": "https://synderai.net/fhir/CodeSystem/tags",
              "code": "synthetic",
              "display": "SYNDERAI Synthetic data"
            }
          ],
          "profile": [
            "http://hl7.eu/fhir/base/StructureDefinition/patient-eu-core"
          ]
        },
        "identifier": [
          {
            "type": {
              "coding": [
                {
                  "code": "PT",
                  "system": "http://terminology.hl7.org/CodeSystem/v2-0203"
                }
              ]
            },
            "system": "http://ec.europa.eu/identifier/eci",
            "value": "9657-869171-7"
          },
          {
            "type": {
              "coding": [
                {
                  "code": "MR",
                  "system": "http://terminology.hl7.org/CodeSystem/v2-0203"
                }
              ]
            },
            "system": "http://local.setting.eu/identifier",
            "value": "ab00158c-e2d0-01e4-6cf5-730949937551"
          }
        ],
        "name": [
          {
            "family": "Prażmo"
          },
          {
            "given": [
              "Aniela"
            ]
          },
          {
            "text": "Aniela Prażmo"
          }
        ],
        "address": [
          {
            "line": [
              "pl. Kołłątaja 62/43"
            ],
            "use": "home",
            "type": "physical",
            "postalCode": "97-200",
            "city": "Tomaszów Mazowiecki",
            "country": "Poland"
          }
        ],
        "telecom": [
          {
            "system": "phone",
            "value": "+48 782 809 233"
          }
        ],
        "extension": [
          {
            "url": "http://hl7.org/fhir/StructureDefinition/patient-nationality",
            "valueCodeableConcept": {
              "coding": [
                {
                  "code": "PL",
                  "system": "http://hl7.org/fhir/ValueSet/country"
                }
              ]
            }
          }
        ],
        "text": {
          "status": "generated",
          "div": "<div xmlns=\"http://www.w3.org/1999/xhtml\"><table class=\"hl7__ips\"><tr><td>Aniela Prażmo</td><td>female</td><td>08-Feb-1941</td></tr></table></div>"
        },
        "gender": "female",
        "birthDate": "1941-02-08"
      }
    },
    {
      "fullUrl": "urn:uuid:2aa1feba-4d31-4b2d-9c08-d4b1182c9672",
      "resource": {
        "resourceType": "ServiceRequest",
        "id": "2aa1feba-4d31-4b2d-9c08-d4b1182c9672",
        "meta": {
          "profile": [
            "http://hl7.eu/fhir/laboratory/StructureDefinition/ServiceRequest-eu-lab"
          ]
        },
        "identifier": [
          {
            "system": "http://example.org",
            "value": "0bda2856-6860-4d40-a4d6-ef19f44d85fd"
          }
        ],
        "specimen": [
          {
            "reference": "urn:uuid:6c5b5380-7437-44b6-9eec-69fcdc62e947"
          },
          {
            "reference": "urn:uuid:df2720be-8127-4fe9-9b82-03362e102443"
          },
          {
            "reference": "urn:uuid:412e801a-ae3a-4e45-953a-16b62d890e2b"
          }
        ],
        "reasonCode": [
          {
            "coding": [
              {
                "code": "64859006",
                "system": "http://snomed.info/sct",
                "display": "Osteoporosis"
              }
            ]
          },
          {
            "coding": [
              {
                "code": "55822004",
                "system": "http://snomed.info/sct",
                "display": "Hyperlipidemia"
              }
            ]
          },
          {
            "coding": [
              {
                "code": "414545008",
                "system": "http://snomed.info/sct",
                "display": "Ischemic heart disease"
              }
            ]
          },
          {
            "coding": [
              {
                "code": "59621000",
                "system": "http://snomed.info/sct",
                "display": "Essential hypertension"
              }
            ]
          },
          {
            "coding": [
              {
                "code": "40055000",
                "system": "http://snomed.info/sct",
                "display": "Chronic sinusitis"
              }
            ]
          }
        ],
        "status": "active",
        "intent": "order",
        "code": {
          "coding": [
            {
              "code": "108252007",
              "system": "http://snomed.info/sct",
              "display": "Laboratory procedure"
            }
          ]
        },
        "subject": {
          "reference": "urn:uuid:8ea4e531-f90f-4556-a678-0e6972aea37b",
          "display": "Aniela Prażmo"
        },
        "requester": {
          "reference": "urn:uuid:ad8a2beb-756f-41bb-9f71-1d2030702e52"
        }
      }
    },
    {
      "fullUrl": "urn:uuid:ad8a2beb-756f-41bb-9f71-1d2030702e52",
      "resource": {
        "resourceType": "PractitionerRole",
        "id": "ad8a2beb-756f-41bb-9f71-1d2030702e52",
        "meta": {
          "profile": [
            "http://hl7.eu/fhir/base/StructureDefinition/practitionerRole-eu"
          ]
        },
        "text": {
          "status": "generated",
          "div": "<div xmlns=\"http://www.w3.org/1999/xhtml\">Provider Role Id: ad8a2beb-756f-41bb-9f71-1d2030702e52</div>"
        },
        "organization": {
          "reference": "urn:uuid:ebddfe9e-2298-48ce-b5f0-25a89bd9ce77"
        }
      }
    },
    {
      "fullUrl": "urn:uuid:ebddfe9e-2298-48ce-b5f0-25a89bd9ce77",
      "resource": {
        "resourceType": "Organization",
        "id": "ebddfe9e-2298-48ce-b5f0-25a89bd9ce77",
        "meta": {
          "profile": [
            "http://hl7.eu/fhir/base/StructureDefinition/organization-eu"
          ]
        },
        "identifier": [
          {
            "assigner": {
              "display": "HL7 Europe"
            },
            "system": "urn:oid:2.16.840.1.113883.2.51.999",
            "value": "0114b453-fab3-4256-bdc6-d914bd6bce8d"
          }
        ],
        "address": [
          {
            "city": "Tomaszów Mazowiecki",
            "postalCode": "97-200",
            "country": "Poland"
          }
        ],
        "text": {
          "status": "generated",
          "div": "<div xmlns=\"http://www.w3.org/1999/xhtml\">Provider Organization: Poradnia rehabilitacyjna</div>"
        },
        "name": "Poradnia rehabilitacyjna"
      }
    },
    {
      "fullUrl": "urn:uuid:6c5b5380-7437-44b6-9eec-69fcdc62e947",
      "resource": {
        "resourceType": "Specimen",
        "id": "6c5b5380-7437-44b6-9eec-69fcdc62e947",
        "meta": {
          "profile": [
            "http://hl7.eu/fhir/laboratory/StructureDefinition/Specimen-eu-lab"
          ]
        },
        "collection": {
          "collectedDateTime": "2024-06-16"
        },
        "text": {
          "status": "generated",
          "div": "<div xmlns=\"http://www.w3.org/1999/xhtml\"><table class=\"hl7__eu__lab__report\"><tr><th>Specimen</th><th>Collection Date</th></tr><tr><td>Whole blood specimen (specimen)</td><td><span class=\"nb\">16-Jun-2024</span></td></tr></table></div>"
        },
        "type": {
          "coding": [
            {
              "code": "258580003",
              "system": "http://snomed.info/sct",
              "display": "Whole blood specimen (specimen)"
            }
          ]
        }
      }
    },
    {
      "fullUrl": "urn:uuid:df2720be-8127-4fe9-9b82-03362e102443",
      "resource": {
        "resourceType": "Specimen",
        "id": "df2720be-8127-4fe9-9b82-03362e102443",
        "meta": {
          "profile": [
            "http://hl7.eu/fhir/laboratory/StructureDefinition/Specimen-eu-lab"
          ]
        },
        "collection": {
          "collectedDateTime": "2024-06-16"
        },
        "text": {
          "status": "generated",
          "div": "<div xmlns=\"http://www.w3.org/1999/xhtml\"><table class=\"hl7__eu__lab__report\"><tr><th>Specimen</th><th>Collection Date</th></tr><tr><td>Acellular blood (serum or plasma) specimen</td><td><span class=\"nb\">16-Jun-2024</span></td></tr></table></div>"
        },
        "type": {
          "coding": [
            {
              "code": "122592007",
              "system": "http://snomed.info/sct",
              "display": "Acellular blood (serum or plasma) specimen"
            }
          ]
        }
      }
    },
    {
      "fullUrl": "urn:uuid:412e801a-ae3a-4e45-953a-16b62d890e2b",
      "resource": {
        "resourceType": "Specimen",
        "id": "412e801a-ae3a-4e45-953a-16b62d890e2b",
        "meta": {
          "profile": [
            "http://hl7.eu/fhir/laboratory/StructureDefinition/Specimen-eu-lab"
          ]
        },
        "collection": {
          "collectedDateTime": "2024-06-16"
        },
        "text": {
          "status": "generated",
          "div": "<div xmlns=\"http://www.w3.org/1999/xhtml\"><table class=\"hl7__eu__lab__report\"><tr><th>Specimen</th><th>Collection Date</th></tr><tr><td>Serum specimen</td><td><span class=\"nb\">16-Jun-2024</span></td></tr></table></div>"
        },
        "type": {
          "coding": [
            {
              "code": "119364003",
              "system": "http://snomed.info/sct",
              "display": "Serum specimen"
            }
          ]
        }
      }
    },
    {
      "fullUrl": "urn:uuid:09ef07ed-658e-43e8-a7e6-3ce5ddb49d39",
      "resource": {
        "resourceType": "Observation",
        "id": "09ef07ed-658e-43e8-a7e6-3ce5ddb49d39",
        "meta": {
          "profile": [
            "http://hl7.eu/fhir/laboratory/StructureDefinition/Observation-resultslab-eu-lab"
          ]
        },
        "performer": [
          {
            "display": "The Central European Lab"
          }
        ],
        "category": [
          {
            "coding": [
              {
                "system": "http://terminology.hl7.org/CodeSystem/observation-category",
                "code": "laboratory"
              }
            ]
          }
        ],
        "code": {
          "coding": [
            {
              "code": "2339-0",
              "system": "http://loinc.org",
              "display": "Glucose [Mass/volume] in Blood"
            }
          ],
          "text": "Glucose [Mass/volume] in Blood"
        },
        "valueQuantity": {
          "system": "http://unitsofmeasure.org",
          "value": 82.9,
          "unit": "mg/dL",
          "code": "mg/dL"
        },
        "referenceRange": [
          {
            "low": {
              "value": 70,
              "code": "mg/dL",
              "system": "http://unitsofmeasure.org"
            }
          },
          {
            "high": {
              "value": 140,
              "code": "mg/dL",
              "system": "http://unitsofmeasure.org"
            }
          }
        ],
        "text": {
          "status": "generated",
          "div": "<div xmlns=\"http://www.w3.org/1999/xhtml\"><table class=\"hl7__eu__lab__report\"><tr><th>Test</th><th>16-Jun-2024</th><th>Reference&#xA0;Range</th><th>Unit</th></tr><tr><td>Glucose [Mass/volume] in Blood</td><td>82.9</td><td>70 - 140</td><td></td><td>mg/dL</td></tr></table></div>"
        },
        "status": "final",
        "subject": {
          "reference": "urn:uuid:8ea4e531-f90f-4556-a678-0e6972aea37b",
          "display": "Aniela Prażmo"
        },
        "effectiveDateTime": "2024-06-16T13:25:25Z",
        "specimen": {
          "reference": "urn:uuid:6c5b5380-7437-44b6-9eec-69fcdc62e947"
        }
      }
    },
    {
      "fullUrl": "urn:uuid:cb649b3c-34b8-475a-ae95-95fd720d6da2",
      "resource": {
        "resourceType": "Observation",
        "id": "cb649b3c-34b8-475a-ae95-95fd720d6da2",
        "meta": {
          "profile": [
            "http://hl7.eu/fhir/laboratory/StructureDefinition/Observation-resultslab-eu-lab"
          ]
        },
        "performer": [
          {
            "display": "The Central European Lab"
          }
        ],
        "category": [
          {
            "coding": [
              {
                "system": "http://terminology.hl7.org/CodeSystem/observation-category",
                "code": "laboratory"
              }
            ]
          }
        ],
        "code": {
          "coding": [
            {
              "code": "6299-2",
              "system": "http://loinc.org",
              "display": "Urea nitrogen [Mass/volume] in Blood"
            }
          ],
          "text": "Urea nitrogen [Mass/volume] in Blood"
        },
        "valueQuantity": {
          "system": "http://unitsofmeasure.org",
          "value": 11,
          "unit": "mg/dL",
          "code": "mg/dL"
        },
        "referenceRange": [
          {
            "low": {
              "value": 7,
              "code": "mg/dL",
              "system": "http://unitsofmeasure.org"
            }
          },
          {
            "high": {
              "value": 20,
              "code": "mg/dL",
              "system": "http://unitsofmeasure.org"
            }
          }
        ],
        "text": {
          "status": "generated",
          "div": "<div xmlns=\"http://www.w3.org/1999/xhtml\"><table class=\"hl7__eu__lab__report\"><tr><th>Test</th><th>16-Jun-2024</th><th>Reference&#xA0;Range</th><th>Unit</th></tr><tr><td>Urea nitrogen [Mass/volume] in Blood</td><td>11.0</td><td>7 - 20</td><td></td><td>mg/dL</td></tr></table></div>"
        },
        "status": "final",
        "subject": {
          "reference": "urn:uuid:8ea4e531-f90f-4556-a678-0e6972aea37b",
          "display": "Aniela Prażmo"
        },
        "effectiveDateTime": "2024-06-16T13:25:25Z",
        "specimen": {
          "reference": "urn:uuid:6c5b5380-7437-44b6-9eec-69fcdc62e947"
        }
      }
    },
    {
      "fullUrl": "urn:uuid:2c404a6f-2d17-48ff-89dd-2758b0e0ca5b",
      "resource": {
        "resourceType": "Observation",
        "id": "2c404a6f-2d17-48ff-89dd-2758b0e0ca5b",
        "meta": {
          "profile": [
            "http://hl7.eu/fhir/laboratory/StructureDefinition/Observation-resultslab-eu-lab"
          ]
        },
        "performer": [
          {
            "display": "The Central European Lab"
          }
        ],
        "category": [
          {
            "coding": [
              {
                "system": "http://terminology.hl7.org/CodeSystem/observation-category",
                "code": "laboratory"
              }
            ]
          }
        ],
        "code": {
          "coding": [
            {
              "code": "38483-4",
              "system": "http://loinc.org",
              "display": "Creatinine [Mass/volume] in Blood"
            }
          ],
          "text": "Creatinine [Mass/volume] in Blood"
        },
        "valueQuantity": {
          "system": "http://unitsofmeasure.org",
          "value": 2.5,
          "unit": "mg/dL",
          "code": "mg/dL"
        },
        "referenceRange": [
          {
            "low": {
              "value": 0.6,
              "code": "mg/dL",
              "system": "http://unitsofmeasure.org"
            }
          },
          {
            "high": {
              "value": 1.3,
              "code": "mg/dL",
              "system": "http://unitsofmeasure.org"
            }
          }
        ],
        "interpretation": [
          {
            "coding": [
              {
                "code": "H",
                "system": "http://terminology.hl7.org/CodeSystem/v3-ObservationInterpretation",
                "display": "High"
              }
            ]
          }
        ],
        "text": {
          "status": "generated",
          "div": "<div xmlns=\"http://www.w3.org/1999/xhtml\"><table class=\"hl7__eu__lab__report\"><tr><th>Test</th><th>16-Jun-2024</th><th>Reference&#xA0;Range</th><th>Unit</th></tr><tr><td>Creatinine [Mass/volume] in Blood</td><td>2.5</td><td>0.6 - 1.3</td><td>H</td><td>mg/dL</td></tr></table></div>"
        },
        "status": "final",
        "subject": {
          "reference": "urn:uuid:8ea4e531-f90f-4556-a678-0e6972aea37b",
          "display": "Aniela Prażmo"
        },
        "effectiveDateTime": "2024-06-16T13:25:25Z",
        "specimen": {
          "reference": "urn:uuid:6c5b5380-7437-44b6-9eec-69fcdc62e947"
        }
      }
    },
    {
      "fullUrl": "urn:uuid:84ee6b8c-f65d-41e6-8635-7f9967f87eff",
      "resource": {
        "resourceType": "Observation",
        "id": "84ee6b8c-f65d-41e6-8635-7f9967f87eff",
        "meta": {
          "profile": [
            "http://hl7.eu/fhir/laboratory/StructureDefinition/Observation-resultslab-eu-lab"
          ]
        },
        "performer": [
          {
            "display": "The Central European Lab"
          }
        ],
        "category": [
          {
            "coding": [
              {
                "system": "http://terminology.hl7.org/CodeSystem/observation-category",
                "code": "laboratory"
              }
            ]
          }
        ],
        "code": {
          "coding": [
            {
              "code": "49765-1",
              "system": "http://loinc.org",
              "display": "Calcium [Mass/volume] in Blood"
            }
          ],
          "text": "Calcium [Mass/volume] in Blood"
        },
        "valueQuantity": {
          "system": "http://unitsofmeasure.org",
          "value": 8.5,
          "unit": "mg/dL",
          "code": "mg/dL"
        },
        "referenceRange": [
          {
            "low": {
              "value": 8.5,
              "code": "mg/dL",
              "system": "http://unitsofmeasure.org"
            }
          },
          {
            "high": {
              "value": 10.5,
              "code": "mg/dL",
              "system": "http://unitsofmeasure.org"
            }
          }
        ],
        "text": {
          "status": "generated",
          "div": "<div xmlns=\"http://www.w3.org/1999/xhtml\"><table class=\"hl7__eu__lab__report\"><tr><th>Test</th><th>16-Jun-2024</th><th>Reference&#xA0;Range</th><th>Unit</th></tr><tr><td>Calcium [Mass/volume] in Blood</td><td>8.5</td><td>8.5 - 10.5</td><td></td><td>mg/dL</td></tr></table></div>"
        },
        "status": "final",
        "subject": {
          "reference": "urn:uuid:8ea4e531-f90f-4556-a678-0e6972aea37b",
          "display": "Aniela Prażmo"
        },
        "effectiveDateTime": "2024-06-16T13:25:25Z",
        "specimen": {
          "reference": "urn:uuid:6c5b5380-7437-44b6-9eec-69fcdc62e947"
        }
      }
    },
    {
      "fullUrl": "urn:uuid:005d6060-6cff-4a06-923f-a9ba3b0eef3c",
      "resource": {
        "resourceType": "Observation",
        "id": "005d6060-6cff-4a06-923f-a9ba3b0eef3c",
        "meta": {
          "profile": [
            "http://hl7.eu/fhir/laboratory/StructureDefinition/Observation-resultslab-eu-lab"
          ]
        },
        "performer": [
          {
            "display": "The Central European Lab"
          }
        ],
        "category": [
          {
            "coding": [
              {
                "system": "http://terminology.hl7.org/CodeSystem/observation-category",
                "code": "laboratory"
              }
            ]
          }
        ],
        "code": {
          "coding": [
            {
              "code": "2947-0",
              "system": "http://loinc.org",
              "display": "Sodium [Moles/volume] in Blood"
            }
          ],
          "text": "Sodium [Moles/volume] in Blood"
        },
        "valueQuantity": {
          "system": "http://unitsofmeasure.org",
          "value": 142.5,
          "unit": "mmol/L",
          "code": "mmol/L"
        },
        "referenceRange": [
          {
            "low": {
              "value": 135,
              "code": "mmol/L",
              "system": "http://unitsofmeasure.org"
            }
          },
          {
            "high": {
              "value": 145,
              "code": "mmol/L",
              "system": "http://unitsofmeasure.org"
            }
          }
        ],
        "text": {
          "status": "generated",
          "div": "<div xmlns=\"http://www.w3.org/1999/xhtml\"><table class=\"hl7__eu__lab__report\"><tr><th>Test</th><th>16-Jun-2024</th><th>Reference&#xA0;Range</th><th>Unit</th></tr><tr><td>Sodium [Moles/volume] in Blood</td><td>142.5</td><td>135 - 145</td><td></td><td>mmol/L</td></tr></table></div>"
        },
        "status": "final",
        "subject": {
          "reference": "urn:uuid:8ea4e531-f90f-4556-a678-0e6972aea37b",
          "display": "Aniela Prażmo"
        },
        "effectiveDateTime": "2024-06-16T13:25:25Z",
        "specimen": {
          "reference": "urn:uuid:6c5b5380-7437-44b6-9eec-69fcdc62e947"
        }
      }
    },
    {
      "fullUrl": "urn:uuid:e000ff36-7594-44dc-989a-a44142de0e3e",
      "resource": {
        "resourceType": "Observation",
        "id": "e000ff36-7594-44dc-989a-a44142de0e3e",
        "meta": {
          "profile": [
            "http://hl7.eu/fhir/laboratory/StructureDefinition/Observation-resultslab-eu-lab"
          ]
        },
        "performer": [
          {
            "display": "The Central European Lab"
          }
        ],
        "category": [
          {
            "coding": [
              {
                "system": "http://terminology.hl7.org/CodeSystem/observation-category",
                "code": "laboratory"
              }
            ]
          }
        ],
        "code": {
          "coding": [
            {
              "code": "6298-4",
              "system": "http://loinc.org",
              "display": "Potassium [Moles/volume] in Blood"
            }
          ],
          "text": "Potassium [Moles/volume] in Blood"
        },
        "valueQuantity": {
          "system": "http://unitsofmeasure.org",
          "value": 4.5,
          "unit": "mmol/L",
          "code": "mmol/L"
        },
        "referenceRange": [
          {
            "low": {
              "value": 3.6,
              "code": "mmol/L",
              "system": "http://unitsofmeasure.org"
            }
          },
          {
            "high": {
              "value": 5.1,
              "code": "mmol/L",
              "system": "http://unitsofmeasure.org"
            }
          }
        ],
        "text": {
          "status": "generated",
          "div": "<div xmlns=\"http://www.w3.org/1999/xhtml\"><table class=\"hl7__eu__lab__report\"><tr><th>Test</th><th>16-Jun-2024</th><th>Reference&#xA0;Range</th><th>Unit</th></tr><tr><td>Potassium [Moles/volume] in Blood</td><td>4.5</td><td>3.6 - 5.1</td><td></td><td>mmol/L</td></tr></table></div>"
        },
        "status": "final",
        "subject": {
          "reference": "urn:uuid:8ea4e531-f90f-4556-a678-0e6972aea37b",
          "display": "Aniela Prażmo"
        },
        "effectiveDateTime": "2024-06-16T13:25:25Z",
        "specimen": {
          "reference": "urn:uuid:6c5b5380-7437-44b6-9eec-69fcdc62e947"
        }
      }
    },
    {
      "fullUrl": "urn:uuid:999b14d1-4100-49e9-a33e-046f572ebdbc",
      "resource": {
        "resourceType": "Observation",
        "id": "999b14d1-4100-49e9-a33e-046f572ebdbc",
        "meta": {
          "profile": [
            "http://hl7.eu/fhir/laboratory/StructureDefinition/Observation-resultslab-eu-lab"
          ]
        },
        "performer": [
          {
            "display": "The Central European Lab"
          }
        ],
        "category": [
          {
            "coding": [
              {
                "system": "http://terminology.hl7.org/CodeSystem/observation-category",
                "code": "laboratory"
              }
            ]
          }
        ],
        "code": {
          "coding": [
            {
              "code": "2069-3",
              "system": "http://loinc.org",
              "display": "Chloride [Moles/volume] in Blood"
            }
          ],
          "text": "Chloride [Moles/volume] in Blood"
        },
        "valueQuantity": {
          "system": "http://unitsofmeasure.org",
          "value": 107.8,
          "unit": "mmol/L",
          "code": "mmol/L"
        },
        "referenceRange": [
          {
            "low": {
              "value": 98,
              "code": "mmol/L",
              "system": "http://unitsofmeasure.org"
            }
          },
          {
            "high": {
              "value": 107,
              "code": "mmol/L",
              "system": "http://unitsofmeasure.org"
            }
          }
        ],
        "interpretation": [
          {
            "coding": [
              {
                "code": "H",
                "system": "http://terminology.hl7.org/CodeSystem/v3-ObservationInterpretation",
                "display": "High"
              }
            ]
          }
        ],
        "text": {
          "status": "generated",
          "div": "<div xmlns=\"http://www.w3.org/1999/xhtml\"><table class=\"hl7__eu__lab__report\"><tr><th>Test</th><th>16-Jun-2024</th><th>Reference&#xA0;Range</th><th>Unit</th></tr><tr><td>Chloride [Moles/volume] in Blood</td><td>107.8</td><td>98 - 107</td><td>H</td><td>mmol/L</td></tr></table></div>"
        },
        "status": "final",
        "subject": {
          "reference": "urn:uuid:8ea4e531-f90f-4556-a678-0e6972aea37b",
          "display": "Aniela Prażmo"
        },
        "effectiveDateTime": "2024-06-16T13:25:25Z",
        "specimen": {
          "reference": "urn:uuid:6c5b5380-7437-44b6-9eec-69fcdc62e947"
        }
      }
    },
    {
      "fullUrl": "urn:uuid:5cae2c92-c64a-4443-b044-d3daec1881e7",
      "resource": {
        "resourceType": "Observation",
        "id": "5cae2c92-c64a-4443-b044-d3daec1881e7",
        "meta": {
          "profile": [
            "http://hl7.eu/fhir/laboratory/StructureDefinition/Observation-resultslab-eu-lab"
          ]
        },
        "performer": [
          {
            "display": "The Central European Lab"
          }
        ],
        "category": [
          {
            "coding": [
              {
                "system": "http://terminology.hl7.org/CodeSystem/observation-category",
                "code": "laboratory"
              }
            ]
          }
        ],
        "code": {
          "coding": [
            {
              "code": "20565-8",
              "system": "http://loinc.org",
              "display": "Carbon dioxide, total [Moles/volume] in Blood"
            }
          ],
          "text": "Carbon dioxide, total [Moles/volume] in Blood"
        },
        "valueQuantity": {
          "system": "http://unitsofmeasure.org",
          "value": 21.9,
          "unit": "mmol/L",
          "code": "mmol/L"
        },
        "referenceRange": [
          {
            "low": {
              "value": 22,
              "code": "mmol/L",
              "system": "http://unitsofmeasure.org"
            }
          },
          {
            "high": {
              "value": 32,
              "code": "mmol/L",
              "system": "http://unitsofmeasure.org"
            }
          }
        ],
        "interpretation": [
          {
            "coding": [
              {
                "code": "L",
                "system": "http://terminology.hl7.org/CodeSystem/v3-ObservationInterpretation",
                "display": "Low"
              }
            ]
          }
        ],
        "text": {
          "status": "generated",
          "div": "<div xmlns=\"http://www.w3.org/1999/xhtml\"><table class=\"hl7__eu__lab__report\"><tr><th>Test</th><th>16-Jun-2024</th><th>Reference&#xA0;Range</th><th>Unit</th></tr><tr><td>Carbon dioxide, total [Moles/volume] in Blood</td><td>21.9</td><td>22 - 32</td><td>L</td><td>mmol/L</td></tr></table></div>"
        },
        "status": "final",
        "subject": {
          "reference": "urn:uuid:8ea4e531-f90f-4556-a678-0e6972aea37b",
          "display": "Aniela Prażmo"
        },
        "effectiveDateTime": "2024-06-16T13:25:25Z",
        "specimen": {
          "reference": "urn:uuid:6c5b5380-7437-44b6-9eec-69fcdc62e947"
        }
      }
    },
    {
      "fullUrl": "urn:uuid:a7473df5-2cd8-4bd2-95b4-e569b1885090",
      "resource": {
        "resourceType": "Observation",
        "id": "a7473df5-2cd8-4bd2-95b4-e569b1885090",
        "meta": {
          "profile": [
            "http://hl7.eu/fhir/laboratory/StructureDefinition/Observation-resultslab-eu-lab"
          ]
        },
        "performer": [
          {
            "display": "The Central European Lab"
          }
        ],
        "category": [
          {
            "coding": [
              {
                "system": "http://terminology.hl7.org/CodeSystem/observation-category",
                "code": "laboratory"
              }
            ]
          }
        ],
        "code": {
          "coding": [
            {
              "code": "2885-2",
              "system": "http://loinc.org",
              "display": "Protein [Mass/volume] in Serum or Plasma"
            }
          ],
          "text": "Protein [Mass/volume] in Serum or Plasma"
        },
        "valueQuantity": {
          "system": "http://unitsofmeasure.org",
          "value": 7,
          "unit": "g/dL",
          "code": "g/dL"
        },
        "referenceRange": [
          {
            "low": {
              "value": 6,
              "code": "g/dL",
              "system": "http://unitsofmeasure.org"
            }
          },
          {
            "high": {
              "value": 8.3,
              "code": "g/dL",
              "system": "http://unitsofmeasure.org"
            }
          }
        ],
        "text": {
          "status": "generated",
          "div": "<div xmlns=\"http://www.w3.org/1999/xhtml\"><table class=\"hl7__eu__lab__report\"><tr><th>Test</th><th>16-Jun-2024</th><th>Reference&#xA0;Range</th><th>Unit</th></tr><tr><td>Protein [Mass/volume] in Serum or Plasma</td><td>7.0</td><td>6 - 8.3</td><td></td><td>g/dL</td></tr></table></div>"
        },
        "status": "final",
        "subject": {
          "reference": "urn:uuid:8ea4e531-f90f-4556-a678-0e6972aea37b",
          "display": "Aniela Prażmo"
        },
        "effectiveDateTime": "2024-06-16T13:25:25Z",
        "specimen": {
          "reference": "urn:uuid:df2720be-8127-4fe9-9b82-03362e102443"
        }
      }
    },
    {
      "fullUrl": "urn:uuid:ba7c07bc-0d31-4690-aca4-4c98e788228f",
      "resource": {
        "resourceType": "Observation",
        "id": "ba7c07bc-0d31-4690-aca4-4c98e788228f",
        "meta": {
          "profile": [
            "http://hl7.eu/fhir/laboratory/StructureDefinition/Observation-resultslab-eu-lab"
          ]
        },
        "performer": [
          {
            "display": "The Central European Lab"
          }
        ],
        "category": [
          {
            "coding": [
              {
                "system": "http://terminology.hl7.org/CodeSystem/observation-category",
                "code": "laboratory"
              }
            ]
          }
        ],
        "code": {
          "coding": [
            {
              "code": "1751-7",
              "system": "http://loinc.org",
              "display": "Albumin [Mass/volume] in Serum or Plasma"
            }
          ],
          "text": "Albumin [Mass/volume] in Serum or Plasma"
        },
        "valueQuantity": {
          "system": "http://unitsofmeasure.org",
          "value": 4.3,
          "unit": "g/dL",
          "code": "g/dL"
        },
        "referenceRange": [
          {
            "low": {
              "value": 3.5,
              "code": "g/dL",
              "system": "http://unitsofmeasure.org"
            }
          },
          {
            "high": {
              "value": 5,
              "code": "g/dL",
              "system": "http://unitsofmeasure.org"
            }
          }
        ],
        "text": {
          "status": "generated",
          "div": "<div xmlns=\"http://www.w3.org/1999/xhtml\"><table class=\"hl7__eu__lab__report\"><tr><th>Test</th><th>16-Jun-2024</th><th>Reference&#xA0;Range</th><th>Unit</th></tr><tr><td>Albumin [Mass/volume] in Serum or Plasma</td><td>4.3</td><td>3.5 - 5</td><td></td><td>g/dL</td></tr></table></div>"
        },
        "status": "final",
        "subject": {
          "reference": "urn:uuid:8ea4e531-f90f-4556-a678-0e6972aea37b",
          "display": "Aniela Prażmo"
        },
        "effectiveDateTime": "2024-06-16T13:25:25Z",
        "specimen": {
          "reference": "urn:uuid:df2720be-8127-4fe9-9b82-03362e102443"
        }
      }
    },
    {
      "fullUrl": "urn:uuid:48656730-7d26-416c-8dc0-383e23a8023d",
      "resource": {
        "resourceType": "Observation",
        "id": "48656730-7d26-416c-8dc0-383e23a8023d",
        "meta": {
          "profile": [
            "http://hl7.eu/fhir/laboratory/StructureDefinition/Observation-resultslab-eu-lab"
          ]
        },
        "performer": [
          {
            "display": "The Central European Lab"
          }
        ],
        "category": [
          {
            "coding": [
              {
                "system": "http://terminology.hl7.org/CodeSystem/observation-category",
                "code": "laboratory"
              }
            ]
          }
        ],
        "code": {
          "coding": [
            {
              "code": "10834-0",
              "system": "http://loinc.org",
              "display": "Globulin [Mass/volume] in Serum by calculation"
            }
          ],
          "text": "Globulin [Mass/volume] in Serum by calculation"
        },
        "valueQuantity": {
          "system": "http://unitsofmeasure.org",
          "value": 3.3,
          "unit": "g/L",
          "code": "g/L"
        },
        "referenceRange": [
          {
            "low": {
              "value": 2,
              "code": "g/L",
              "system": "http://unitsofmeasure.org"
            }
          },
          {
            "high": {
              "value": 3.9,
              "code": "g/L",
              "system": "http://unitsofmeasure.org"
            }
          }
        ],
        "text": {
          "status": "generated",
          "div": "<div xmlns=\"http://www.w3.org/1999/xhtml\"><table class=\"hl7__eu__lab__report\"><tr><th>Test</th><th>16-Jun-2024</th><th>Reference&#xA0;Range</th><th>Unit</th></tr><tr><td>Globulin [Mass/volume] in Serum by calculation</td><td>3.3</td><td>2 - 3.9</td><td></td><td>g/L</td></tr></table></div>"
        },
        "status": "final",
        "subject": {
          "reference": "urn:uuid:8ea4e531-f90f-4556-a678-0e6972aea37b",
          "display": "Aniela Prażmo"
        },
        "effectiveDateTime": "2024-06-16T13:25:25Z",
        "specimen": {
          "reference": "urn:uuid:412e801a-ae3a-4e45-953a-16b62d890e2b"
        }
      }
    },
    {
      "fullUrl": "urn:uuid:6682deb9-2de8-457c-ad47-35ab20894a34",
      "resource": {
        "resourceType": "Observation",
        "id": "6682deb9-2de8-457c-ad47-35ab20894a34",
        "meta": {
          "profile": [
            "http://hl7.eu/fhir/laboratory/StructureDefinition/Observation-resultslab-eu-lab"
          ]
        },
        "performer": [
          {
            "display": "The Central European Lab"
          }
        ],
        "category": [
          {
            "coding": [
              {
                "system": "http://terminology.hl7.org/CodeSystem/observation-category",
                "code": "laboratory"
              }
            ]
          }
        ],
        "code": {
          "coding": [
            {
              "code": "1975-2",
              "system": "http://loinc.org",
              "display": "Bilirubin.total [Mass/volume] in Serum or Plasma"
            }
          ],
          "text": "Bilirubin.total [Mass/volume] in Serum or Plasma"
        },
        "valueQuantity": {
          "system": "http://unitsofmeasure.org",
          "value": 1.2,
          "unit": "mg/dL",
          "code": "mg/dL"
        },
        "referenceRange": [
          {
            "low": {
              "value": 0.3,
              "code": "mg/dL",
              "system": "http://unitsofmeasure.org"
            }
          },
          {
            "high": {
              "value": 1.2,
              "code": "mg/dL",
              "system": "http://unitsofmeasure.org"
            }
          }
        ],
        "text": {
          "status": "generated",
          "div": "<div xmlns=\"http://www.w3.org/1999/xhtml\"><table class=\"hl7__eu__lab__report\"><tr><th>Test</th><th>16-Jun-2024</th><th>Reference&#xA0;Range</th><th>Unit</th></tr><tr><td>Bilirubin.total [Mass/volume] in Serum or Plasma</td><td>1.2</td><td>0.3 - 1.2</td><td></td><td>mg/dL</td></tr></table></div>"
        },
        "status": "final",
        "subject": {
          "reference": "urn:uuid:8ea4e531-f90f-4556-a678-0e6972aea37b",
          "display": "Aniela Prażmo"
        },
        "effectiveDateTime": "2024-06-16T13:25:25Z",
        "specimen": {
          "reference": "urn:uuid:df2720be-8127-4fe9-9b82-03362e102443"
        }
      }
    },
    {
      "fullUrl": "urn:uuid:19613c57-ea5f-4b9a-8d22-0b8d5abb5306",
      "resource": {
        "resourceType": "Observation",
        "id": "19613c57-ea5f-4b9a-8d22-0b8d5abb5306",
        "meta": {
          "profile": [
            "http://hl7.eu/fhir/laboratory/StructureDefinition/Observation-resultslab-eu-lab"
          ]
        },
        "performer": [
          {
            "display": "The Central European Lab"
          }
        ],
        "category": [
          {
            "coding": [
              {
                "system": "http://terminology.hl7.org/CodeSystem/observation-category",
                "code": "laboratory"
              }
            ]
          }
        ],
        "code": {
          "coding": [
            {
              "code": "6768-6",
              "system": "http://loinc.org",
              "display": "Alkaline phosphatase [Enzymatic activity/volume] in Serum or Plasma"
            }
          ],
          "text": "Alkaline phosphatase [Enzymatic activity/volume] in Serum or Plasma"
        },
        "valueQuantity": {
          "system": "http://unitsofmeasure.org",
          "value": 93.2,
          "unit": "U/L",
          "code": "U/L"
        },
        "referenceRange": [
          {
            "low": {
              "value": 32,
              "code": "U/L",
              "system": "http://unitsofmeasure.org"
            }
          },
          {
            "high": {
              "value": 150,
              "code": "U/L",
              "system": "http://unitsofmeasure.org"
            }
          }
        ],
        "text": {
          "status": "generated",
          "div": "<div xmlns=\"http://www.w3.org/1999/xhtml\"><table class=\"hl7__eu__lab__report\"><tr><th>Test</th><th>16-Jun-2024</th><th>Reference&#xA0;Range</th><th>Unit</th></tr><tr><td>Alkaline phosphatase [Enzymatic activity/volume] in Serum or Plasma</td><td>93.2</td><td>32 - 150</td><td></td><td>U/L</td></tr></table></div>"
        },
        "status": "final",
        "subject": {
          "reference": "urn:uuid:8ea4e531-f90f-4556-a678-0e6972aea37b",
          "display": "Aniela Prażmo"
        },
        "effectiveDateTime": "2024-06-16T13:25:25Z",
        "specimen": {
          "reference": "urn:uuid:df2720be-8127-4fe9-9b82-03362e102443"
        }
      }
    },
    {
      "fullUrl": "urn:uuid:b9f21e81-a9dc-43d6-bcb0-d9941c3e9b0d",
      "resource": {
        "resourceType": "Observation",
        "id": "b9f21e81-a9dc-43d6-bcb0-d9941c3e9b0d",
        "meta": {
          "profile": [
            "http://hl7.eu/fhir/laboratory/StructureDefinition/Observation-resultslab-eu-lab"
          ]
        },
        "performer": [
          {
            "display": "The Central European Lab"
          }
        ],
        "category": [
          {
            "coding": [
              {
                "system": "http://terminology.hl7.org/CodeSystem/observation-category",
                "code": "laboratory"
              }
            ]
          }
        ],
        "code": {
          "coding": [
            {
              "code": "1742-6",
              "system": "http://loinc.org",
              "display": "Alanine aminotransferase [Enzymatic activity/volume] in Serum or Plasma"
            }
          ],
          "text": "Alanine aminotransferase [Enzymatic activity/volume] in Serum or Plasma"
        },
        "valueQuantity": {
          "system": "http://unitsofmeasure.org",
          "value": 31.6,
          "unit": "U/L",
          "code": "U/L"
        },
        "referenceRange": [
          {
            "low": {
              "value": 13,
              "code": "U/L",
              "system": "http://unitsofmeasure.org"
            }
          },
          {
            "high": {
              "value": 32,
              "code": "U/L",
              "system": "http://unitsofmeasure.org"
            }
          }
        ],
        "text": {
          "status": "generated",
          "div": "<div xmlns=\"http://www.w3.org/1999/xhtml\"><table class=\"hl7__eu__lab__report\"><tr><th>Test</th><th>16-Jun-2024</th><th>Reference&#xA0;Range</th><th>Unit</th></tr><tr><td>Alanine aminotransferase [Enzymatic activity/volume] in Serum or Plasma</td><td>31.6</td><td>13 - 32</td><td></td><td>U/L</td></tr></table></div>"
        },
        "status": "final",
        "subject": {
          "reference": "urn:uuid:8ea4e531-f90f-4556-a678-0e6972aea37b",
          "display": "Aniela Prażmo"
        },
        "effectiveDateTime": "2024-06-16T13:25:25Z",
        "specimen": {
          "reference": "urn:uuid:df2720be-8127-4fe9-9b82-03362e102443"
        }
      }
    },
    {
      "fullUrl": "urn:uuid:99a05529-4e27-4691-b82a-de9f1f04e866",
      "resource": {
        "resourceType": "Observation",
        "id": "99a05529-4e27-4691-b82a-de9f1f04e866",
        "meta": {
          "profile": [
            "http://hl7.eu/fhir/laboratory/StructureDefinition/Observation-resultslab-eu-lab"
          ]
        },
        "performer": [
          {
            "display": "The Central European Lab"
          }
        ],
        "category": [
          {
            "coding": [
              {
                "system": "http://terminology.hl7.org/CodeSystem/observation-category",
                "code": "laboratory"
              }
            ]
          }
        ],
        "code": {
          "coding": [
            {
              "code": "1920-8",
              "system": "http://loinc.org",
              "display": "Aspartate aminotransferase [Enzymatic activity/volume] in Serum or Plasma"
            }
          ],
          "text": "Aspartate aminotransferase [Enzymatic activity/volume] in Serum or Plasma"
        },
        "valueQuantity": {
          "system": "http://unitsofmeasure.org",
          "value": 39.8,
          "unit": "U/L",
          "code": "U/L"
        },
        "referenceRange": [
          {
            "low": {
              "value": 10,
              "code": "U/L",
              "system": "http://unitsofmeasure.org"
            }
          },
          {
            "high": {
              "value": 40,
              "code": "U/L",
              "system": "http://unitsofmeasure.org"
            }
          }
        ],
        "text": {
          "status": "generated",
          "div": "<div xmlns=\"http://www.w3.org/1999/xhtml\"><table class=\"hl7__eu__lab__report\"><tr><th>Test</th><th>16-Jun-2024</th><th>Reference&#xA0;Range</th><th>Unit</th></tr><tr><td>Aspartate aminotransferase [Enzymatic activity/volume] in Serum or Plasma</td><td>39.8</td><td>10 - 40</td><td></td><td>U/L</td></tr></table></div>"
        },
        "status": "final",
        "subject": {
          "reference": "urn:uuid:8ea4e531-f90f-4556-a678-0e6972aea37b",
          "display": "Aniela Prażmo"
        },
        "effectiveDateTime": "2024-06-16T13:25:25Z",
        "specimen": {
          "reference": "urn:uuid:df2720be-8127-4fe9-9b82-03362e102443"
        }
      }
    },
    {
      "fullUrl": "urn:uuid:6edc1286-581a-4c72-9266-ecfa7f926a12",
      "resource": {
        "resourceType": "Observation",
        "id": "6edc1286-581a-4c72-9266-ecfa7f926a12",
        "meta": {
          "profile": [
            "http://hl7.eu/fhir/laboratory/StructureDefinition/Observation-resultslab-eu-lab"
          ]
        },
        "performer": [
          {
            "display": "The Central European Lab"
          }
        ],
        "category": [
          {
            "coding": [
              {
                "system": "http://terminology.hl7.org/CodeSystem/observation-category",
                "code": "laboratory"
              }
            ]
          }
        ],
        "code": {
          "coding": [
            {
              "code": "2093-3",
              "system": "http://loinc.org",
              "display": "Cholesterol [Mass/volume] in Serum or Plasma"
            }
          ],
          "text": "Cholesterol [Mass/volume] in Serum or Plasma"
        },
        "valueQuantity": {
          "system": "http://unitsofmeasure.org",
          "value": 204.2,
          "unit": "mg/dL",
          "code": "mg/dL"
        },
        "referenceRange": [
          {
            "low": {
              "value": 130,
              "code": "mg/dL",
              "system": "http://unitsofmeasure.org"
            }
          },
          {
            "high": {
              "value": 200,
              "code": "mg/dL",
              "system": "http://unitsofmeasure.org"
            }
          }
        ],
        "interpretation": [
          {
            "coding": [
              {
                "code": "H",
                "system": "http://terminology.hl7.org/CodeSystem/v3-ObservationInterpretation",
                "display": "High"
              }
            ]
          }
        ],
        "text": {
          "status": "generated",
          "div": "<div xmlns=\"http://www.w3.org/1999/xhtml\"><table class=\"hl7__eu__lab__report\"><tr><th>Test</th><th>16-Jun-2024</th><th>Reference&#xA0;Range</th><th>Unit</th></tr><tr><td>Cholesterol [Mass/volume] in Serum or Plasma</td><td>204.2</td><td>130 - 200</td><td>H</td><td>mg/dL</td></tr></table></div>"
        },
        "status": "final",
        "subject": {
          "reference": "urn:uuid:8ea4e531-f90f-4556-a678-0e6972aea37b",
          "display": "Aniela Prażmo"
        },
        "effectiveDateTime": "2024-06-16T13:25:25Z",
        "specimen": {
          "reference": "urn:uuid:df2720be-8127-4fe9-9b82-03362e102443"
        }
      }
    },
    {
      "fullUrl": "urn:uuid:e502de0e-0ff5-48fc-8459-ad401890ceb3",
      "resource": {
        "resourceType": "Observation",
        "id": "e502de0e-0ff5-48fc-8459-ad401890ceb3",
        "meta": {
          "profile": [
            "http://hl7.eu/fhir/laboratory/StructureDefinition/Observation-resultslab-eu-lab"
          ]
        },
        "performer": [
          {
            "display": "The Central European Lab"
          }
        ],
        "category": [
          {
            "coding": [
              {
                "system": "http://terminology.hl7.org/CodeSystem/observation-category",
                "code": "laboratory"
              }
            ]
          }
        ],
        "code": {
          "coding": [
            {
              "code": "2571-8",
              "system": "http://loinc.org",
              "display": "Triglyceride [Mass/volume] in Serum or Plasma"
            }
          ],
          "text": "Triglyceride [Mass/volume] in Serum or Plasma"
        },
        "valueQuantity": {
          "system": "http://unitsofmeasure.org",
          "value": 145.7,
          "unit": "mg/dL",
          "code": "mg/dL"
        },
        "referenceRange": [
          {
            "low": {
              "value": 0,
              "code": "mg/dL",
              "system": "http://unitsofmeasure.org"
            }
          },
          {
            "high": {
              "value": 199,
              "code": "mg/dL",
              "system": "http://unitsofmeasure.org"
            }
          }
        ],
        "text": {
          "status": "generated",
          "div": "<div xmlns=\"http://www.w3.org/1999/xhtml\"><table class=\"hl7__eu__lab__report\"><tr><th>Test</th><th>16-Jun-2024</th><th>Reference&#xA0;Range</th><th>Unit</th></tr><tr><td>Triglyceride [Mass/volume] in Serum or Plasma</td><td>145.7</td><td>0 - 199</td><td></td><td>mg/dL</td></tr></table></div>"
        },
        "status": "final",
        "subject": {
          "reference": "urn:uuid:8ea4e531-f90f-4556-a678-0e6972aea37b",
          "display": "Aniela Prażmo"
        },
        "effectiveDateTime": "2024-06-16T13:25:25Z",
        "specimen": {
          "reference": "urn:uuid:df2720be-8127-4fe9-9b82-03362e102443"
        }
      }
    },
    {
      "fullUrl": "urn:uuid:7e338f5d-0743-4ce1-82b2-0c5abdaef341",
      "resource": {
        "resourceType": "Observation",
        "id": "7e338f5d-0743-4ce1-82b2-0c5abdaef341",
        "meta": {
          "profile": [
            "http://hl7.eu/fhir/laboratory/StructureDefinition/Observation-resultslab-eu-lab"
          ]
        },
        "performer": [
          {
            "display": "The Central European Lab"
          }
        ],
        "category": [
          {
            "coding": [
              {
                "system": "http://terminology.hl7.org/CodeSystem/observation-category",
                "code": "laboratory"
              }
            ]
          }
        ],
        "code": {
          "coding": [
            {
              "code": "18262-6",
              "system": "http://loinc.org",
              "display": "Cholesterol in LDL [Mass/volume] in Serum or Plasma by Direct assay"
            }
          ],
          "text": "Cholesterol in LDL [Mass/volume] in Serum or Plasma by Direct assay"
        },
        "valueQuantity": {
          "system": "http://unitsofmeasure.org",
          "value": 126.7,
          "unit": "mg/dL",
          "code": "mg/dL"
        },
        "referenceRange": [
          {
            "low": {
              "value": 0,
              "code": "mg/dL",
              "system": "http://unitsofmeasure.org"
            }
          },
          {
            "high": {
              "value": 130,
              "code": "mg/dL",
              "system": "http://unitsofmeasure.org"
            }
          }
        ],
        "text": {
          "status": "generated",
          "div": "<div xmlns=\"http://www.w3.org/1999/xhtml\"><table class=\"hl7__eu__lab__report\"><tr><th>Test</th><th>16-Jun-2024</th><th>Reference&#xA0;Range</th><th>Unit</th></tr><tr><td>Cholesterol in LDL [Mass/volume] in Serum or Plasma by Direct assay</td><td>126.7</td><td>0 - 130</td><td></td><td>mg/dL</td></tr></table></div>"
        },
        "status": "final",
        "subject": {
          "reference": "urn:uuid:8ea4e531-f90f-4556-a678-0e6972aea37b",
          "display": "Aniela Prażmo"
        },
        "effectiveDateTime": "2024-06-16T13:25:25Z",
        "specimen": {
          "reference": "urn:uuid:df2720be-8127-4fe9-9b82-03362e102443"
        }
      }
    },
    {
      "fullUrl": "urn:uuid:0adbfadc-b39d-493a-941b-58c15d25b4aa",
      "resource": {
        "resourceType": "Observation",
        "id": "0adbfadc-b39d-493a-941b-58c15d25b4aa",
        "meta": {
          "profile": [
            "http://hl7.eu/fhir/laboratory/StructureDefinition/Observation-resultslab-eu-lab"
          ]
        },
        "performer": [
          {
            "display": "The Central European Lab"
          }
        ],
        "category": [
          {
            "coding": [
              {
                "system": "http://terminology.hl7.org/CodeSystem/observation-category",
                "code": "laboratory"
              }
            ]
          }
        ],
        "code": {
          "coding": [
            {
              "code": "2085-9",
              "system": "http://loinc.org",
              "display": "Cholesterol in HDL [Mass/volume] in Serum or Plasma"
            }
          ],
          "text": "Cholesterol in HDL [Mass/volume] in Serum or Plasma"
        },
        "valueQuantity": {
          "system": "http://unitsofmeasure.org",
          "value": 55.2,
          "unit": "mg/dL",
          "code": "mg/dL"
        },
        "referenceRange": [
          {
            "low": {
              "value": 50,
              "code": "mg/dL",
              "system": "http://unitsofmeasure.org"
            }
          },
          {
            "high": {
              "value": 100,
              "code": "mg/dL",
              "system": "http://unitsofmeasure.org"
            }
          }
        ],
        "text": {
          "status": "generated",
          "div": "<div xmlns=\"http://www.w3.org/1999/xhtml\"><table class=\"hl7__eu__lab__report\"><tr><th>Test</th><th>16-Jun-2024</th><th>Reference&#xA0;Range</th><th>Unit</th></tr><tr><td>Cholesterol in HDL [Mass/volume] in Serum or Plasma</td><td>55.2</td><td>50 - 100</td><td></td><td>mg/dL</td></tr></table></div>"
        },
        "status": "final",
        "subject": {
          "reference": "urn:uuid:8ea4e531-f90f-4556-a678-0e6972aea37b",
          "display": "Aniela Prażmo"
        },
        "effectiveDateTime": "2024-06-16T13:25:25Z",
        "specimen": {
          "reference": "urn:uuid:df2720be-8127-4fe9-9b82-03362e102443"
        }
      }
    },
    {
      "fullUrl": "urn:uuid:feb65af2-3e9a-4d3f-860d-a3c4c55ed78f",
      "resource": {
        "resourceType": "Device",
        "id": "feb65af2-3e9a-4d3f-860d-a3c4c55ed78f",
        "deviceName": [
          {
            "name": "SYNDERAI Synthetic Generator",
            "type": "manufacturer-name"
          }
        ],
        "version": [
          {
            "value": "5.0"
          }
        ],
        "text": {
          "status": "generated",
          "div": "<div xmlns=\"http://www.w3.org/1999/xhtml\">SYNDERAI Synthetic Generator v5.0</div>"
        },
        "status": "active\"",
        "distinctIdentifier": "synderai-generator-50",
        "manufacturer": "SYNDERAI Project"
      }
    },
    {
      "fullUrl": "urn:uuid:705d127a-4027-4574-8667-e28020f6bdb7",
      "resource": {
        "resourceType": "Provenance",
        "id": "705d127a-4027-4574-8667-e28020f6bdb7",
        "target": [
          {
            "reference": "Patient/8ea4e531-f90f-4556-a678-0e6972aea37b"
          },
          {
            "reference": "Bundle/3e68af85-e8bc-4694-9a1f-d3b663a4e41c"
          },
          {
            "reference": "Composition/25055c1d-e06c-46b8-a663-3145497acfe9"
          },
          {
            "reference": "PractitionerRole/ea4b3e3e-ede0-47d6-a02d-9bc2a326b138"
          },
          {
            "reference": "Practitioner/6277064e-c9c2-452c-b8bc-d8c81410a107"
          },
          {
            "reference": "PractitionerRole/ad8a2beb-756f-41bb-9f71-1d2030702e52"
          },
          {
            "reference": "Organization/ebddfe9e-2298-48ce-b5f0-25a89bd9ce77"
          }
        ],
        "activity": {
          "text": "Synthetic Example Data Generation"
        },
        "policy": [
          "https://synderai.net/synderai-synthetic-data-policy"
        ],
        "agent": [
          {
            "type": {
              "text": "author"
            },
            "who": {
              "reference": "Device/feb65af2-3e9a-4d3f-860d-a3c4c55ed78f"
            }
          }
        ],
        "reason": [
          {
            "text": "Interoperability Testing and Training (non-clinical use)"
          }
        ],
        "text": {
          "status": "generated",
          "div": "<div xmlns=\"http://www.w3.org/1999/xhtml\">Provenance for SYNDERAI Synthetic Example Data Resource</div>"
        },
        "recorded": "2024-06-16T15:25:25Z"
      }
    },
    {
      "fullUrl": "urn:uuid:ea4b3e3e-ede0-47d6-a02d-9bc2a326b138",
      "resource": {
        "resourceType": "PractitionerRole",
        "id": "ea4b3e3e-ede0-47d6-a02d-9bc2a326b138",
        "meta": {
          "profile": [
            "http://hl7.eu/fhir/base/StructureDefinition/practitionerRole-eu"
          ]
        },
        "text": {
          "status": "generated",
          "div": "<div xmlns=\"http://www.w3.org/1999/xhtml\">Laboratory Role Id: ea4b3e3e-ede0-47d6-a02d-9bc2a326b138</div>"
        },
        "practitioner": {
          "reference": "urn:uuid:6277064e-c9c2-452c-b8bc-d8c81410a107"
        }
      }
    },
    {
      "fullUrl": "urn:uuid:6277064e-c9c2-452c-b8bc-d8c81410a107",
      "resource": {
        "resourceType": "Practitioner",
        "id": "6277064e-c9c2-452c-b8bc-d8c81410a107",
        "meta": {
          "profile": [
            "http://hl7.eu/fhir/base/StructureDefinition/practitioner-eu"
          ]
        },
        "identifier": [
          {
            "assigner": {
              "display": "HL7 Europe"
            },
            "system": "urn:oid:2.16.840.1.113883.2.51.999",
            "value": "f82a2f9c-e21f-49dc-b6ba-7765461a750b"
          }
        ],
        "name": [
          {
            "prefix": [
              "dr"
            ],
            "given": [
              "Ex"
            ],
            "family": "Ample"
          }
        ],
        "address": [
          {
            "line": [
              "Laboratoire Central Européenne",
              "Boulevard du Jardin Botanique 32"
            ],
            "postalCode": "1000",
            "city": "Brussels",
            "country": "Belgium"
          }
        ],
        "text": {
          "status": "generated",
          "div": "<div xmlns=\"http://www.w3.org/1999/xhtml\">Laboratory: Laboratoire Central Européenne, 1000 Brussels, Belgium</div>"
        }
      }
    }
  ],
  "type": "document",
  "timestamp": "2024-06-16T15:25:25Z"
}
