{
  "resourceType": "Bundle",
  "id": "70a4acdf-936d-462a-b932-0fc970004f09",
  "meta": {
    "profile": [
      "http://hl7.eu/fhir/laboratory/StructureDefinition/Bundle-eu-lab"
    ]
  },
  "identifier": {
    "assigner": {
      "display": "HL7 Europe"
    },
    "system": "urn:oid:2.16.840.1.113883.2.51.999",
    "value": "81f4f86d-fdea-449e-994b-d38c42eb21d0"
  },
  "entry": [
    {
      "fullUrl": "urn:uuid:5fed8144-a054-4ae3-aa73-cd90b884c832",
      "resource": {
        "resourceType": "Composition",
        "id": "5fed8144-a054-4ae3-aa73-cd90b884c832",
        "meta": {
          "profile": [
            "http://hl7.eu/fhir/laboratory/StructureDefinition/Composition-eu-lab"
          ]
        },
        "identifier": {
          "assigner": {
            "display": "HL7 Europe"
          },
          "system": "urn:oid:2.16.840.1.113883.2.51.999",
          "value": "ab561d1b-cd9f-4fcc-b13e-535c3e4a3704"
        },
        "author": [
          {
            "reference": "urn:uuid:9567b1a2-7f54-4397-8887-c575257481b6"
          }
        ],
        "category": [
          {
            "coding": [
              {
                "code": "26436-6",
                "system": "http://loinc.org",
                "display": "Laboratory studies (set)"
              }
            ]
          }
        ],
        "type": {
          "coding": [
            {
              "code": "11502-2",
              "system": "http://loinc.org",
              "display": "Laboratory report"
            }
          ],
          "text": "Laboratory Report"
        },
        "section": [
          {
            "code": {
              "coding": [
                {
                  "code": "26436-6",
                  "system": "http://loinc.org",
                  "display": "Laboratory studies (set)"
                }
              ],
              "text": "Laboratory studies"
            },
            "section": [
              {
                "code": {
                  "coding": [
                    {
                      "code": "$18719-5",
                      "system": "http://loinc.org",
                      "display": "Chemistry studies (set)"
                    }
                  ],
                  "text": "Chemistry"
                },
                "entry": [
                  {
                    "reference": "urn:uuid:22aaa271-4ab5-42b2-be0c-2553b6b68eac"
                  },
                  {
                    "reference": "urn:uuid:deb70d9a-786f-4b48-b73c-04d5355d9a11"
                  },
                  {
                    "reference": "urn:uuid:6f64d1c0-529f-4ee9-ba1c-a3f8e292de8d"
                  },
                  {
                    "reference": "urn:uuid:9382bb7e-ea91-4aaf-b990-21b1992437f2"
                  },
                  {
                    "reference": "urn:uuid:611f5eb0-5381-4840-9aa9-ab318aa3067a"
                  },
                  {
                    "reference": "urn:uuid:fbc9e2cd-8755-4b0a-93f2-987cb1942377"
                  },
                  {
                    "reference": "urn:uuid:24ee23a4-a965-4232-b21b-a48db465674b"
                  },
                  {
                    "reference": "urn:uuid:72c5dc9c-934b-4ea0-ae8d-57599d20cdc3"
                  },
                  {
                    "reference": "urn:uuid:47a13a68-0372-4e85-9c80-9a4446b044d9"
                  },
                  {
                    "reference": "urn:uuid:d03920bb-cf36-40bc-8e0d-e1e3ba853869"
                  },
                  {
                    "reference": "urn:uuid:fd5bf503-8ad8-47b0-bca6-c2e326396843"
                  },
                  {
                    "reference": "urn:uuid:ae701041-ebf7-4d09-bead-3a4787efd75d"
                  },
                  {
                    "reference": "urn:uuid:0215bf79-26b1-4c46-b2f8-436506dead9e"
                  },
                  {
                    "reference": "urn:uuid:66fcce57-256a-4fcb-ae14-0829ccb62e45"
                  },
                  {
                    "reference": "urn:uuid:633dc38f-bf56-4e19-b9ad-68242b6f57f5"
                  },
                  {
                    "reference": "urn:uuid:1387f3cc-8bbc-46b0-a6c1-fad89f3cd14e"
                  },
                  {
                    "reference": "urn:uuid:324970bd-6615-43f8-82ad-dbba0701e69f"
                  },
                  {
                    "reference": "urn:uuid:5182abd3-2745-4a63-9061-999a798001fb"
                  },
                  {
                    "reference": "urn:uuid:6a817985-98e6-4315-9031-8b592168fad0"
                  },
                  {
                    "reference": "urn:uuid:dc35990b-d267-4968-9283-28fb3c6dc583"
                  },
                  {
                    "reference": "urn:uuid:385ae5e4-f696-4ddd-ab63-e608544548e7"
                  },
                  {
                    "reference": "urn:uuid:af0ff122-89cf-4595-beec-b196c093682a"
                  }
                ],
                "text": {
                  "status": "generated",
                  "div": "<div xmlns=\"http://www.w3.org/1999/xhtml\"><h3>Chemistry</h3><table class=\"hl7__eu__lab__report\"><thead><tr><th>Test</th><th>17-JAN-2025</th><th>Reference&#xA0;Range</th><th>Unit</th></tr></thead><tbody><tr><td>Glucose [Mass/volume] in Serum or Plasma</td><td>91.8</td><td>70 - 140</td><td>mg/dL</td></tr><tr><td>Urea nitrogen [Mass/volume] in Serum or Plasma</td><td>7.1</td><td>7 - 20</td><td>mg/dL</td></tr><tr><td>Creatinine [Mass/volume] in Serum or Plasma</td><td><strong>2.0 H</strong></td><td>0.9 - 1.3</td><td>mg/dL</td></tr><tr><td>Calcium [Mass/volume] in Serum or Plasma</td><td>8.7</td><td>8.5 - 10.5</td><td>mg/dL</td></tr><tr><td>Sodium [Moles/volume] in Serum or Plasma</td><td>138.8</td><td>135 - 145</td><td>mmol/L</td></tr><tr><td>Potassium [Moles/volume] in Serum or Plasma</td><td>3.8</td><td>3.5 - 5.3</td><td>mmol/L</td></tr><tr><td>Chloride [Moles/volume] in Serum or Plasma</td><td><strong>110.3 H</strong></td><td>98 - 107</td><td>mmol/L</td></tr><tr><td>Carbon dioxide, total [Moles/volume] in Serum or Plasma</td><td>22.2</td><td>22 - 33</td><td>mmol/L</td></tr><tr><td>Ketones [Presence] in Urine by Test strip</td><td>Urine ketone test = ++</td><td></td><td></td></tr><tr><td>Hemoglobin A1c/Hemoglobin.total in Blood</td><td><strong>3.0 L</strong></td><td>4.3 - 6</td><td>%</td></tr><tr><td>Glucose [Mass/volume] in Blood</td><td>91.8</td><td>70 - 140</td><td>mg/dL</td></tr><tr><td>Urea nitrogen [Mass/volume] in Blood</td><td>7.1</td><td>7 - 20</td><td>mg/dL</td></tr><tr><td>Creatinine [Mass/volume] in Blood</td><td><strong>2.9 H</strong></td><td>0.9 - 1.3</td><td>mg/dL</td></tr><tr><td>Calcium [Mass/volume] in Blood</td><td>8.7</td><td>8.5 - 10.5</td><td>mg/dL</td></tr><tr><td>Sodium [Moles/volume] in Blood</td><td>138.8</td><td>135 - 145</td><td>mmol/L</td></tr><tr><td>Potassium [Moles/volume] in Blood</td><td>3.8</td><td>3.5 - 5.1</td><td>mmol/L</td></tr><tr><td>Chloride [Moles/volume] in Blood</td><td><strong>110.3 H</strong></td><td>98 - 108</td><td>mmol/L</td></tr><tr><td>Carbon dioxide, total [Moles/volume] in Blood</td><td>22.2</td><td>22 - 29</td><td>mmol/L</td></tr><tr><td>Cholesterol [Mass/volume] in Serum or Plasma</td><td>145.4</td><td>0 - 200</td><td>mg/dL</td></tr><tr><td>Triglyceride [Mass/volume] in Serum or Plasma</td><td>128.2</td><td>0 - 199</td><td>mg/dL</td></tr><tr><td>Cholesterol in LDL [Mass/volume] in Serum or Plasma by Direct assay</td><td>91.5</td><td>0 - 130</td><td>mg/dL</td></tr><tr><td>Cholesterol in HDL [Mass/volume] in Serum or Plasma</td><td><strong>28.3 L</strong></td><td>40 - 100</td><td>mg/dL</td></tr></tbody></table></div>"
                },
                "title": "Chemistry"
              },
              {
                "code": {
                  "coding": [
                    {
                      "code": "$18729-4",
                      "system": "http://loinc.org",
                      "display": "Urinalysis studies (set)"
                    }
                  ],
                  "text": "Urinalysis"
                },
                "entry": [
                  {
                    "reference": "urn:uuid:cfceaf69-449e-42f8-9fdd-b2221b251f28"
                  },
                  {
                    "reference": "urn:uuid:da8a2fb6-24e6-4d12-9f1e-27ce8eaaf88c"
                  },
                  {
                    "reference": "urn:uuid:ae8eee57-02c6-431a-aff5-02107168f62e"
                  },
                  {
                    "reference": "urn:uuid:1c081551-7aa4-4391-b991-1cd0bf016e9b"
                  },
                  {
                    "reference": "urn:uuid:76dde207-4f43-4396-adc9-9901a421e5fa"
                  },
                  {
                    "reference": "urn:uuid:bca89549-e768-4cf2-84cb-f2fd2c0c5c7f"
                  },
                  {
                    "reference": "urn:uuid:34d97c38-a35b-42bf-92ae-efc70664913b"
                  },
                  {
                    "reference": "urn:uuid:d5ed2bf6-2995-4694-b129-fea59cb64fff"
                  },
                  {
                    "reference": "urn:uuid:0b9cf84e-306b-4cf8-ad51-dcda751a3b8b"
                  },
                  {
                    "reference": "urn:uuid:f4d70855-560d-424e-9501-6a49af734a11"
                  },
                  {
                    "reference": "urn:uuid:87fc905b-0fb7-46c8-9da0-1a15871ce379"
                  },
                  {
                    "reference": "urn:uuid:1137bc93-f1a7-4498-8273-ff11169c4d4f"
                  }
                ],
                "text": {
                  "status": "generated",
                  "div": "<div xmlns=\"http://www.w3.org/1999/xhtml\"><h3>Urinalysis</h3><table class=\"hl7__eu__lab__report\"><thead><tr><th>Test</th><th>17-JAN-2025</th><th>Reference&#xA0;Range</th><th>Unit</th></tr></thead><tbody><tr><td>Glucose [Mass/volume] in Urine by Test strip</td><td><strong>0.9 H</strong></td><td>0 - 0.8</td><td>mg/dL</td></tr><tr><td>Glucose [Presence] in Urine by Test strip</td><td>++</td><td></td><td></td></tr><tr><td>Bilirubin.total [Mass/volume] in Urine by Test strip</td><td>0.5</td><td>0 - 1.9</td><td>mg/dL</td></tr><tr><td>Bilirubin.total [Presence] in Urine by Test strip</td><td>Finding of bilirubin in urine</td><td></td><td></td></tr><tr><td>Ketones [Mass/volume] in Urine by Test strip</td><td><strong>10.1 H</strong></td><td>0 - 3</td><td>mg/dL</td></tr><tr><td>Specific gravity of Urine by Test strip</td><td><strong>1.0 L</strong></td><td>1.01 - 1.03</td><td>{nominal}</td></tr><tr><td>pH of Urine by Test strip</td><td>5.9</td><td>4.5 - 7.5</td><td>pH</td></tr><tr><td>Protein [Mass/volume] in Urine by Test strip</td><td><strong>393.9 H</strong></td><td>0 - 149</td><td>mg/dL</td></tr><tr><td>Protein [Presence] in Urine by Test strip</td><td>Urine protein test = ++</td><td></td><td></td></tr><tr><td>Nitrite [Presence] in Urine by Test strip</td><td>Urine nitrite negative</td><td></td><td></td></tr><tr><td>Hemoglobin [Presence] in Urine by Test strip</td><td>Urine blood test = negative</td><td></td><td></td></tr><tr><td>Leukocyte esterase [Presence] in Urine by Test strip</td><td>Urine leukocyte test negative</td><td></td><td></td></tr></tbody></table></div>"
                },
                "title": "Urinalysis"
              },
              {
                "code": {
                  "coding": [
                    {
                      "code": "$LP7846-1",
                      "system": "http://loinc.org",
                      "display": "Specimen information"
                    }
                  ],
                  "text": "Specimen information"
                },
                "entry": [
                  {
                    "reference": "urn:uuid:c64bf5cc-342d-4505-bba8-9e75ea619a1e"
                  },
                  {
                    "reference": "urn:uuid:f534727a-ff28-47c2-bcef-a89863311965"
                  },
                  {
                    "reference": "urn:uuid:09a566e6-5f2e-4db8-a182-de5ffb714269"
                  },
                  {
                    "reference": "urn:uuid:661c2985-e5c4-470b-b610-f7a8af026911"
                  }
                ],
                "text": {
                  "status": "generated",
                  "div": "<div xmlns=\"http://www.w3.org/1999/xhtml\"><h3>Specimen information</h3><table class=\"hl7__eu__lab__report\"><thead><tr><th>Test</th><th>17-JAN-2025</th><th>Specimen</th><th></th></tr></thead><tbody><tr><td>Appearance of Urine</td><td>Cloudy urine</td><td>Urine</td><td></td></tr><tr><td>Odor of Urine</td><td>Urine smell ammoniacal</td><td>Urine</td><td></td></tr><tr><td>Clarity of Urine</td><td>Translucent</td><td>Urine</td><td></td></tr><tr><td>Color of Urine</td><td>Brown color</td><td>Urine</td><td></td></tr></tbody></table></div>"
                },
                "title": "Specimen information"
              }
            ],
            "title": "Laboratory Report"
          },
          {
            "text": {
              "status": "generated",
              "div": "<div xmlns=\"http://www.w3.org/1999/xhtml\"><h3>Annotation</h3><table class=\"hl7__eu__lab__report\"><tr><th>Conclusion and Recommendations based on this report and previous findings known to us</th></tr><tr><td>The patient shows elevated creatinine, suggesting impaired renal function, and high chloride. Urinalysis reveals proteinuria, glucosuria, ketonuria, low specific gravity, and abnormal urine appearance, indicating possible nephropathy and metabolic derangement. HbA1c is low, but urine and blood glucose are normal, possibly reflecting recent glycemic changes or anemia. HDL cholesterol is low, increasing cardiovascular risk. Recommend further evaluation of renal function, metabolic status, and possible underlying causes (e.g., diabetes, dehydration, or infection).</td></tr></table></div>"
            },
            "code": {
              "coding": [
                {
                  "system": "http://loinc.org",
                  "code": "48767-8",
                  "display": "Annotation comment"
                }
              ]
            },
            "title": "Annotation comment"
          }
        ],
        "status": "final",
        "subject": {
          "reference": "urn:uuid:8898538e-c42a-4242-95d7-8416f3666e8a",
          "display": "Victor Lagarde"
        },
        "date": "2025-01-17T05:48:18Z",
        "title": "Laboratory Report",
        "confidentiality": "N"
      }
    },
    {
      "fullUrl": "urn:uuid:0cba4a41-9a96-40c3-baf9-441d99ca7d09",
      "resource": {
        "resourceType": "DiagnosticReport",
        "id": "0cba4a41-9a96-40c3-baf9-441d99ca7d09",
        "meta": {
          "profile": [
            "http://hl7.eu/fhir/laboratory/StructureDefinition/DiagnosticReport-eu-lab"
          ]
        },
        "identifier": [
          {
            "assigner": {
              "display": "HL7 Europe"
            },
            "system": "urn:oid:2.16.840.1.113883.2.51.999",
            "value": "2db3c2ed-82d9-48d6-919e-820fcbdb3bac"
          }
        ],
        "extension": [
          {
            "url": "http://hl7.org/fhir/5.0/StructureDefinition/extension-DiagnosticReport.composition",
            "valueReference": {
              "reference": "urn:uuid:ab561d1b-cd9f-4fcc-b13e-535c3e4a3704"
            }
          }
        ],
        "category": [
          {
            "coding": [
              {
                "code": "26436-6",
                "system": "http://loinc.org",
                "display": "Laboratory studies (set)"
              }
            ]
          }
        ],
        "specimen": [
          {
            "reference": "urn:uuid:43806f97-cc69-4a9d-ac5a-af62fa1c978d"
          },
          {
            "reference": "urn:uuid:389c8a2e-6803-4128-aa9e-d0f358754dba"
          },
          {
            "reference": "urn:uuid:d8fe96f9-cba7-4d37-8b75-157bc9eb9fa5"
          }
        ],
        "result": [
          {
            "reference": "urn:uuid:22aaa271-4ab5-42b2-be0c-2553b6b68eac"
          },
          {
            "reference": "urn:uuid:deb70d9a-786f-4b48-b73c-04d5355d9a11"
          },
          {
            "reference": "urn:uuid:6f64d1c0-529f-4ee9-ba1c-a3f8e292de8d"
          },
          {
            "reference": "urn:uuid:9382bb7e-ea91-4aaf-b990-21b1992437f2"
          },
          {
            "reference": "urn:uuid:611f5eb0-5381-4840-9aa9-ab318aa3067a"
          },
          {
            "reference": "urn:uuid:fbc9e2cd-8755-4b0a-93f2-987cb1942377"
          },
          {
            "reference": "urn:uuid:24ee23a4-a965-4232-b21b-a48db465674b"
          },
          {
            "reference": "urn:uuid:72c5dc9c-934b-4ea0-ae8d-57599d20cdc3"
          },
          {
            "reference": "urn:uuid:c64bf5cc-342d-4505-bba8-9e75ea619a1e"
          },
          {
            "reference": "urn:uuid:f534727a-ff28-47c2-bcef-a89863311965"
          },
          {
            "reference": "urn:uuid:09a566e6-5f2e-4db8-a182-de5ffb714269"
          },
          {
            "reference": "urn:uuid:661c2985-e5c4-470b-b610-f7a8af026911"
          },
          {
            "reference": "urn:uuid:cfceaf69-449e-42f8-9fdd-b2221b251f28"
          },
          {
            "reference": "urn:uuid:da8a2fb6-24e6-4d12-9f1e-27ce8eaaf88c"
          },
          {
            "reference": "urn:uuid:ae8eee57-02c6-431a-aff5-02107168f62e"
          },
          {
            "reference": "urn:uuid:1c081551-7aa4-4391-b991-1cd0bf016e9b"
          },
          {
            "reference": "urn:uuid:76dde207-4f43-4396-adc9-9901a421e5fa"
          },
          {
            "reference": "urn:uuid:47a13a68-0372-4e85-9c80-9a4446b044d9"
          },
          {
            "reference": "urn:uuid:bca89549-e768-4cf2-84cb-f2fd2c0c5c7f"
          },
          {
            "reference": "urn:uuid:34d97c38-a35b-42bf-92ae-efc70664913b"
          },
          {
            "reference": "urn:uuid:d5ed2bf6-2995-4694-b129-fea59cb64fff"
          },
          {
            "reference": "urn:uuid:0b9cf84e-306b-4cf8-ad51-dcda751a3b8b"
          },
          {
            "reference": "urn:uuid:f4d70855-560d-424e-9501-6a49af734a11"
          },
          {
            "reference": "urn:uuid:87fc905b-0fb7-46c8-9da0-1a15871ce379"
          },
          {
            "reference": "urn:uuid:1137bc93-f1a7-4498-8273-ff11169c4d4f"
          },
          {
            "reference": "urn:uuid:d03920bb-cf36-40bc-8e0d-e1e3ba853869"
          },
          {
            "reference": "urn:uuid:fd5bf503-8ad8-47b0-bca6-c2e326396843"
          },
          {
            "reference": "urn:uuid:ae701041-ebf7-4d09-bead-3a4787efd75d"
          },
          {
            "reference": "urn:uuid:0215bf79-26b1-4c46-b2f8-436506dead9e"
          },
          {
            "reference": "urn:uuid:66fcce57-256a-4fcb-ae14-0829ccb62e45"
          },
          {
            "reference": "urn:uuid:633dc38f-bf56-4e19-b9ad-68242b6f57f5"
          },
          {
            "reference": "urn:uuid:1387f3cc-8bbc-46b0-a6c1-fad89f3cd14e"
          },
          {
            "reference": "urn:uuid:324970bd-6615-43f8-82ad-dbba0701e69f"
          },
          {
            "reference": "urn:uuid:5182abd3-2745-4a63-9061-999a798001fb"
          },
          {
            "reference": "urn:uuid:6a817985-98e6-4315-9031-8b592168fad0"
          },
          {
            "reference": "urn:uuid:dc35990b-d267-4968-9283-28fb3c6dc583"
          },
          {
            "reference": "urn:uuid:385ae5e4-f696-4ddd-ab63-e608544548e7"
          },
          {
            "reference": "urn:uuid:af0ff122-89cf-4595-beec-b196c093682a"
          }
        ],
        "status": "registered",
        "code": {
          "coding": [
            {
              "code": "11502-2",
              "system": "http://loinc.org",
              "display": "Laboratory report"
            }
          ]
        },
        "subject": {
          "reference": "urn:uuid:8898538e-c42a-4242-95d7-8416f3666e8a",
          "display": "Victor Lagarde"
        }
      }
    },
    {
      "fullUrl": "urn:uuid:8898538e-c42a-4242-95d7-8416f3666e8a",
      "resource": {
        "resourceType": "Patient",
        "id": "8898538e-c42a-4242-95d7-8416f3666e8a",
        "meta": {
          "security": [
            {
              "system": "http://terminology.hl7.org/CodeSystem/v3-ActReason",
              "code": "HTEST"
            },
            {
              "system": "http://terminology.hl7.org/CodeSystem/v3-ActReason",
              "code": "TRAIN"
            }
          ],
          "tag": [
            {
              "system": "https://synderai.net/fhir/CodeSystem/tags",
              "code": "synthetic",
              "display": "SYNDERAI Synthetic data"
            }
          ],
          "profile": [
            "http://hl7.eu/fhir/base/StructureDefinition/patient-eu-core"
          ]
        },
        "identifier": [
          {
            "type": {
              "coding": [
                {
                  "code": "PT",
                  "system": "http://terminology.hl7.org/CodeSystem/v2-0203"
                }
              ]
            },
            "system": "http://ec.europa.eu/identifier/eci",
            "value": "9925-001801-9"
          },
          {
            "type": {
              "coding": [
                {
                  "code": "MR",
                  "system": "http://terminology.hl7.org/CodeSystem/v2-0203"
                }
              ]
            },
            "system": "http://local.setting.eu/identifier",
            "value": "22c2dfd0-ac57-8833-2532-848f180896a4"
          }
        ],
        "name": [
          {
            "family": "Lagarde"
          },
          {
            "given": [
              "Victor"
            ]
          },
          {
            "text": "Victor Lagarde"
          }
        ],
        "address": [
          {
            "line": [
              "avenue Robert"
            ],
            "use": "home",
            "type": "physical",
            "postalCode": "80300",
            "city": "Albert",
            "country": "France"
          }
        ],
        "telecom": [
          {
            "system": "phone",
            "value": "0177941801"
          }
        ],
        "extension": [
          {
            "url": "http://hl7.org/fhir/StructureDefinition/patient-nationality",
            "valueCodeableConcept": {
              "coding": [
                {
                  "code": "FR",
                  "system": "http://hl7.org/fhir/ValueSet/country"
                }
              ]
            }
          }
        ],
        "text": {
          "status": "generated",
          "div": "<div xmlns=\"http://www.w3.org/1999/xhtml\"><table class=\"hl7__ips\"><tr><td>Victor Lagarde</td><td>male</td><td>31-Aug-1939</td></tr></table></div>"
        },
        "gender": "male",
        "birthDate": "1939-08-31"
      }
    },
    {
      "fullUrl": "urn:uuid:ad3177cf-fcd5-4430-8c7e-3b85a96bf4a9",
      "resource": {
        "resourceType": "ServiceRequest",
        "id": "ad3177cf-fcd5-4430-8c7e-3b85a96bf4a9",
        "meta": {
          "profile": [
            "http://hl7.eu/fhir/laboratory/StructureDefinition/ServiceRequest-eu-lab"
          ]
        },
        "identifier": [
          {
            "system": "http://example.org",
            "value": "228cc9ba-3394-449b-9e4a-01a48181a8ca"
          }
        ],
        "specimen": [
          {
            "reference": "urn:uuid:43806f97-cc69-4a9d-ac5a-af62fa1c978d"
          },
          {
            "reference": "urn:uuid:389c8a2e-6803-4128-aa9e-d0f358754dba"
          },
          {
            "reference": "urn:uuid:d8fe96f9-cba7-4d37-8b75-157bc9eb9fa5"
          }
        ],
        "reasonCode": [
          {
            "coding": [
              {
                "code": "433144002",
                "system": "http://snomed.info/sct",
                "display": "Chronic kidney disease stage 3"
              }
            ]
          },
          {
            "coding": [
              {
                "code": "157141000119108",
                "system": "http://snomed.info/sct",
                "display": "Proteinuria due to type 2 diabetes mellitus"
              }
            ]
          },
          {
            "coding": [
              {
                "code": "431856006",
                "system": "http://snomed.info/sct",
                "display": "Chronic kidney disease stage 2"
              }
            ]
          },
          {
            "coding": [
              {
                "code": "90781000119102",
                "system": "http://snomed.info/sct",
                "display": "Microalbuminuria due to type 2 diabetes mellitus"
              }
            ]
          },
          {
            "coding": [
              {
                "code": "127013003",
                "system": "http://snomed.info/sct",
                "display": "Disorder of kidney due to diabetes mellitus"
              }
            ]
          },
          {
            "coding": [
              {
                "code": "431855005",
                "system": "http://snomed.info/sct",
                "display": "Chronic kidney disease stage 1"
              }
            ]
          },
          {
            "coding": [
              {
                "code": "55822004",
                "system": "http://snomed.info/sct",
                "display": "Hyperlipidemia"
              }
            ]
          },
          {
            "coding": [
              {
                "code": "59621000",
                "system": "http://snomed.info/sct",
                "display": "Essential hypertension"
              }
            ]
          },
          {
            "coding": [
              {
                "code": "237602007",
                "system": "http://snomed.info/sct",
                "display": "Metabolic syndrome X"
              }
            ]
          },
          {
            "coding": [
              {
                "code": "414545008",
                "system": "http://snomed.info/sct",
                "display": "Ischemic heart disease"
              }
            ]
          },
          {
            "coding": [
              {
                "code": "40055000",
                "system": "http://snomed.info/sct",
                "display": "Chronic sinusitis"
              }
            ]
          },
          {
            "coding": [
              {
                "code": "15777000",
                "system": "http://snomed.info/sct",
                "display": "Prediabetes"
              }
            ]
          },
          {
            "coding": [
              {
                "code": "271737000",
                "system": "http://snomed.info/sct",
                "display": "Anemia"
              }
            ]
          }
        ],
        "status": "active",
        "intent": "order",
        "code": {
          "coding": [
            {
              "code": "108252007",
              "system": "http://snomed.info/sct",
              "display": "Laboratory procedure"
            }
          ]
        },
        "subject": {
          "reference": "urn:uuid:8898538e-c42a-4242-95d7-8416f3666e8a",
          "display": "Victor Lagarde"
        },
        "requester": {
          "reference": "urn:uuid:59e90097-5552-4a91-9bd2-ee44049705ea"
        }
      }
    },
    {
      "fullUrl": "urn:uuid:59e90097-5552-4a91-9bd2-ee44049705ea",
      "resource": {
        "resourceType": "PractitionerRole",
        "id": "59e90097-5552-4a91-9bd2-ee44049705ea",
        "meta": {
          "profile": [
            "http://hl7.eu/fhir/base/StructureDefinition/practitionerRole-eu"
          ]
        },
        "text": {
          "status": "generated",
          "div": "<div xmlns=\"http://www.w3.org/1999/xhtml\">Provider Role Id: 59e90097-5552-4a91-9bd2-ee44049705ea</div>"
        },
        "organization": {
          "reference": "urn:uuid:258d876c-7591-48fc-a82f-390987c1edb8"
        }
      }
    },
    {
      "fullUrl": "urn:uuid:258d876c-7591-48fc-a82f-390987c1edb8",
      "resource": {
        "resourceType": "Organization",
        "id": "258d876c-7591-48fc-a82f-390987c1edb8",
        "meta": {
          "profile": [
            "http://hl7.eu/fhir/base/StructureDefinition/organization-eu"
          ]
        },
        "identifier": [
          {
            "assigner": {
              "display": "HL7 Europe"
            },
            "system": "urn:oid:2.16.840.1.113883.2.51.999",
            "value": "0b19d6f3-f095-4b02-8113-eba32503f4cd"
          }
        ],
        "address": [
          {
            "city": "Auxerre",
            "postalCode": "89000",
            "country": "France"
          }
        ],
        "text": {
          "status": "generated",
          "div": "<div xmlns=\"http://www.w3.org/1999/xhtml\">Provider Organization: Thiriot Didier (Cardiologie)</div>"
        },
        "name": "Thiriot Didier (Cardiologie)"
      }
    },
    {
      "fullUrl": "urn:uuid:43806f97-cc69-4a9d-ac5a-af62fa1c978d",
      "resource": {
        "resourceType": "Specimen",
        "id": "43806f97-cc69-4a9d-ac5a-af62fa1c978d",
        "meta": {
          "profile": [
            "http://hl7.eu/fhir/laboratory/StructureDefinition/Specimen-eu-lab"
          ]
        },
        "collection": {
          "collectedDateTime": "2025-01-17"
        },
        "text": {
          "status": "generated",
          "div": "<div xmlns=\"http://www.w3.org/1999/xhtml\"><table class=\"hl7__eu__lab__report\"><tr><th>Specimen</th><th>Collection Date</th></tr><tr><td>Acellular blood (serum or plasma) specimen</td><td><span class=\"nb\">17-Jan-2025</span></td></tr></table></div>"
        },
        "type": {
          "coding": [
            {
              "code": "122592007",
              "system": "http://snomed.info/sct",
              "display": "Acellular blood (serum or plasma) specimen"
            }
          ]
        }
      }
    },
    {
      "fullUrl": "urn:uuid:389c8a2e-6803-4128-aa9e-d0f358754dba",
      "resource": {
        "resourceType": "Specimen",
        "id": "389c8a2e-6803-4128-aa9e-d0f358754dba",
        "meta": {
          "profile": [
            "http://hl7.eu/fhir/laboratory/StructureDefinition/Specimen-eu-lab"
          ]
        },
        "collection": {
          "collectedDateTime": "2025-01-17"
        },
        "text": {
          "status": "generated",
          "div": "<div xmlns=\"http://www.w3.org/1999/xhtml\"><table class=\"hl7__eu__lab__report\"><tr><th>Specimen</th><th>Collection Date</th></tr><tr><td>Urine specimen</td><td><span class=\"nb\">17-Jan-2025</span></td></tr></table></div>"
        },
        "type": {
          "coding": [
            {
              "code": "122575003",
              "system": "http://snomed.info/sct",
              "display": "Urine specimen"
            }
          ]
        }
      }
    },
    {
      "fullUrl": "urn:uuid:d8fe96f9-cba7-4d37-8b75-157bc9eb9fa5",
      "resource": {
        "resourceType": "Specimen",
        "id": "d8fe96f9-cba7-4d37-8b75-157bc9eb9fa5",
        "meta": {
          "profile": [
            "http://hl7.eu/fhir/laboratory/StructureDefinition/Specimen-eu-lab"
          ]
        },
        "collection": {
          "collectedDateTime": "2025-01-17"
        },
        "text": {
          "status": "generated",
          "div": "<div xmlns=\"http://www.w3.org/1999/xhtml\"><table class=\"hl7__eu__lab__report\"><tr><th>Specimen</th><th>Collection Date</th></tr><tr><td>Whole blood specimen (specimen)</td><td><span class=\"nb\">17-Jan-2025</span></td></tr></table></div>"
        },
        "type": {
          "coding": [
            {
              "code": "258580003",
              "system": "http://snomed.info/sct",
              "display": "Whole blood specimen (specimen)"
            }
          ]
        }
      }
    },
    {
      "fullUrl": "urn:uuid:22aaa271-4ab5-42b2-be0c-2553b6b68eac",
      "resource": {
        "resourceType": "Observation",
        "id": "22aaa271-4ab5-42b2-be0c-2553b6b68eac",
        "meta": {
          "profile": [
            "http://hl7.eu/fhir/laboratory/StructureDefinition/Observation-resultslab-eu-lab"
          ]
        },
        "performer": [
          {
            "display": "The Central European Lab"
          }
        ],
        "category": [
          {
            "coding": [
              {
                "system": "http://terminology.hl7.org/CodeSystem/observation-category",
                "code": "laboratory"
              }
            ]
          }
        ],
        "code": {
          "coding": [
            {
              "code": "2345-7",
              "system": "http://loinc.org",
              "display": "Glucose [Mass/volume] in Serum or Plasma"
            }
          ],
          "text": "Glucose [Mass/volume] in Serum or Plasma"
        },
        "valueQuantity": {
          "system": "http://unitsofmeasure.org",
          "value": 91.8,
          "unit": "mg/dL",
          "code": "mg/dL"
        },
        "referenceRange": [
          {
            "low": {
              "value": 70,
              "code": "mg/dL",
              "system": "http://unitsofmeasure.org"
            }
          },
          {
            "high": {
              "value": 140,
              "code": "mg/dL",
              "system": "http://unitsofmeasure.org"
            }
          }
        ],
        "text": {
          "status": "generated",
          "div": "<div xmlns=\"http://www.w3.org/1999/xhtml\"><table class=\"hl7__eu__lab__report\"><tr><th>Test</th><th>17-Jan-2025</th><th>Reference&#xA0;Range</th><th>Unit</th></tr><tr><td>Glucose [Mass/volume] in Serum or Plasma</td><td>91.8</td><td>70 - 140</td><td></td><td>mg/dL</td></tr></table></div>"
        },
        "status": "final",
        "subject": {
          "reference": "urn:uuid:8898538e-c42a-4242-95d7-8416f3666e8a",
          "display": "Victor Lagarde"
        },
        "effectiveDateTime": "2025-01-17T04:48:18Z",
        "specimen": {
          "reference": "urn:uuid:43806f97-cc69-4a9d-ac5a-af62fa1c978d"
        }
      }
    },
    {
      "fullUrl": "urn:uuid:deb70d9a-786f-4b48-b73c-04d5355d9a11",
      "resource": {
        "resourceType": "Observation",
        "id": "deb70d9a-786f-4b48-b73c-04d5355d9a11",
        "meta": {
          "profile": [
            "http://hl7.eu/fhir/laboratory/StructureDefinition/Observation-resultslab-eu-lab"
          ]
        },
        "performer": [
          {
            "display": "The Central European Lab"
          }
        ],
        "category": [
          {
            "coding": [
              {
                "system": "http://terminology.hl7.org/CodeSystem/observation-category",
                "code": "laboratory"
              }
            ]
          }
        ],
        "code": {
          "coding": [
            {
              "code": "3094-0",
              "system": "http://loinc.org",
              "display": "Urea nitrogen [Mass/volume] in Serum or Plasma"
            }
          ],
          "text": "Urea nitrogen [Mass/volume] in Serum or Plasma"
        },
        "valueQuantity": {
          "system": "http://unitsofmeasure.org",
          "value": 7.1,
          "unit": "mg/dL",
          "code": "mg/dL"
        },
        "referenceRange": [
          {
            "low": {
              "value": 7,
              "code": "mg/dL",
              "system": "http://unitsofmeasure.org"
            }
          },
          {
            "high": {
              "value": 20,
              "code": "mg/dL",
              "system": "http://unitsofmeasure.org"
            }
          }
        ],
        "text": {
          "status": "generated",
          "div": "<div xmlns=\"http://www.w3.org/1999/xhtml\"><table class=\"hl7__eu__lab__report\"><tr><th>Test</th><th>17-Jan-2025</th><th>Reference&#xA0;Range</th><th>Unit</th></tr><tr><td>Urea nitrogen [Mass/volume] in Serum or Plasma</td><td>7.1</td><td>7 - 20</td><td></td><td>mg/dL</td></tr></table></div>"
        },
        "status": "final",
        "subject": {
          "reference": "urn:uuid:8898538e-c42a-4242-95d7-8416f3666e8a",
          "display": "Victor Lagarde"
        },
        "effectiveDateTime": "2025-01-17T04:48:18Z",
        "specimen": {
          "reference": "urn:uuid:43806f97-cc69-4a9d-ac5a-af62fa1c978d"
        }
      }
    },
    {
      "fullUrl": "urn:uuid:6f64d1c0-529f-4ee9-ba1c-a3f8e292de8d",
      "resource": {
        "resourceType": "Observation",
        "id": "6f64d1c0-529f-4ee9-ba1c-a3f8e292de8d",
        "meta": {
          "profile": [
            "http://hl7.eu/fhir/laboratory/StructureDefinition/Observation-resultslab-eu-lab"
          ]
        },
        "performer": [
          {
            "display": "The Central European Lab"
          }
        ],
        "category": [
          {
            "coding": [
              {
                "system": "http://terminology.hl7.org/CodeSystem/observation-category",
                "code": "laboratory"
              }
            ]
          }
        ],
        "code": {
          "coding": [
            {
              "code": "2160-0",
              "system": "http://loinc.org",
              "display": "Creatinine [Mass/volume] in Serum or Plasma"
            }
          ],
          "text": "Creatinine [Mass/volume] in Serum or Plasma"
        },
        "valueQuantity": {
          "system": "http://unitsofmeasure.org",
          "value": 2,
          "unit": "mg/dL",
          "code": "mg/dL"
        },
        "referenceRange": [
          {
            "low": {
              "value": 0.9,
              "code": "mg/dL",
              "system": "http://unitsofmeasure.org"
            }
          },
          {
            "high": {
              "value": 1.3,
              "code": "mg/dL",
              "system": "http://unitsofmeasure.org"
            }
          }
        ],
        "interpretation": [
          {
            "coding": [
              {
                "code": "H",
                "system": "http://terminology.hl7.org/CodeSystem/v3-ObservationInterpretation",
                "display": "High"
              }
            ]
          }
        ],
        "text": {
          "status": "generated",
          "div": "<div xmlns=\"http://www.w3.org/1999/xhtml\"><table class=\"hl7__eu__lab__report\"><tr><th>Test</th><th>17-Jan-2025</th><th>Reference&#xA0;Range</th><th>Unit</th></tr><tr><td>Creatinine [Mass/volume] in Serum or Plasma</td><td>2.0</td><td>0.9 - 1.3</td><td>H</td><td>mg/dL</td></tr></table></div>"
        },
        "status": "final",
        "subject": {
          "reference": "urn:uuid:8898538e-c42a-4242-95d7-8416f3666e8a",
          "display": "Victor Lagarde"
        },
        "effectiveDateTime": "2025-01-17T04:48:18Z",
        "specimen": {
          "reference": "urn:uuid:43806f97-cc69-4a9d-ac5a-af62fa1c978d"
        }
      }
    },
    {
      "fullUrl": "urn:uuid:9382bb7e-ea91-4aaf-b990-21b1992437f2",
      "resource": {
        "resourceType": "Observation",
        "id": "9382bb7e-ea91-4aaf-b990-21b1992437f2",
        "meta": {
          "profile": [
            "http://hl7.eu/fhir/laboratory/StructureDefinition/Observation-resultslab-eu-lab"
          ]
        },
        "performer": [
          {
            "display": "The Central European Lab"
          }
        ],
        "category": [
          {
            "coding": [
              {
                "system": "http://terminology.hl7.org/CodeSystem/observation-category",
                "code": "laboratory"
              }
            ]
          }
        ],
        "code": {
          "coding": [
            {
              "code": "17861-6",
              "system": "http://loinc.org",
              "display": "Calcium [Mass/volume] in Serum or Plasma"
            }
          ],
          "text": "Calcium [Mass/volume] in Serum or Plasma"
        },
        "valueQuantity": {
          "system": "http://unitsofmeasure.org",
          "value": 8.7,
          "unit": "mg/dL",
          "code": "mg/dL"
        },
        "referenceRange": [
          {
            "low": {
              "value": 8.5,
              "code": "mg/dL",
              "system": "http://unitsofmeasure.org"
            }
          },
          {
            "high": {
              "value": 10.5,
              "code": "mg/dL",
              "system": "http://unitsofmeasure.org"
            }
          }
        ],
        "text": {
          "status": "generated",
          "div": "<div xmlns=\"http://www.w3.org/1999/xhtml\"><table class=\"hl7__eu__lab__report\"><tr><th>Test</th><th>17-Jan-2025</th><th>Reference&#xA0;Range</th><th>Unit</th></tr><tr><td>Calcium [Mass/volume] in Serum or Plasma</td><td>8.7</td><td>8.5 - 10.5</td><td></td><td>mg/dL</td></tr></table></div>"
        },
        "status": "final",
        "subject": {
          "reference": "urn:uuid:8898538e-c42a-4242-95d7-8416f3666e8a",
          "display": "Victor Lagarde"
        },
        "effectiveDateTime": "2025-01-17T04:48:18Z",
        "specimen": {
          "reference": "urn:uuid:43806f97-cc69-4a9d-ac5a-af62fa1c978d"
        }
      }
    },
    {
      "fullUrl": "urn:uuid:611f5eb0-5381-4840-9aa9-ab318aa3067a",
      "resource": {
        "resourceType": "Observation",
        "id": "611f5eb0-5381-4840-9aa9-ab318aa3067a",
        "meta": {
          "profile": [
            "http://hl7.eu/fhir/laboratory/StructureDefinition/Observation-resultslab-eu-lab"
          ]
        },
        "performer": [
          {
            "display": "The Central European Lab"
          }
        ],
        "category": [
          {
            "coding": [
              {
                "system": "http://terminology.hl7.org/CodeSystem/observation-category",
                "code": "laboratory"
              }
            ]
          }
        ],
        "code": {
          "coding": [
            {
              "code": "2951-2",
              "system": "http://loinc.org",
              "display": "Sodium [Moles/volume] in Serum or Plasma"
            }
          ],
          "text": "Sodium [Moles/volume] in Serum or Plasma"
        },
        "valueQuantity": {
          "system": "http://unitsofmeasure.org",
          "value": 138.8,
          "unit": "mmol/L",
          "code": "mmol/L"
        },
        "referenceRange": [
          {
            "low": {
              "value": 135,
              "code": "mmol/L",
              "system": "http://unitsofmeasure.org"
            }
          },
          {
            "high": {
              "value": 145,
              "code": "mmol/L",
              "system": "http://unitsofmeasure.org"
            }
          }
        ],
        "text": {
          "status": "generated",
          "div": "<div xmlns=\"http://www.w3.org/1999/xhtml\"><table class=\"hl7__eu__lab__report\"><tr><th>Test</th><th>17-Jan-2025</th><th>Reference&#xA0;Range</th><th>Unit</th></tr><tr><td>Sodium [Moles/volume] in Serum or Plasma</td><td>138.8</td><td>135 - 145</td><td></td><td>mmol/L</td></tr></table></div>"
        },
        "status": "final",
        "subject": {
          "reference": "urn:uuid:8898538e-c42a-4242-95d7-8416f3666e8a",
          "display": "Victor Lagarde"
        },
        "effectiveDateTime": "2025-01-17T04:48:18Z",
        "specimen": {
          "reference": "urn:uuid:43806f97-cc69-4a9d-ac5a-af62fa1c978d"
        }
      }
    },
    {
      "fullUrl": "urn:uuid:fbc9e2cd-8755-4b0a-93f2-987cb1942377",
      "resource": {
        "resourceType": "Observation",
        "id": "fbc9e2cd-8755-4b0a-93f2-987cb1942377",
        "meta": {
          "profile": [
            "http://hl7.eu/fhir/laboratory/StructureDefinition/Observation-resultslab-eu-lab"
          ]
        },
        "performer": [
          {
            "display": "The Central European Lab"
          }
        ],
        "category": [
          {
            "coding": [
              {
                "system": "http://terminology.hl7.org/CodeSystem/observation-category",
                "code": "laboratory"
              }
            ]
          }
        ],
        "code": {
          "coding": [
            {
              "code": "2823-3",
              "system": "http://loinc.org",
              "display": "Potassium [Moles/volume] in Serum or Plasma"
            }
          ],
          "text": "Potassium [Moles/volume] in Serum or Plasma"
        },
        "valueQuantity": {
          "system": "http://unitsofmeasure.org",
          "value": 3.8,
          "unit": "mmol/L",
          "code": "mmol/L"
        },
        "referenceRange": [
          {
            "low": {
              "value": 3.5,
              "code": "mmol/L",
              "system": "http://unitsofmeasure.org"
            }
          },
          {
            "high": {
              "value": 5.3,
              "code": "mmol/L",
              "system": "http://unitsofmeasure.org"
            }
          }
        ],
        "text": {
          "status": "generated",
          "div": "<div xmlns=\"http://www.w3.org/1999/xhtml\"><table class=\"hl7__eu__lab__report\"><tr><th>Test</th><th>17-Jan-2025</th><th>Reference&#xA0;Range</th><th>Unit</th></tr><tr><td>Potassium [Moles/volume] in Serum or Plasma</td><td>3.8</td><td>3.5 - 5.3</td><td></td><td>mmol/L</td></tr></table></div>"
        },
        "status": "final",
        "subject": {
          "reference": "urn:uuid:8898538e-c42a-4242-95d7-8416f3666e8a",
          "display": "Victor Lagarde"
        },
        "effectiveDateTime": "2025-01-17T04:48:18Z",
        "specimen": {
          "reference": "urn:uuid:43806f97-cc69-4a9d-ac5a-af62fa1c978d"
        }
      }
    },
    {
      "fullUrl": "urn:uuid:24ee23a4-a965-4232-b21b-a48db465674b",
      "resource": {
        "resourceType": "Observation",
        "id": "24ee23a4-a965-4232-b21b-a48db465674b",
        "meta": {
          "profile": [
            "http://hl7.eu/fhir/laboratory/StructureDefinition/Observation-resultslab-eu-lab"
          ]
        },
        "performer": [
          {
            "display": "The Central European Lab"
          }
        ],
        "category": [
          {
            "coding": [
              {
                "system": "http://terminology.hl7.org/CodeSystem/observation-category",
                "code": "laboratory"
              }
            ]
          }
        ],
        "code": {
          "coding": [
            {
              "code": "2075-0",
              "system": "http://loinc.org",
              "display": "Chloride [Moles/volume] in Serum or Plasma"
            }
          ],
          "text": "Chloride [Moles/volume] in Serum or Plasma"
        },
        "valueQuantity": {
          "system": "http://unitsofmeasure.org",
          "value": 110.3,
          "unit": "mmol/L",
          "code": "mmol/L"
        },
        "referenceRange": [
          {
            "low": {
              "value": 98,
              "code": "mmol/L",
              "system": "http://unitsofmeasure.org"
            }
          },
          {
            "high": {
              "value": 107,
              "code": "mmol/L",
              "system": "http://unitsofmeasure.org"
            }
          }
        ],
        "interpretation": [
          {
            "coding": [
              {
                "code": "H",
                "system": "http://terminology.hl7.org/CodeSystem/v3-ObservationInterpretation",
                "display": "High"
              }
            ]
          }
        ],
        "text": {
          "status": "generated",
          "div": "<div xmlns=\"http://www.w3.org/1999/xhtml\"><table class=\"hl7__eu__lab__report\"><tr><th>Test</th><th>17-Jan-2025</th><th>Reference&#xA0;Range</th><th>Unit</th></tr><tr><td>Chloride [Moles/volume] in Serum or Plasma</td><td>110.3</td><td>98 - 107</td><td>H</td><td>mmol/L</td></tr></table></div>"
        },
        "status": "final",
        "subject": {
          "reference": "urn:uuid:8898538e-c42a-4242-95d7-8416f3666e8a",
          "display": "Victor Lagarde"
        },
        "effectiveDateTime": "2025-01-17T04:48:18Z",
        "specimen": {
          "reference": "urn:uuid:43806f97-cc69-4a9d-ac5a-af62fa1c978d"
        }
      }
    },
    {
      "fullUrl": "urn:uuid:72c5dc9c-934b-4ea0-ae8d-57599d20cdc3",
      "resource": {
        "resourceType": "Observation",
        "id": "72c5dc9c-934b-4ea0-ae8d-57599d20cdc3",
        "meta": {
          "profile": [
            "http://hl7.eu/fhir/laboratory/StructureDefinition/Observation-resultslab-eu-lab"
          ]
        },
        "performer": [
          {
            "display": "The Central European Lab"
          }
        ],
        "category": [
          {
            "coding": [
              {
                "system": "http://terminology.hl7.org/CodeSystem/observation-category",
                "code": "laboratory"
              }
            ]
          }
        ],
        "code": {
          "coding": [
            {
              "code": "2028-9",
              "system": "http://loinc.org",
              "display": "Carbon dioxide, total [Moles/volume] in Serum or Plasma"
            }
          ],
          "text": "Carbon dioxide, total [Moles/volume] in Serum or Plasma"
        },
        "valueQuantity": {
          "system": "http://unitsofmeasure.org",
          "value": 22.2,
          "unit": "mmol/L",
          "code": "mmol/L"
        },
        "referenceRange": [
          {
            "low": {
              "value": 22,
              "code": "mmol/L",
              "system": "http://unitsofmeasure.org"
            }
          },
          {
            "high": {
              "value": 33,
              "code": "mmol/L",
              "system": "http://unitsofmeasure.org"
            }
          }
        ],
        "text": {
          "status": "generated",
          "div": "<div xmlns=\"http://www.w3.org/1999/xhtml\"><table class=\"hl7__eu__lab__report\"><tr><th>Test</th><th>17-Jan-2025</th><th>Reference&#xA0;Range</th><th>Unit</th></tr><tr><td>Carbon dioxide, total [Moles/volume] in Serum or Plasma</td><td>22.2</td><td>22 - 33</td><td></td><td>mmol/L</td></tr></table></div>"
        },
        "status": "final",
        "subject": {
          "reference": "urn:uuid:8898538e-c42a-4242-95d7-8416f3666e8a",
          "display": "Victor Lagarde"
        },
        "effectiveDateTime": "2025-01-17T04:48:18Z",
        "specimen": {
          "reference": "urn:uuid:43806f97-cc69-4a9d-ac5a-af62fa1c978d"
        }
      }
    },
    {
      "fullUrl": "urn:uuid:c64bf5cc-342d-4505-bba8-9e75ea619a1e",
      "resource": {
        "resourceType": "Observation",
        "id": "c64bf5cc-342d-4505-bba8-9e75ea619a1e",
        "meta": {
          "profile": [
            "http://hl7.eu/fhir/laboratory/StructureDefinition/Observation-resultslab-eu-lab"
          ]
        },
        "performer": [
          {
            "display": "The Central European Lab"
          }
        ],
        "category": [
          {
            "coding": [
              {
                "system": "http://terminology.hl7.org/CodeSystem/observation-category",
                "code": "laboratory"
              }
            ]
          }
        ],
        "code": {
          "coding": [
            {
              "code": "5767-9",
              "system": "http://loinc.org",
              "display": "Appearance of Urine"
            }
          ],
          "text": "Appearance of Urine"
        },
        "text": {
          "status": "generated",
          "div": "<div xmlns=\"http://www.w3.org/1999/xhtml\"><table class=\"hl7__eu__lab__report\"><tr><th>Test</th><th>17-Jan-2025</th><th>Reference&#xA0;Range</th><th>Unit</th></tr><tr><td>Appearance of Urine</td></tr></table></div>"
        },
        "status": "final",
        "subject": {
          "reference": "urn:uuid:8898538e-c42a-4242-95d7-8416f3666e8a",
          "display": "Victor Lagarde"
        },
        "effectiveDateTime": "2025-01-17T04:48:18Z",
        "specimen": {
          "reference": "urn:uuid:389c8a2e-6803-4128-aa9e-d0f358754dba"
        }
      }
    },
    {
      "fullUrl": "urn:uuid:f534727a-ff28-47c2-bcef-a89863311965",
      "resource": {
        "resourceType": "Observation",
        "id": "f534727a-ff28-47c2-bcef-a89863311965",
        "meta": {
          "profile": [
            "http://hl7.eu/fhir/laboratory/StructureDefinition/Observation-resultslab-eu-lab"
          ]
        },
        "performer": [
          {
            "display": "The Central European Lab"
          }
        ],
        "category": [
          {
            "coding": [
              {
                "system": "http://terminology.hl7.org/CodeSystem/observation-category",
                "code": "laboratory"
              }
            ]
          }
        ],
        "code": {
          "coding": [
            {
              "code": "34533-0",
              "system": "http://loinc.org",
              "display": "Odor of Urine"
            }
          ],
          "text": "Odor of Urine"
        },
        "text": {
          "status": "generated",
          "div": "<div xmlns=\"http://www.w3.org/1999/xhtml\"><table class=\"hl7__eu__lab__report\"><tr><th>Test</th><th>17-Jan-2025</th><th>Reference&#xA0;Range</th><th>Unit</th></tr><tr><td>Odor of Urine</td></tr></table></div>"
        },
        "status": "final",
        "subject": {
          "reference": "urn:uuid:8898538e-c42a-4242-95d7-8416f3666e8a",
          "display": "Victor Lagarde"
        },
        "effectiveDateTime": "2025-01-17T04:48:18Z",
        "specimen": {
          "reference": "urn:uuid:389c8a2e-6803-4128-aa9e-d0f358754dba"
        }
      }
    },
    {
      "fullUrl": "urn:uuid:09a566e6-5f2e-4db8-a182-de5ffb714269",
      "resource": {
        "resourceType": "Observation",
        "id": "09a566e6-5f2e-4db8-a182-de5ffb714269",
        "meta": {
          "profile": [
            "http://hl7.eu/fhir/laboratory/StructureDefinition/Observation-resultslab-eu-lab"
          ]
        },
        "performer": [
          {
            "display": "The Central European Lab"
          }
        ],
        "category": [
          {
            "coding": [
              {
                "system": "http://terminology.hl7.org/CodeSystem/observation-category",
                "code": "laboratory"
              }
            ]
          }
        ],
        "code": {
          "coding": [
            {
              "code": "32167-9",
              "system": "http://loinc.org",
              "display": "Clarity of Urine"
            }
          ],
          "text": "Clarity of Urine"
        },
        "text": {
          "status": "generated",
          "div": "<div xmlns=\"http://www.w3.org/1999/xhtml\"><table class=\"hl7__eu__lab__report\"><tr><th>Test</th><th>17-Jan-2025</th><th>Reference&#xA0;Range</th><th>Unit</th></tr><tr><td>Clarity of Urine</td></tr></table></div>"
        },
        "status": "final",
        "subject": {
          "reference": "urn:uuid:8898538e-c42a-4242-95d7-8416f3666e8a",
          "display": "Victor Lagarde"
        },
        "effectiveDateTime": "2025-01-17T04:48:18Z",
        "specimen": {
          "reference": "urn:uuid:389c8a2e-6803-4128-aa9e-d0f358754dba"
        }
      }
    },
    {
      "fullUrl": "urn:uuid:661c2985-e5c4-470b-b610-f7a8af026911",
      "resource": {
        "resourceType": "Observation",
        "id": "661c2985-e5c4-470b-b610-f7a8af026911",
        "meta": {
          "profile": [
            "http://hl7.eu/fhir/laboratory/StructureDefinition/Observation-resultslab-eu-lab"
          ]
        },
        "performer": [
          {
            "display": "The Central European Lab"
          }
        ],
        "category": [
          {
            "coding": [
              {
                "system": "http://terminology.hl7.org/CodeSystem/observation-category",
                "code": "laboratory"
              }
            ]
          }
        ],
        "code": {
          "coding": [
            {
              "code": "5778-6",
              "system": "http://loinc.org",
              "display": "Color of Urine"
            }
          ],
          "text": "Color of Urine"
        },
        "text": {
          "status": "generated",
          "div": "<div xmlns=\"http://www.w3.org/1999/xhtml\"><table class=\"hl7__eu__lab__report\"><tr><th>Test</th><th>17-Jan-2025</th><th>Reference&#xA0;Range</th><th>Unit</th></tr><tr><td>Color of Urine</td></tr></table></div>"
        },
        "status": "final",
        "subject": {
          "reference": "urn:uuid:8898538e-c42a-4242-95d7-8416f3666e8a",
          "display": "Victor Lagarde"
        },
        "effectiveDateTime": "2025-01-17T04:48:18Z",
        "specimen": {
          "reference": "urn:uuid:389c8a2e-6803-4128-aa9e-d0f358754dba"
        }
      }
    },
    {
      "fullUrl": "urn:uuid:cfceaf69-449e-42f8-9fdd-b2221b251f28",
      "resource": {
        "resourceType": "Observation",
        "id": "cfceaf69-449e-42f8-9fdd-b2221b251f28",
        "meta": {
          "profile": [
            "http://hl7.eu/fhir/laboratory/StructureDefinition/Observation-resultslab-eu-lab"
          ]
        },
        "performer": [
          {
            "display": "The Central European Lab"
          }
        ],
        "category": [
          {
            "coding": [
              {
                "system": "http://terminology.hl7.org/CodeSystem/observation-category",
                "code": "laboratory"
              }
            ]
          }
        ],
        "code": {
          "coding": [
            {
              "code": "5792-7",
              "system": "http://loinc.org",
              "display": "Glucose [Mass/volume] in Urine by Test strip"
            }
          ],
          "text": "Glucose [Mass/volume] in Urine by Test strip"
        },
        "valueQuantity": {
          "system": "http://unitsofmeasure.org",
          "value": 0.9,
          "unit": "mg/dL",
          "code": "mg/dL"
        },
        "referenceRange": [
          {
            "low": {
              "value": 0,
              "code": "mg/dL",
              "system": "http://unitsofmeasure.org"
            }
          },
          {
            "high": {
              "value": 0.8,
              "code": "mg/dL",
              "system": "http://unitsofmeasure.org"
            }
          }
        ],
        "interpretation": [
          {
            "coding": [
              {
                "code": "H",
                "system": "http://terminology.hl7.org/CodeSystem/v3-ObservationInterpretation",
                "display": "High"
              }
            ]
          }
        ],
        "text": {
          "status": "generated",
          "div": "<div xmlns=\"http://www.w3.org/1999/xhtml\"><table class=\"hl7__eu__lab__report\"><tr><th>Test</th><th>17-Jan-2025</th><th>Reference&#xA0;Range</th><th>Unit</th></tr><tr><td>Glucose [Mass/volume] in Urine by Test strip</td><td>0.9</td><td>0 - 0.8</td><td>H</td><td>mg/dL</td></tr></table></div>"
        },
        "status": "final",
        "subject": {
          "reference": "urn:uuid:8898538e-c42a-4242-95d7-8416f3666e8a",
          "display": "Victor Lagarde"
        },
        "effectiveDateTime": "2025-01-17T04:48:18Z",
        "specimen": {
          "reference": "urn:uuid:389c8a2e-6803-4128-aa9e-d0f358754dba"
        }
      }
    },
    {
      "fullUrl": "urn:uuid:da8a2fb6-24e6-4d12-9f1e-27ce8eaaf88c",
      "resource": {
        "resourceType": "Observation",
        "id": "da8a2fb6-24e6-4d12-9f1e-27ce8eaaf88c",
        "meta": {
          "profile": [
            "http://hl7.eu/fhir/laboratory/StructureDefinition/Observation-resultslab-eu-lab"
          ]
        },
        "performer": [
          {
            "display": "The Central European Lab"
          }
        ],
        "category": [
          {
            "coding": [
              {
                "system": "http://terminology.hl7.org/CodeSystem/observation-category",
                "code": "laboratory"
              }
            ]
          }
        ],
        "code": {
          "coding": [
            {
              "code": "25428-4",
              "system": "http://loinc.org",
              "display": "Glucose [Presence] in Urine by Test strip"
            }
          ],
          "text": "Glucose [Presence] in Urine by Test strip"
        },
        "text": {
          "status": "generated",
          "div": "<div xmlns=\"http://www.w3.org/1999/xhtml\"><table class=\"hl7__eu__lab__report\"><tr><th>Test</th><th>17-Jan-2025</th><th>Reference&#xA0;Range</th><th>Unit</th></tr><tr><td>Glucose [Presence] in Urine by Test strip</td></tr></table></div>"
        },
        "status": "final",
        "subject": {
          "reference": "urn:uuid:8898538e-c42a-4242-95d7-8416f3666e8a",
          "display": "Victor Lagarde"
        },
        "effectiveDateTime": "2025-01-17T04:48:18Z",
        "specimen": {
          "reference": "urn:uuid:389c8a2e-6803-4128-aa9e-d0f358754dba"
        }
      }
    },
    {
      "fullUrl": "urn:uuid:ae8eee57-02c6-431a-aff5-02107168f62e",
      "resource": {
        "resourceType": "Observation",
        "id": "ae8eee57-02c6-431a-aff5-02107168f62e",
        "meta": {
          "profile": [
            "http://hl7.eu/fhir/laboratory/StructureDefinition/Observation-resultslab-eu-lab"
          ]
        },
        "performer": [
          {
            "display": "The Central European Lab"
          }
        ],
        "category": [
          {
            "coding": [
              {
                "system": "http://terminology.hl7.org/CodeSystem/observation-category",
                "code": "laboratory"
              }
            ]
          }
        ],
        "code": {
          "coding": [
            {
              "code": "20505-4",
              "system": "http://loinc.org",
              "display": "Bilirubin.total [Mass/volume] in Urine by Test strip"
            }
          ],
          "text": "Bilirubin.total [Mass/volume] in Urine by Test strip"
        },
        "valueQuantity": {
          "system": "http://unitsofmeasure.org",
          "value": 0.5,
          "unit": "mg/dL",
          "code": "mg/dL"
        },
        "referenceRange": [
          {
            "low": {
              "value": 0,
              "code": "mg/dL",
              "system": "http://unitsofmeasure.org"
            }
          },
          {
            "high": {
              "value": 1.9,
              "code": "mg/dL",
              "system": "http://unitsofmeasure.org"
            }
          }
        ],
        "text": {
          "status": "generated",
          "div": "<div xmlns=\"http://www.w3.org/1999/xhtml\"><table class=\"hl7__eu__lab__report\"><tr><th>Test</th><th>17-Jan-2025</th><th>Reference&#xA0;Range</th><th>Unit</th></tr><tr><td>Bilirubin.total [Mass/volume] in Urine by Test strip</td><td>0.5</td><td>0 - 1.9</td><td></td><td>mg/dL</td></tr></table></div>"
        },
        "status": "final",
        "subject": {
          "reference": "urn:uuid:8898538e-c42a-4242-95d7-8416f3666e8a",
          "display": "Victor Lagarde"
        },
        "effectiveDateTime": "2025-01-17T04:48:18Z",
        "specimen": {
          "reference": "urn:uuid:389c8a2e-6803-4128-aa9e-d0f358754dba"
        }
      }
    },
    {
      "fullUrl": "urn:uuid:1c081551-7aa4-4391-b991-1cd0bf016e9b",
      "resource": {
        "resourceType": "Observation",
        "id": "1c081551-7aa4-4391-b991-1cd0bf016e9b",
        "meta": {
          "profile": [
            "http://hl7.eu/fhir/laboratory/StructureDefinition/Observation-resultslab-eu-lab"
          ]
        },
        "performer": [
          {
            "display": "The Central European Lab"
          }
        ],
        "category": [
          {
            "coding": [
              {
                "system": "http://terminology.hl7.org/CodeSystem/observation-category",
                "code": "laboratory"
              }
            ]
          }
        ],
        "code": {
          "coding": [
            {
              "code": "5770-3",
              "system": "http://loinc.org",
              "display": "Bilirubin.total [Presence] in Urine by Test strip"
            }
          ],
          "text": "Bilirubin.total [Presence] in Urine by Test strip"
        },
        "text": {
          "status": "generated",
          "div": "<div xmlns=\"http://www.w3.org/1999/xhtml\"><table class=\"hl7__eu__lab__report\"><tr><th>Test</th><th>17-Jan-2025</th><th>Reference&#xA0;Range</th><th>Unit</th></tr><tr><td>Bilirubin.total [Presence] in Urine by Test strip</td></tr></table></div>"
        },
        "status": "final",
        "subject": {
          "reference": "urn:uuid:8898538e-c42a-4242-95d7-8416f3666e8a",
          "display": "Victor Lagarde"
        },
        "effectiveDateTime": "2025-01-17T04:48:18Z",
        "specimen": {
          "reference": "urn:uuid:389c8a2e-6803-4128-aa9e-d0f358754dba"
        }
      }
    },
    {
      "fullUrl": "urn:uuid:76dde207-4f43-4396-adc9-9901a421e5fa",
      "resource": {
        "resourceType": "Observation",
        "id": "76dde207-4f43-4396-adc9-9901a421e5fa",
        "meta": {
          "profile": [
            "http://hl7.eu/fhir/laboratory/StructureDefinition/Observation-resultslab-eu-lab"
          ]
        },
        "performer": [
          {
            "display": "The Central European Lab"
          }
        ],
        "category": [
          {
            "coding": [
              {
                "system": "http://terminology.hl7.org/CodeSystem/observation-category",
                "code": "laboratory"
              }
            ]
          }
        ],
        "code": {
          "coding": [
            {
              "code": "5797-6",
              "system": "http://loinc.org",
              "display": "Ketones [Mass/volume] in Urine by Test strip"
            }
          ],
          "text": "Ketones [Mass/volume] in Urine by Test strip"
        },
        "valueQuantity": {
          "system": "http://unitsofmeasure.org",
          "value": 10.1,
          "unit": "mg/dL",
          "code": "mg/dL"
        },
        "referenceRange": [
          {
            "low": {
              "value": 0,
              "code": "mg/dL",
              "system": "http://unitsofmeasure.org"
            }
          },
          {
            "high": {
              "value": 3,
              "code": "mg/dL",
              "system": "http://unitsofmeasure.org"
            }
          }
        ],
        "interpretation": [
          {
            "coding": [
              {
                "code": "H",
                "system": "http://terminology.hl7.org/CodeSystem/v3-ObservationInterpretation",
                "display": "High"
              }
            ]
          }
        ],
        "text": {
          "status": "generated",
          "div": "<div xmlns=\"http://www.w3.org/1999/xhtml\"><table class=\"hl7__eu__lab__report\"><tr><th>Test</th><th>17-Jan-2025</th><th>Reference&#xA0;Range</th><th>Unit</th></tr><tr><td>Ketones [Mass/volume] in Urine by Test strip</td><td>10.1</td><td>0 - 3</td><td>H</td><td>mg/dL</td></tr></table></div>"
        },
        "status": "final",
        "subject": {
          "reference": "urn:uuid:8898538e-c42a-4242-95d7-8416f3666e8a",
          "display": "Victor Lagarde"
        },
        "effectiveDateTime": "2025-01-17T04:48:18Z",
        "specimen": {
          "reference": "urn:uuid:389c8a2e-6803-4128-aa9e-d0f358754dba"
        }
      }
    },
    {
      "fullUrl": "urn:uuid:47a13a68-0372-4e85-9c80-9a4446b044d9",
      "resource": {
        "resourceType": "Observation",
        "id": "47a13a68-0372-4e85-9c80-9a4446b044d9",
        "meta": {
          "profile": [
            "http://hl7.eu/fhir/laboratory/StructureDefinition/Observation-resultslab-eu-lab"
          ]
        },
        "performer": [
          {
            "display": "The Central European Lab"
          }
        ],
        "category": [
          {
            "coding": [
              {
                "system": "http://terminology.hl7.org/CodeSystem/observation-category",
                "code": "laboratory"
              }
            ]
          }
        ],
        "code": {
          "coding": [
            {
              "code": "2514-8",
              "system": "http://loinc.org",
              "display": "Ketones [Presence] in Urine by Test strip"
            }
          ],
          "text": "Ketones [Presence] in Urine by Test strip"
        },
        "text": {
          "status": "generated",
          "div": "<div xmlns=\"http://www.w3.org/1999/xhtml\"><table class=\"hl7__eu__lab__report\"><tr><th>Test</th><th>17-Jan-2025</th><th>Reference&#xA0;Range</th><th>Unit</th></tr><tr><td>Ketones [Presence] in Urine by Test strip</td></tr></table></div>"
        },
        "status": "final",
        "subject": {
          "reference": "urn:uuid:8898538e-c42a-4242-95d7-8416f3666e8a",
          "display": "Victor Lagarde"
        },
        "effectiveDateTime": "2025-01-17T04:48:18Z",
        "specimen": {
          "reference": "urn:uuid:389c8a2e-6803-4128-aa9e-d0f358754dba"
        }
      }
    },
    {
      "fullUrl": "urn:uuid:bca89549-e768-4cf2-84cb-f2fd2c0c5c7f",
      "resource": {
        "resourceType": "Observation",
        "id": "bca89549-e768-4cf2-84cb-f2fd2c0c5c7f",
        "meta": {
          "profile": [
            "http://hl7.eu/fhir/laboratory/StructureDefinition/Observation-resultslab-eu-lab"
          ]
        },
        "performer": [
          {
            "display": "The Central European Lab"
          }
        ],
        "category": [
          {
            "coding": [
              {
                "system": "http://terminology.hl7.org/CodeSystem/observation-category",
                "code": "laboratory"
              }
            ]
          }
        ],
        "code": {
          "coding": [
            {
              "code": "5811-5",
              "system": "http://loinc.org",
              "display": "Specific gravity of Urine by Test strip"
            }
          ],
          "text": "Specific gravity of Urine by Test strip"
        },
        "valueQuantity": {
          "system": "http://unitsofmeasure.org",
          "value": 1,
          "unit": "{nominal}",
          "code": "{nominal}"
        },
        "referenceRange": [
          {
            "low": {
              "value": 1.01,
              "code": "g/mL",
              "system": "http://unitsofmeasure.org"
            }
          },
          {
            "high": {
              "value": 1.03,
              "code": "g/mL",
              "system": "http://unitsofmeasure.org"
            }
          }
        ],
        "interpretation": [
          {
            "coding": [
              {
                "code": "L",
                "system": "http://terminology.hl7.org/CodeSystem/v3-ObservationInterpretation",
                "display": "Low"
              }
            ]
          }
        ],
        "text": {
          "status": "generated",
          "div": "<div xmlns=\"http://www.w3.org/1999/xhtml\"><table class=\"hl7__eu__lab__report\"><tr><th>Test</th><th>17-Jan-2025</th><th>Reference&#xA0;Range</th><th>Unit</th></tr><tr><td>Specific gravity of Urine by Test strip</td><td>1.0</td><td>1.01 - 1.03</td><td>L</td><td>{nominal}</td></tr></table></div>"
        },
        "status": "final",
        "subject": {
          "reference": "urn:uuid:8898538e-c42a-4242-95d7-8416f3666e8a",
          "display": "Victor Lagarde"
        },
        "effectiveDateTime": "2025-01-17T04:48:18Z",
        "specimen": {
          "reference": "urn:uuid:389c8a2e-6803-4128-aa9e-d0f358754dba"
        }
      }
    },
    {
      "fullUrl": "urn:uuid:34d97c38-a35b-42bf-92ae-efc70664913b",
      "resource": {
        "resourceType": "Observation",
        "id": "34d97c38-a35b-42bf-92ae-efc70664913b",
        "meta": {
          "profile": [
            "http://hl7.eu/fhir/laboratory/StructureDefinition/Observation-resultslab-eu-lab"
          ]
        },
        "performer": [
          {
            "display": "The Central European Lab"
          }
        ],
        "category": [
          {
            "coding": [
              {
                "system": "http://terminology.hl7.org/CodeSystem/observation-category",
                "code": "laboratory"
              }
            ]
          }
        ],
        "code": {
          "coding": [
            {
              "code": "5803-2",
              "system": "http://loinc.org",
              "display": "pH of Urine by Test strip"
            }
          ],
          "text": "pH of Urine by Test strip"
        },
        "valueQuantity": {
          "system": "http://unitsofmeasure.org",
          "value": 5.9,
          "unit": "pH",
          "code": "pH"
        },
        "referenceRange": [
          {
            "low": {
              "value": 4.5,
              "code": "pH",
              "system": "http://unitsofmeasure.org"
            }
          },
          {
            "high": {
              "value": 7.5,
              "code": "pH",
              "system": "http://unitsofmeasure.org"
            }
          }
        ],
        "text": {
          "status": "generated",
          "div": "<div xmlns=\"http://www.w3.org/1999/xhtml\"><table class=\"hl7__eu__lab__report\"><tr><th>Test</th><th>17-Jan-2025</th><th>Reference&#xA0;Range</th><th>Unit</th></tr><tr><td>pH of Urine by Test strip</td><td>5.9</td><td>4.5 - 7.5</td><td></td><td>pH</td></tr></table></div>"
        },
        "status": "final",
        "subject": {
          "reference": "urn:uuid:8898538e-c42a-4242-95d7-8416f3666e8a",
          "display": "Victor Lagarde"
        },
        "effectiveDateTime": "2025-01-17T04:48:18Z",
        "specimen": {
          "reference": "urn:uuid:389c8a2e-6803-4128-aa9e-d0f358754dba"
        }
      }
    },
    {
      "fullUrl": "urn:uuid:d5ed2bf6-2995-4694-b129-fea59cb64fff",
      "resource": {
        "resourceType": "Observation",
        "id": "d5ed2bf6-2995-4694-b129-fea59cb64fff",
        "meta": {
          "profile": [
            "http://hl7.eu/fhir/laboratory/StructureDefinition/Observation-resultslab-eu-lab"
          ]
        },
        "performer": [
          {
            "display": "The Central European Lab"
          }
        ],
        "category": [
          {
            "coding": [
              {
                "system": "http://terminology.hl7.org/CodeSystem/observation-category",
                "code": "laboratory"
              }
            ]
          }
        ],
        "code": {
          "coding": [
            {
              "code": "5804-0",
              "system": "http://loinc.org",
              "display": "Protein [Mass/volume] in Urine by Test strip"
            }
          ],
          "text": "Protein [Mass/volume] in Urine by Test strip"
        },
        "valueQuantity": {
          "system": "http://unitsofmeasure.org",
          "value": 393.9,
          "unit": "mg/dL",
          "code": "mg/dL"
        },
        "referenceRange": [
          {
            "low": {
              "value": 0,
              "code": "mg/dL",
              "system": "http://unitsofmeasure.org"
            }
          },
          {
            "high": {
              "value": 149,
              "code": "mg/dL",
              "system": "http://unitsofmeasure.org"
            }
          }
        ],
        "interpretation": [
          {
            "coding": [
              {
                "code": "H",
                "system": "http://terminology.hl7.org/CodeSystem/v3-ObservationInterpretation",
                "display": "High"
              }
            ]
          }
        ],
        "text": {
          "status": "generated",
          "div": "<div xmlns=\"http://www.w3.org/1999/xhtml\"><table class=\"hl7__eu__lab__report\"><tr><th>Test</th><th>17-Jan-2025</th><th>Reference&#xA0;Range</th><th>Unit</th></tr><tr><td>Protein [Mass/volume] in Urine by Test strip</td><td>393.9</td><td>0 - 149</td><td>H</td><td>mg/dL</td></tr></table></div>"
        },
        "status": "final",
        "subject": {
          "reference": "urn:uuid:8898538e-c42a-4242-95d7-8416f3666e8a",
          "display": "Victor Lagarde"
        },
        "effectiveDateTime": "2025-01-17T04:48:18Z",
        "specimen": {
          "reference": "urn:uuid:389c8a2e-6803-4128-aa9e-d0f358754dba"
        }
      }
    },
    {
      "fullUrl": "urn:uuid:0b9cf84e-306b-4cf8-ad51-dcda751a3b8b",
      "resource": {
        "resourceType": "Observation",
        "id": "0b9cf84e-306b-4cf8-ad51-dcda751a3b8b",
        "meta": {
          "profile": [
            "http://hl7.eu/fhir/laboratory/StructureDefinition/Observation-resultslab-eu-lab"
          ]
        },
        "performer": [
          {
            "display": "The Central European Lab"
          }
        ],
        "category": [
          {
            "coding": [
              {
                "system": "http://terminology.hl7.org/CodeSystem/observation-category",
                "code": "laboratory"
              }
            ]
          }
        ],
        "code": {
          "coding": [
            {
              "code": "20454-5",
              "system": "http://loinc.org",
              "display": "Protein [Presence] in Urine by Test strip"
            }
          ],
          "text": "Protein [Presence] in Urine by Test strip"
        },
        "text": {
          "status": "generated",
          "div": "<div xmlns=\"http://www.w3.org/1999/xhtml\"><table class=\"hl7__eu__lab__report\"><tr><th>Test</th><th>17-Jan-2025</th><th>Reference&#xA0;Range</th><th>Unit</th></tr><tr><td>Protein [Presence] in Urine by Test strip</td></tr></table></div>"
        },
        "status": "final",
        "subject": {
          "reference": "urn:uuid:8898538e-c42a-4242-95d7-8416f3666e8a",
          "display": "Victor Lagarde"
        },
        "effectiveDateTime": "2025-01-17T04:48:18Z",
        "specimen": {
          "reference": "urn:uuid:389c8a2e-6803-4128-aa9e-d0f358754dba"
        }
      }
    },
    {
      "fullUrl": "urn:uuid:f4d70855-560d-424e-9501-6a49af734a11",
      "resource": {
        "resourceType": "Observation",
        "id": "f4d70855-560d-424e-9501-6a49af734a11",
        "meta": {
          "profile": [
            "http://hl7.eu/fhir/laboratory/StructureDefinition/Observation-resultslab-eu-lab"
          ]
        },
        "performer": [
          {
            "display": "The Central European Lab"
          }
        ],
        "category": [
          {
            "coding": [
              {
                "system": "http://terminology.hl7.org/CodeSystem/observation-category",
                "code": "laboratory"
              }
            ]
          }
        ],
        "code": {
          "coding": [
            {
              "code": "5802-4",
              "system": "http://loinc.org",
              "display": "Nitrite [Presence] in Urine by Test strip"
            }
          ],
          "text": "Nitrite [Presence] in Urine by Test strip"
        },
        "text": {
          "status": "generated",
          "div": "<div xmlns=\"http://www.w3.org/1999/xhtml\"><table class=\"hl7__eu__lab__report\"><tr><th>Test</th><th>17-Jan-2025</th><th>Reference&#xA0;Range</th><th>Unit</th></tr><tr><td>Nitrite [Presence] in Urine by Test strip</td></tr></table></div>"
        },
        "status": "final",
        "subject": {
          "reference": "urn:uuid:8898538e-c42a-4242-95d7-8416f3666e8a",
          "display": "Victor Lagarde"
        },
        "effectiveDateTime": "2025-01-17T04:48:18Z",
        "specimen": {
          "reference": "urn:uuid:389c8a2e-6803-4128-aa9e-d0f358754dba"
        }
      }
    },
    {
      "fullUrl": "urn:uuid:87fc905b-0fb7-46c8-9da0-1a15871ce379",
      "resource": {
        "resourceType": "Observation",
        "id": "87fc905b-0fb7-46c8-9da0-1a15871ce379",
        "meta": {
          "profile": [
            "http://hl7.eu/fhir/laboratory/StructureDefinition/Observation-resultslab-eu-lab"
          ]
        },
        "performer": [
          {
            "display": "The Central European Lab"
          }
        ],
        "category": [
          {
            "coding": [
              {
                "system": "http://terminology.hl7.org/CodeSystem/observation-category",
                "code": "laboratory"
              }
            ]
          }
        ],
        "code": {
          "coding": [
            {
              "code": "5794-3",
              "system": "http://loinc.org",
              "display": "Hemoglobin [Presence] in Urine by Test strip"
            }
          ],
          "text": "Hemoglobin [Presence] in Urine by Test strip"
        },
        "text": {
          "status": "generated",
          "div": "<div xmlns=\"http://www.w3.org/1999/xhtml\"><table class=\"hl7__eu__lab__report\"><tr><th>Test</th><th>17-Jan-2025</th><th>Reference&#xA0;Range</th><th>Unit</th></tr><tr><td>Hemoglobin [Presence] in Urine by Test strip</td></tr></table></div>"
        },
        "status": "final",
        "subject": {
          "reference": "urn:uuid:8898538e-c42a-4242-95d7-8416f3666e8a",
          "display": "Victor Lagarde"
        },
        "effectiveDateTime": "2025-01-17T04:48:18Z",
        "specimen": {
          "reference": "urn:uuid:389c8a2e-6803-4128-aa9e-d0f358754dba"
        }
      }
    },
    {
      "fullUrl": "urn:uuid:1137bc93-f1a7-4498-8273-ff11169c4d4f",
      "resource": {
        "resourceType": "Observation",
        "id": "1137bc93-f1a7-4498-8273-ff11169c4d4f",
        "meta": {
          "profile": [
            "http://hl7.eu/fhir/laboratory/StructureDefinition/Observation-resultslab-eu-lab"
          ]
        },
        "performer": [
          {
            "display": "The Central European Lab"
          }
        ],
        "category": [
          {
            "coding": [
              {
                "system": "http://terminology.hl7.org/CodeSystem/observation-category",
                "code": "laboratory"
              }
            ]
          }
        ],
        "code": {
          "coding": [
            {
              "code": "5799-2",
              "system": "http://loinc.org",
              "display": "Leukocyte esterase [Presence] in Urine by Test strip"
            }
          ],
          "text": "Leukocyte esterase [Presence] in Urine by Test strip"
        },
        "text": {
          "status": "generated",
          "div": "<div xmlns=\"http://www.w3.org/1999/xhtml\"><table class=\"hl7__eu__lab__report\"><tr><th>Test</th><th>17-Jan-2025</th><th>Reference&#xA0;Range</th><th>Unit</th></tr><tr><td>Leukocyte esterase [Presence] in Urine by Test strip</td></tr></table></div>"
        },
        "status": "final",
        "subject": {
          "reference": "urn:uuid:8898538e-c42a-4242-95d7-8416f3666e8a",
          "display": "Victor Lagarde"
        },
        "effectiveDateTime": "2025-01-17T04:48:18Z",
        "specimen": {
          "reference": "urn:uuid:389c8a2e-6803-4128-aa9e-d0f358754dba"
        }
      }
    },
    {
      "fullUrl": "urn:uuid:d03920bb-cf36-40bc-8e0d-e1e3ba853869",
      "resource": {
        "resourceType": "Observation",
        "id": "d03920bb-cf36-40bc-8e0d-e1e3ba853869",
        "meta": {
          "profile": [
            "http://hl7.eu/fhir/laboratory/StructureDefinition/Observation-resultslab-eu-lab"
          ]
        },
        "performer": [
          {
            "display": "The Central European Lab"
          }
        ],
        "category": [
          {
            "coding": [
              {
                "system": "http://terminology.hl7.org/CodeSystem/observation-category",
                "code": "laboratory"
              }
            ]
          }
        ],
        "code": {
          "coding": [
            {
              "code": "4548-4",
              "system": "http://loinc.org",
              "display": "Hemoglobin A1c/Hemoglobin.total in Blood"
            }
          ],
          "text": "Hemoglobin A1c/Hemoglobin.total in Blood"
        },
        "valueQuantity": {
          "system": "http://unitsofmeasure.org",
          "value": 3,
          "unit": "%",
          "code": "%"
        },
        "referenceRange": [
          {
            "low": {
              "value": 4.3,
              "code": "%",
              "system": "http://unitsofmeasure.org"
            }
          },
          {
            "high": {
              "value": 6,
              "code": "%",
              "system": "http://unitsofmeasure.org"
            }
          }
        ],
        "interpretation": [
          {
            "coding": [
              {
                "code": "L",
                "system": "http://terminology.hl7.org/CodeSystem/v3-ObservationInterpretation",
                "display": "Low"
              }
            ]
          }
        ],
        "text": {
          "status": "generated",
          "div": "<div xmlns=\"http://www.w3.org/1999/xhtml\"><table class=\"hl7__eu__lab__report\"><tr><th>Test</th><th>17-Jan-2025</th><th>Reference&#xA0;Range</th><th>Unit</th></tr><tr><td>Hemoglobin A1c/Hemoglobin.total in Blood</td><td>3.0</td><td>4.3 - 6</td><td>L</td><td>%</td></tr></table></div>"
        },
        "status": "final",
        "subject": {
          "reference": "urn:uuid:8898538e-c42a-4242-95d7-8416f3666e8a",
          "display": "Victor Lagarde"
        },
        "effectiveDateTime": "2025-01-17T04:48:18Z",
        "specimen": {
          "reference": "urn:uuid:d8fe96f9-cba7-4d37-8b75-157bc9eb9fa5"
        }
      }
    },
    {
      "fullUrl": "urn:uuid:fd5bf503-8ad8-47b0-bca6-c2e326396843",
      "resource": {
        "resourceType": "Observation",
        "id": "fd5bf503-8ad8-47b0-bca6-c2e326396843",
        "meta": {
          "profile": [
            "http://hl7.eu/fhir/laboratory/StructureDefinition/Observation-resultslab-eu-lab"
          ]
        },
        "performer": [
          {
            "display": "The Central European Lab"
          }
        ],
        "category": [
          {
            "coding": [
              {
                "system": "http://terminology.hl7.org/CodeSystem/observation-category",
                "code": "laboratory"
              }
            ]
          }
        ],
        "code": {
          "coding": [
            {
              "code": "2339-0",
              "system": "http://loinc.org",
              "display": "Glucose [Mass/volume] in Blood"
            }
          ],
          "text": "Glucose [Mass/volume] in Blood"
        },
        "valueQuantity": {
          "system": "http://unitsofmeasure.org",
          "value": 91.8,
          "unit": "mg/dL",
          "code": "mg/dL"
        },
        "referenceRange": [
          {
            "low": {
              "value": 70,
              "code": "mg/dL",
              "system": "http://unitsofmeasure.org"
            }
          },
          {
            "high": {
              "value": 140,
              "code": "mg/dL",
              "system": "http://unitsofmeasure.org"
            }
          }
        ],
        "text": {
          "status": "generated",
          "div": "<div xmlns=\"http://www.w3.org/1999/xhtml\"><table class=\"hl7__eu__lab__report\"><tr><th>Test</th><th>17-Jan-2025</th><th>Reference&#xA0;Range</th><th>Unit</th></tr><tr><td>Glucose [Mass/volume] in Blood</td><td>91.8</td><td>70 - 140</td><td></td><td>mg/dL</td></tr></table></div>"
        },
        "status": "final",
        "subject": {
          "reference": "urn:uuid:8898538e-c42a-4242-95d7-8416f3666e8a",
          "display": "Victor Lagarde"
        },
        "effectiveDateTime": "2025-01-17T04:48:18Z",
        "specimen": {
          "reference": "urn:uuid:d8fe96f9-cba7-4d37-8b75-157bc9eb9fa5"
        }
      }
    },
    {
      "fullUrl": "urn:uuid:ae701041-ebf7-4d09-bead-3a4787efd75d",
      "resource": {
        "resourceType": "Observation",
        "id": "ae701041-ebf7-4d09-bead-3a4787efd75d",
        "meta": {
          "profile": [
            "http://hl7.eu/fhir/laboratory/StructureDefinition/Observation-resultslab-eu-lab"
          ]
        },
        "performer": [
          {
            "display": "The Central European Lab"
          }
        ],
        "category": [
          {
            "coding": [
              {
                "system": "http://terminology.hl7.org/CodeSystem/observation-category",
                "code": "laboratory"
              }
            ]
          }
        ],
        "code": {
          "coding": [
            {
              "code": "6299-2",
              "system": "http://loinc.org",
              "display": "Urea nitrogen [Mass/volume] in Blood"
            }
          ],
          "text": "Urea nitrogen [Mass/volume] in Blood"
        },
        "valueQuantity": {
          "system": "http://unitsofmeasure.org",
          "value": 7.1,
          "unit": "mg/dL",
          "code": "mg/dL"
        },
        "referenceRange": [
          {
            "low": {
              "value": 7,
              "code": "mg/dL",
              "system": "http://unitsofmeasure.org"
            }
          },
          {
            "high": {
              "value": 20,
              "code": "mg/dL",
              "system": "http://unitsofmeasure.org"
            }
          }
        ],
        "text": {
          "status": "generated",
          "div": "<div xmlns=\"http://www.w3.org/1999/xhtml\"><table class=\"hl7__eu__lab__report\"><tr><th>Test</th><th>17-Jan-2025</th><th>Reference&#xA0;Range</th><th>Unit</th></tr><tr><td>Urea nitrogen [Mass/volume] in Blood</td><td>7.1</td><td>7 - 20</td><td></td><td>mg/dL</td></tr></table></div>"
        },
        "status": "final",
        "subject": {
          "reference": "urn:uuid:8898538e-c42a-4242-95d7-8416f3666e8a",
          "display": "Victor Lagarde"
        },
        "effectiveDateTime": "2025-01-17T04:48:18Z",
        "specimen": {
          "reference": "urn:uuid:d8fe96f9-cba7-4d37-8b75-157bc9eb9fa5"
        }
      }
    },
    {
      "fullUrl": "urn:uuid:0215bf79-26b1-4c46-b2f8-436506dead9e",
      "resource": {
        "resourceType": "Observation",
        "id": "0215bf79-26b1-4c46-b2f8-436506dead9e",
        "meta": {
          "profile": [
            "http://hl7.eu/fhir/laboratory/StructureDefinition/Observation-resultslab-eu-lab"
          ]
        },
        "performer": [
          {
            "display": "The Central European Lab"
          }
        ],
        "category": [
          {
            "coding": [
              {
                "system": "http://terminology.hl7.org/CodeSystem/observation-category",
                "code": "laboratory"
              }
            ]
          }
        ],
        "code": {
          "coding": [
            {
              "code": "38483-4",
              "system": "http://loinc.org",
              "display": "Creatinine [Mass/volume] in Blood"
            }
          ],
          "text": "Creatinine [Mass/volume] in Blood"
        },
        "valueQuantity": {
          "system": "http://unitsofmeasure.org",
          "value": 2.9,
          "unit": "mg/dL",
          "code": "mg/dL"
        },
        "referenceRange": [
          {
            "low": {
              "value": 0.9,
              "code": "mg/dL",
              "system": "http://unitsofmeasure.org"
            }
          },
          {
            "high": {
              "value": 1.3,
              "code": "mg/dL",
              "system": "http://unitsofmeasure.org"
            }
          }
        ],
        "interpretation": [
          {
            "coding": [
              {
                "code": "H",
                "system": "http://terminology.hl7.org/CodeSystem/v3-ObservationInterpretation",
                "display": "High"
              }
            ]
          }
        ],
        "text": {
          "status": "generated",
          "div": "<div xmlns=\"http://www.w3.org/1999/xhtml\"><table class=\"hl7__eu__lab__report\"><tr><th>Test</th><th>17-Jan-2025</th><th>Reference&#xA0;Range</th><th>Unit</th></tr><tr><td>Creatinine [Mass/volume] in Blood</td><td>2.9</td><td>0.9 - 1.3</td><td>H</td><td>mg/dL</td></tr></table></div>"
        },
        "status": "final",
        "subject": {
          "reference": "urn:uuid:8898538e-c42a-4242-95d7-8416f3666e8a",
          "display": "Victor Lagarde"
        },
        "effectiveDateTime": "2025-01-17T04:48:18Z",
        "specimen": {
          "reference": "urn:uuid:d8fe96f9-cba7-4d37-8b75-157bc9eb9fa5"
        }
      }
    },
    {
      "fullUrl": "urn:uuid:66fcce57-256a-4fcb-ae14-0829ccb62e45",
      "resource": {
        "resourceType": "Observation",
        "id": "66fcce57-256a-4fcb-ae14-0829ccb62e45",
        "meta": {
          "profile": [
            "http://hl7.eu/fhir/laboratory/StructureDefinition/Observation-resultslab-eu-lab"
          ]
        },
        "performer": [
          {
            "display": "The Central European Lab"
          }
        ],
        "category": [
          {
            "coding": [
              {
                "system": "http://terminology.hl7.org/CodeSystem/observation-category",
                "code": "laboratory"
              }
            ]
          }
        ],
        "code": {
          "coding": [
            {
              "code": "49765-1",
              "system": "http://loinc.org",
              "display": "Calcium [Mass/volume] in Blood"
            }
          ],
          "text": "Calcium [Mass/volume] in Blood"
        },
        "valueQuantity": {
          "system": "http://unitsofmeasure.org",
          "value": 8.7,
          "unit": "mg/dL",
          "code": "mg/dL"
        },
        "referenceRange": [
          {
            "low": {
              "value": 8.5,
              "code": "mg/dL",
              "system": "http://unitsofmeasure.org"
            }
          },
          {
            "high": {
              "value": 10.5,
              "code": "mg/dL",
              "system": "http://unitsofmeasure.org"
            }
          }
        ],
        "text": {
          "status": "generated",
          "div": "<div xmlns=\"http://www.w3.org/1999/xhtml\"><table class=\"hl7__eu__lab__report\"><tr><th>Test</th><th>17-Jan-2025</th><th>Reference&#xA0;Range</th><th>Unit</th></tr><tr><td>Calcium [Mass/volume] in Blood</td><td>8.7</td><td>8.5 - 10.5</td><td></td><td>mg/dL</td></tr></table></div>"
        },
        "status": "final",
        "subject": {
          "reference": "urn:uuid:8898538e-c42a-4242-95d7-8416f3666e8a",
          "display": "Victor Lagarde"
        },
        "effectiveDateTime": "2025-01-17T04:48:18Z",
        "specimen": {
          "reference": "urn:uuid:d8fe96f9-cba7-4d37-8b75-157bc9eb9fa5"
        }
      }
    },
    {
      "fullUrl": "urn:uuid:633dc38f-bf56-4e19-b9ad-68242b6f57f5",
      "resource": {
        "resourceType": "Observation",
        "id": "633dc38f-bf56-4e19-b9ad-68242b6f57f5",
        "meta": {
          "profile": [
            "http://hl7.eu/fhir/laboratory/StructureDefinition/Observation-resultslab-eu-lab"
          ]
        },
        "performer": [
          {
            "display": "The Central European Lab"
          }
        ],
        "category": [
          {
            "coding": [
              {
                "system": "http://terminology.hl7.org/CodeSystem/observation-category",
                "code": "laboratory"
              }
            ]
          }
        ],
        "code": {
          "coding": [
            {
              "code": "2947-0",
              "system": "http://loinc.org",
              "display": "Sodium [Moles/volume] in Blood"
            }
          ],
          "text": "Sodium [Moles/volume] in Blood"
        },
        "valueQuantity": {
          "system": "http://unitsofmeasure.org",
          "value": 138.8,
          "unit": "mmol/L",
          "code": "mmol/L"
        },
        "referenceRange": [
          {
            "low": {
              "value": 135,
              "code": "mmol/L",
              "system": "http://unitsofmeasure.org"
            }
          },
          {
            "high": {
              "value": 145,
              "code": "mmol/L",
              "system": "http://unitsofmeasure.org"
            }
          }
        ],
        "text": {
          "status": "generated",
          "div": "<div xmlns=\"http://www.w3.org/1999/xhtml\"><table class=\"hl7__eu__lab__report\"><tr><th>Test</th><th>17-Jan-2025</th><th>Reference&#xA0;Range</th><th>Unit</th></tr><tr><td>Sodium [Moles/volume] in Blood</td><td>138.8</td><td>135 - 145</td><td></td><td>mmol/L</td></tr></table></div>"
        },
        "status": "final",
        "subject": {
          "reference": "urn:uuid:8898538e-c42a-4242-95d7-8416f3666e8a",
          "display": "Victor Lagarde"
        },
        "effectiveDateTime": "2025-01-17T04:48:18Z",
        "specimen": {
          "reference": "urn:uuid:d8fe96f9-cba7-4d37-8b75-157bc9eb9fa5"
        }
      }
    },
    {
      "fullUrl": "urn:uuid:1387f3cc-8bbc-46b0-a6c1-fad89f3cd14e",
      "resource": {
        "resourceType": "Observation",
        "id": "1387f3cc-8bbc-46b0-a6c1-fad89f3cd14e",
        "meta": {
          "profile": [
            "http://hl7.eu/fhir/laboratory/StructureDefinition/Observation-resultslab-eu-lab"
          ]
        },
        "performer": [
          {
            "display": "The Central European Lab"
          }
        ],
        "category": [
          {
            "coding": [
              {
                "system": "http://terminology.hl7.org/CodeSystem/observation-category",
                "code": "laboratory"
              }
            ]
          }
        ],
        "code": {
          "coding": [
            {
              "code": "6298-4",
              "system": "http://loinc.org",
              "display": "Potassium [Moles/volume] in Blood"
            }
          ],
          "text": "Potassium [Moles/volume] in Blood"
        },
        "valueQuantity": {
          "system": "http://unitsofmeasure.org",
          "value": 3.8,
          "unit": "mmol/L",
          "code": "mmol/L"
        },
        "referenceRange": [
          {
            "low": {
              "value": 3.5,
              "code": "mmol/L",
              "system": "http://unitsofmeasure.org"
            }
          },
          {
            "high": {
              "value": 5.1,
              "code": "mmol/L",
              "system": "http://unitsofmeasure.org"
            }
          }
        ],
        "text": {
          "status": "generated",
          "div": "<div xmlns=\"http://www.w3.org/1999/xhtml\"><table class=\"hl7__eu__lab__report\"><tr><th>Test</th><th>17-Jan-2025</th><th>Reference&#xA0;Range</th><th>Unit</th></tr><tr><td>Potassium [Moles/volume] in Blood</td><td>3.8</td><td>3.5 - 5.1</td><td></td><td>mmol/L</td></tr></table></div>"
        },
        "status": "final",
        "subject": {
          "reference": "urn:uuid:8898538e-c42a-4242-95d7-8416f3666e8a",
          "display": "Victor Lagarde"
        },
        "effectiveDateTime": "2025-01-17T04:48:18Z",
        "specimen": {
          "reference": "urn:uuid:d8fe96f9-cba7-4d37-8b75-157bc9eb9fa5"
        }
      }
    },
    {
      "fullUrl": "urn:uuid:324970bd-6615-43f8-82ad-dbba0701e69f",
      "resource": {
        "resourceType": "Observation",
        "id": "324970bd-6615-43f8-82ad-dbba0701e69f",
        "meta": {
          "profile": [
            "http://hl7.eu/fhir/laboratory/StructureDefinition/Observation-resultslab-eu-lab"
          ]
        },
        "performer": [
          {
            "display": "The Central European Lab"
          }
        ],
        "category": [
          {
            "coding": [
              {
                "system": "http://terminology.hl7.org/CodeSystem/observation-category",
                "code": "laboratory"
              }
            ]
          }
        ],
        "code": {
          "coding": [
            {
              "code": "2069-3",
              "system": "http://loinc.org",
              "display": "Chloride [Moles/volume] in Blood"
            }
          ],
          "text": "Chloride [Moles/volume] in Blood"
        },
        "valueQuantity": {
          "system": "http://unitsofmeasure.org",
          "value": 110.3,
          "unit": "mmol/L",
          "code": "mmol/L"
        },
        "referenceRange": [
          {
            "low": {
              "value": 98,
              "code": "mmol/L",
              "system": "http://unitsofmeasure.org"
            }
          },
          {
            "high": {
              "value": 108,
              "code": "mmol/L",
              "system": "http://unitsofmeasure.org"
            }
          }
        ],
        "interpretation": [
          {
            "coding": [
              {
                "code": "H",
                "system": "http://terminology.hl7.org/CodeSystem/v3-ObservationInterpretation",
                "display": "High"
              }
            ]
          }
        ],
        "text": {
          "status": "generated",
          "div": "<div xmlns=\"http://www.w3.org/1999/xhtml\"><table class=\"hl7__eu__lab__report\"><tr><th>Test</th><th>17-Jan-2025</th><th>Reference&#xA0;Range</th><th>Unit</th></tr><tr><td>Chloride [Moles/volume] in Blood</td><td>110.3</td><td>98 - 108</td><td>H</td><td>mmol/L</td></tr></table></div>"
        },
        "status": "final",
        "subject": {
          "reference": "urn:uuid:8898538e-c42a-4242-95d7-8416f3666e8a",
          "display": "Victor Lagarde"
        },
        "effectiveDateTime": "2025-01-17T04:48:18Z",
        "specimen": {
          "reference": "urn:uuid:d8fe96f9-cba7-4d37-8b75-157bc9eb9fa5"
        }
      }
    },
    {
      "fullUrl": "urn:uuid:5182abd3-2745-4a63-9061-999a798001fb",
      "resource": {
        "resourceType": "Observation",
        "id": "5182abd3-2745-4a63-9061-999a798001fb",
        "meta": {
          "profile": [
            "http://hl7.eu/fhir/laboratory/StructureDefinition/Observation-resultslab-eu-lab"
          ]
        },
        "performer": [
          {
            "display": "The Central European Lab"
          }
        ],
        "category": [
          {
            "coding": [
              {
                "system": "http://terminology.hl7.org/CodeSystem/observation-category",
                "code": "laboratory"
              }
            ]
          }
        ],
        "code": {
          "coding": [
            {
              "code": "20565-8",
              "system": "http://loinc.org",
              "display": "Carbon dioxide, total [Moles/volume] in Blood"
            }
          ],
          "text": "Carbon dioxide, total [Moles/volume] in Blood"
        },
        "valueQuantity": {
          "system": "http://unitsofmeasure.org",
          "value": 22.2,
          "unit": "mmol/L",
          "code": "mmol/L"
        },
        "referenceRange": [
          {
            "low": {
              "value": 22,
              "code": "mmol/L",
              "system": "http://unitsofmeasure.org"
            }
          },
          {
            "high": {
              "value": 29,
              "code": "mmol/L",
              "system": "http://unitsofmeasure.org"
            }
          }
        ],
        "text": {
          "status": "generated",
          "div": "<div xmlns=\"http://www.w3.org/1999/xhtml\"><table class=\"hl7__eu__lab__report\"><tr><th>Test</th><th>17-Jan-2025</th><th>Reference&#xA0;Range</th><th>Unit</th></tr><tr><td>Carbon dioxide, total [Moles/volume] in Blood</td><td>22.2</td><td>22 - 29</td><td></td><td>mmol/L</td></tr></table></div>"
        },
        "status": "final",
        "subject": {
          "reference": "urn:uuid:8898538e-c42a-4242-95d7-8416f3666e8a",
          "display": "Victor Lagarde"
        },
        "effectiveDateTime": "2025-01-17T04:48:18Z",
        "specimen": {
          "reference": "urn:uuid:d8fe96f9-cba7-4d37-8b75-157bc9eb9fa5"
        }
      }
    },
    {
      "fullUrl": "urn:uuid:6a817985-98e6-4315-9031-8b592168fad0",
      "resource": {
        "resourceType": "Observation",
        "id": "6a817985-98e6-4315-9031-8b592168fad0",
        "meta": {
          "profile": [
            "http://hl7.eu/fhir/laboratory/StructureDefinition/Observation-resultslab-eu-lab"
          ]
        },
        "performer": [
          {
            "display": "The Central European Lab"
          }
        ],
        "category": [
          {
            "coding": [
              {
                "system": "http://terminology.hl7.org/CodeSystem/observation-category",
                "code": "laboratory"
              }
            ]
          }
        ],
        "code": {
          "coding": [
            {
              "code": "2093-3",
              "system": "http://loinc.org",
              "display": "Cholesterol [Mass/volume] in Serum or Plasma"
            }
          ],
          "text": "Cholesterol [Mass/volume] in Serum or Plasma"
        },
        "valueQuantity": {
          "system": "http://unitsofmeasure.org",
          "value": 145.4,
          "unit": "mg/dL",
          "code": "mg/dL"
        },
        "referenceRange": [
          {
            "low": {
              "value": 0,
              "code": "mg/dL",
              "system": "http://unitsofmeasure.org"
            }
          },
          {
            "high": {
              "value": 200,
              "code": "mg/dL",
              "system": "http://unitsofmeasure.org"
            }
          }
        ],
        "text": {
          "status": "generated",
          "div": "<div xmlns=\"http://www.w3.org/1999/xhtml\"><table class=\"hl7__eu__lab__report\"><tr><th>Test</th><th>17-Jan-2025</th><th>Reference&#xA0;Range</th><th>Unit</th></tr><tr><td>Cholesterol [Mass/volume] in Serum or Plasma</td><td>145.4</td><td>0 - 200</td><td></td><td>mg/dL</td></tr></table></div>"
        },
        "status": "final",
        "subject": {
          "reference": "urn:uuid:8898538e-c42a-4242-95d7-8416f3666e8a",
          "display": "Victor Lagarde"
        },
        "effectiveDateTime": "2025-01-17T04:48:18Z",
        "specimen": {
          "reference": "urn:uuid:43806f97-cc69-4a9d-ac5a-af62fa1c978d"
        }
      }
    },
    {
      "fullUrl": "urn:uuid:dc35990b-d267-4968-9283-28fb3c6dc583",
      "resource": {
        "resourceType": "Observation",
        "id": "dc35990b-d267-4968-9283-28fb3c6dc583",
        "meta": {
          "profile": [
            "http://hl7.eu/fhir/laboratory/StructureDefinition/Observation-resultslab-eu-lab"
          ]
        },
        "performer": [
          {
            "display": "The Central European Lab"
          }
        ],
        "category": [
          {
            "coding": [
              {
                "system": "http://terminology.hl7.org/CodeSystem/observation-category",
                "code": "laboratory"
              }
            ]
          }
        ],
        "code": {
          "coding": [
            {
              "code": "2571-8",
              "system": "http://loinc.org",
              "display": "Triglyceride [Mass/volume] in Serum or Plasma"
            }
          ],
          "text": "Triglyceride [Mass/volume] in Serum or Plasma"
        },
        "valueQuantity": {
          "system": "http://unitsofmeasure.org",
          "value": 128.2,
          "unit": "mg/dL",
          "code": "mg/dL"
        },
        "referenceRange": [
          {
            "low": {
              "value": 0,
              "code": "mg/dL",
              "system": "http://unitsofmeasure.org"
            }
          },
          {
            "high": {
              "value": 199,
              "code": "mg/dL",
              "system": "http://unitsofmeasure.org"
            }
          }
        ],
        "text": {
          "status": "generated",
          "div": "<div xmlns=\"http://www.w3.org/1999/xhtml\"><table class=\"hl7__eu__lab__report\"><tr><th>Test</th><th>17-Jan-2025</th><th>Reference&#xA0;Range</th><th>Unit</th></tr><tr><td>Triglyceride [Mass/volume] in Serum or Plasma</td><td>128.2</td><td>0 - 199</td><td></td><td>mg/dL</td></tr></table></div>"
        },
        "status": "final",
        "subject": {
          "reference": "urn:uuid:8898538e-c42a-4242-95d7-8416f3666e8a",
          "display": "Victor Lagarde"
        },
        "effectiveDateTime": "2025-01-17T04:48:18Z",
        "specimen": {
          "reference": "urn:uuid:43806f97-cc69-4a9d-ac5a-af62fa1c978d"
        }
      }
    },
    {
      "fullUrl": "urn:uuid:385ae5e4-f696-4ddd-ab63-e608544548e7",
      "resource": {
        "resourceType": "Observation",
        "id": "385ae5e4-f696-4ddd-ab63-e608544548e7",
        "meta": {
          "profile": [
            "http://hl7.eu/fhir/laboratory/StructureDefinition/Observation-resultslab-eu-lab"
          ]
        },
        "performer": [
          {
            "display": "The Central European Lab"
          }
        ],
        "category": [
          {
            "coding": [
              {
                "system": "http://terminology.hl7.org/CodeSystem/observation-category",
                "code": "laboratory"
              }
            ]
          }
        ],
        "code": {
          "coding": [
            {
              "code": "18262-6",
              "system": "http://loinc.org",
              "display": "Cholesterol in LDL [Mass/volume] in Serum or Plasma by Direct assay"
            }
          ],
          "text": "Cholesterol in LDL [Mass/volume] in Serum or Plasma by Direct assay"
        },
        "valueQuantity": {
          "system": "http://unitsofmeasure.org",
          "value": 91.5,
          "unit": "mg/dL",
          "code": "mg/dL"
        },
        "referenceRange": [
          {
            "low": {
              "value": 0,
              "code": "mg/dL",
              "system": "http://unitsofmeasure.org"
            }
          },
          {
            "high": {
              "value": 130,
              "code": "mg/dL",
              "system": "http://unitsofmeasure.org"
            }
          }
        ],
        "text": {
          "status": "generated",
          "div": "<div xmlns=\"http://www.w3.org/1999/xhtml\"><table class=\"hl7__eu__lab__report\"><tr><th>Test</th><th>17-Jan-2025</th><th>Reference&#xA0;Range</th><th>Unit</th></tr><tr><td>Cholesterol in LDL [Mass/volume] in Serum or Plasma by Direct assay</td><td>91.5</td><td>0 - 130</td><td></td><td>mg/dL</td></tr></table></div>"
        },
        "status": "final",
        "subject": {
          "reference": "urn:uuid:8898538e-c42a-4242-95d7-8416f3666e8a",
          "display": "Victor Lagarde"
        },
        "effectiveDateTime": "2025-01-17T04:48:18Z",
        "specimen": {
          "reference": "urn:uuid:43806f97-cc69-4a9d-ac5a-af62fa1c978d"
        }
      }
    },
    {
      "fullUrl": "urn:uuid:af0ff122-89cf-4595-beec-b196c093682a",
      "resource": {
        "resourceType": "Observation",
        "id": "af0ff122-89cf-4595-beec-b196c093682a",
        "meta": {
          "profile": [
            "http://hl7.eu/fhir/laboratory/StructureDefinition/Observation-resultslab-eu-lab"
          ]
        },
        "performer": [
          {
            "display": "The Central European Lab"
          }
        ],
        "category": [
          {
            "coding": [
              {
                "system": "http://terminology.hl7.org/CodeSystem/observation-category",
                "code": "laboratory"
              }
            ]
          }
        ],
        "code": {
          "coding": [
            {
              "code": "2085-9",
              "system": "http://loinc.org",
              "display": "Cholesterol in HDL [Mass/volume] in Serum or Plasma"
            }
          ],
          "text": "Cholesterol in HDL [Mass/volume] in Serum or Plasma"
        },
        "valueQuantity": {
          "system": "http://unitsofmeasure.org",
          "value": 28.3,
          "unit": "mg/dL",
          "code": "mg/dL"
        },
        "referenceRange": [
          {
            "low": {
              "value": 40,
              "code": "mg/dL",
              "system": "http://unitsofmeasure.org"
            }
          },
          {
            "high": {
              "value": 100,
              "code": "mg/dL",
              "system": "http://unitsofmeasure.org"
            }
          }
        ],
        "interpretation": [
          {
            "coding": [
              {
                "code": "L",
                "system": "http://terminology.hl7.org/CodeSystem/v3-ObservationInterpretation",
                "display": "Low"
              }
            ]
          }
        ],
        "text": {
          "status": "generated",
          "div": "<div xmlns=\"http://www.w3.org/1999/xhtml\"><table class=\"hl7__eu__lab__report\"><tr><th>Test</th><th>17-Jan-2025</th><th>Reference&#xA0;Range</th><th>Unit</th></tr><tr><td>Cholesterol in HDL [Mass/volume] in Serum or Plasma</td><td>28.3</td><td>40 - 100</td><td>L</td><td>mg/dL</td></tr></table></div>"
        },
        "status": "final",
        "subject": {
          "reference": "urn:uuid:8898538e-c42a-4242-95d7-8416f3666e8a",
          "display": "Victor Lagarde"
        },
        "effectiveDateTime": "2025-01-17T04:48:18Z",
        "specimen": {
          "reference": "urn:uuid:43806f97-cc69-4a9d-ac5a-af62fa1c978d"
        }
      }
    },
    {
      "fullUrl": "urn:uuid:c2cee678-0760-416d-afb3-096e7605eecc",
      "resource": {
        "resourceType": "Device",
        "id": "c2cee678-0760-416d-afb3-096e7605eecc",
        "deviceName": [
          {
            "name": "SYNDERAI Synthetic Generator",
            "type": "manufacturer-name"
          }
        ],
        "version": [
          {
            "value": "5.0"
          }
        ],
        "text": {
          "status": "generated",
          "div": "<div xmlns=\"http://www.w3.org/1999/xhtml\">SYNDERAI Synthetic Generator v5.0</div>"
        },
        "status": "active\"",
        "distinctIdentifier": "synderai-generator-50",
        "manufacturer": "SYNDERAI Project"
      }
    },
    {
      "fullUrl": "urn:uuid:cc16827f-4aee-437d-b6d4-8cd8eb2374be",
      "resource": {
        "resourceType": "Provenance",
        "id": "cc16827f-4aee-437d-b6d4-8cd8eb2374be",
        "target": [
          {
            "reference": "Patient/8898538e-c42a-4242-95d7-8416f3666e8a"
          },
          {
            "reference": "Bundle/70a4acdf-936d-462a-b932-0fc970004f09"
          },
          {
            "reference": "Composition/5fed8144-a054-4ae3-aa73-cd90b884c832"
          },
          {
            "reference": "PractitionerRole/9567b1a2-7f54-4397-8887-c575257481b6"
          },
          {
            "reference": "Practitioner/b7f2f311-6843-4cde-bc61-d4b2d435f9b8"
          },
          {
            "reference": "PractitionerRole/59e90097-5552-4a91-9bd2-ee44049705ea"
          },
          {
            "reference": "Organization/258d876c-7591-48fc-a82f-390987c1edb8"
          }
        ],
        "activity": {
          "text": "Synthetic Example Data Generation"
        },
        "policy": [
          "https://synderai.net/synderai-synthetic-data-policy"
        ],
        "agent": [
          {
            "type": {
              "text": "author"
            },
            "who": {
              "reference": "Device/c2cee678-0760-416d-afb3-096e7605eecc"
            }
          }
        ],
        "reason": [
          {
            "text": "Interoperability Testing and Training (non-clinical use)"
          }
        ],
        "text": {
          "status": "generated",
          "div": "<div xmlns=\"http://www.w3.org/1999/xhtml\">Provenance for SYNDERAI Synthetic Example Data Resource</div>"
        },
        "recorded": "2025-01-17T05:48:18Z"
      }
    },
    {
      "fullUrl": "urn:uuid:9567b1a2-7f54-4397-8887-c575257481b6",
      "resource": {
        "resourceType": "PractitionerRole",
        "id": "9567b1a2-7f54-4397-8887-c575257481b6",
        "meta": {
          "profile": [
            "http://hl7.eu/fhir/base/StructureDefinition/practitionerRole-eu"
          ]
        },
        "text": {
          "status": "generated",
          "div": "<div xmlns=\"http://www.w3.org/1999/xhtml\">Laboratory Role Id: 9567b1a2-7f54-4397-8887-c575257481b6</div>"
        },
        "practitioner": {
          "reference": "urn:uuid:b7f2f311-6843-4cde-bc61-d4b2d435f9b8"
        }
      }
    },
    {
      "fullUrl": "urn:uuid:b7f2f311-6843-4cde-bc61-d4b2d435f9b8",
      "resource": {
        "resourceType": "Practitioner",
        "id": "b7f2f311-6843-4cde-bc61-d4b2d435f9b8",
        "meta": {
          "profile": [
            "http://hl7.eu/fhir/base/StructureDefinition/practitioner-eu"
          ]
        },
        "identifier": [
          {
            "assigner": {
              "display": "HL7 Europe"
            },
            "system": "urn:oid:2.16.840.1.113883.2.51.999",
            "value": "6f0755c5-5eaa-4fbe-81f9-c113968de7ab"
          }
        ],
        "name": [
          {
            "prefix": [
              "dr"
            ],
            "given": [
              "Ex"
            ],
            "family": "Ample"
          }
        ],
        "address": [
          {
            "line": [
              "Laboratoire Central Europenne",
              "Boulevard du Jardin Botanique 32"
            ],
            "postalCode": "1000",
            "city": "Brussels",
            "country": "Belgium"
          }
        ],
        "text": {
          "status": "generated",
          "div": "<div xmlns=\"http://www.w3.org/1999/xhtml\">Laboratory: Laboratoire Central Europenne, 1000 Brussels, Belgium</div>"
        }
      }
    }
  ],
  "type": "document",
  "timestamp": "2025-01-17T05:48:18Z"
}
