{
  "resourceType": "Bundle",
  "id": "fe6dc21b-a23f-4fc0-936c-56b3e2f5e66f",
  "meta": {
    "profile": [
      "http://hl7.eu/fhir/laboratory/StructureDefinition/Bundle-eu-lab"
    ]
  },
  "identifier": {
    "assigner": {
      "display": "HL7 Europe"
    },
    "system": "urn:oid:2.16.840.1.113883.2.51.999",
    "value": "263a2a45-7275-4a03-9e4c-82350a882b39"
  },
  "entry": [
    {
      "fullUrl": "urn:uuid:49f73f4a-683c-4933-bfc9-ae98d68d6b2c",
      "resource": {
        "resourceType": "Composition",
        "id": "49f73f4a-683c-4933-bfc9-ae98d68d6b2c",
        "meta": {
          "profile": [
            "http://hl7.eu/fhir/laboratory/StructureDefinition/Composition-eu-lab"
          ]
        },
        "identifier": {
          "assigner": {
            "display": "HL7 Europe"
          },
          "system": "urn:oid:2.16.840.1.113883.2.51.999",
          "value": "b3db56d9-c153-4dc0-93b5-8dba81c3f867"
        },
        "author": [
          {
            "reference": "urn:uuid:b2b56822-72c6-4451-976e-c7a86dda9e60"
          }
        ],
        "category": [
          {
            "coding": [
              {
                "code": "26436-6",
                "system": "http://loinc.org",
                "display": "Laboratory studies (set)"
              }
            ]
          }
        ],
        "type": {
          "coding": [
            {
              "code": "11502-2",
              "system": "http://loinc.org",
              "display": "Laboratory report"
            }
          ],
          "text": "Laboratory Report"
        },
        "section": [
          {
            "code": {
              "coding": [
                {
                  "code": "26436-6",
                  "system": "http://loinc.org",
                  "display": "Laboratory studies (set)"
                }
              ],
              "text": "Laboratory studies"
            },
            "section": [
              {
                "code": {
                  "coding": [
                    {
                      "code": "$18719-5",
                      "system": "http://loinc.org",
                      "display": "Chemistry studies (set)"
                    }
                  ],
                  "text": "Chemistry"
                },
                "entry": [
                  {
                    "reference": "urn:uuid:91354291-e08c-46a7-ac99-7fe25d977c96"
                  },
                  {
                    "reference": "urn:uuid:8cf8fd16-ea62-4d75-b928-881295f5444b"
                  },
                  {
                    "reference": "urn:uuid:07b98a8a-e1b0-42fc-8ade-80100ea778a5"
                  },
                  {
                    "reference": "urn:uuid:05bf453c-7ae8-40f2-a8c3-e8da07e87188"
                  },
                  {
                    "reference": "urn:uuid:582d6d57-e079-479a-8229-fd62333ed35a"
                  },
                  {
                    "reference": "urn:uuid:5677fed1-56c6-4cae-9f2b-cb4adfdc35bd"
                  },
                  {
                    "reference": "urn:uuid:c0d23f75-5360-4c41-9f18-0509194116d8"
                  },
                  {
                    "reference": "urn:uuid:503aca62-cc1c-4150-bad3-ea10ba658b39"
                  },
                  {
                    "reference": "urn:uuid:0f88f3c9-770c-4058-ba82-c23104af50b1"
                  }
                ],
                "text": {
                  "status": "generated",
                  "div": "<div xmlns=\"http://www.w3.org/1999/xhtml\"><h3>Chemistry</h3><table class=\"hl7__eu__lab__report\"><thead><tr><th>Test</th><th>14-JUN-2023</th><th>Reference&#xA0;Range</th><th>Unit</th></tr></thead><tbody><tr><td>Hemoglobin A1c/Hemoglobin.total in Blood</td><td><strong>6.2 H</strong></td><td>3.8 - 5.7</td><td>%</td></tr><tr><td>Glucose [Mass/volume] in Blood</td><td>82.5</td><td>70 - 140</td><td>mg/dL</td></tr><tr><td>Urea nitrogen [Mass/volume] in Blood</td><td>15.7</td><td>7 - 20</td><td>mg/dL</td></tr><tr><td>Creatinine [Mass/volume] in Blood</td><td><strong>0.7 L</strong></td><td>0.9 - 1.3</td><td>mg/dL</td></tr><tr><td>Calcium [Mass/volume] in Blood</td><td>9.9</td><td>8.5 - 10.5</td><td>mg/dL</td></tr><tr><td>Sodium [Moles/volume] in Blood</td><td>138.0</td><td>135 - 145</td><td>mmol/L</td></tr><tr><td>Potassium [Moles/volume] in Blood</td><td>4.6</td><td>3.5 - 5.3</td><td>mmol/L</td></tr><tr><td>Chloride [Moles/volume] in Blood</td><td>103.8</td><td>98 - 109</td><td>mmol/L</td></tr><tr><td>Carbon dioxide, total [Moles/volume] in Blood</td><td>28.4</td><td>22 - 32</td><td>mmol/L</td></tr></tbody></table></div>"
                },
                "title": "Chemistry"
              }
            ],
            "title": "Laboratory Report"
          },
          {
            "text": {
              "status": "generated",
              "div": "<div xmlns=\"http://www.w3.org/1999/xhtml\"><h3>Annotation</h3><table class=\"hl7__eu__lab__report\"><tr><th>Conclusion and Recommendations based on this report and previous findings known to us</th></tr><tr><td>The patient shows mildly elevated HbA1c, indicating suboptimal long-term glycemic control and possible prediabetes or early diabetes. Glucose is currently normal. Creatinine is slightly below the reference range but not clinically concerning. Renal function, electrolytes, and other parameters are within normal limits. Recommend monitoring glycemic control and considering further evaluation for diabetes management.</td></tr></table></div>"
            },
            "code": {
              "coding": [
                {
                  "system": "http://loinc.org",
                  "code": "48767-8",
                  "display": "Annotation comment"
                }
              ]
            },
            "title": "Annotation comment"
          }
        ],
        "status": "final",
        "subject": {
          "reference": "urn:uuid:4e8686be-e6eb-4684-ad73-a65da349b62f",
          "display": "Lazăr Florea"
        },
        "date": "2023-06-14T15:56:29Z",
        "title": "Laboratory Report",
        "confidentiality": "N"
      }
    },
    {
      "fullUrl": "urn:uuid:a040b0c8-e54a-42f8-b8a9-594e78704f82",
      "resource": {
        "resourceType": "DiagnosticReport",
        "id": "a040b0c8-e54a-42f8-b8a9-594e78704f82",
        "meta": {
          "profile": [
            "http://hl7.eu/fhir/laboratory/StructureDefinition/DiagnosticReport-eu-lab"
          ]
        },
        "identifier": [
          {
            "assigner": {
              "display": "HL7 Europe"
            },
            "system": "urn:oid:2.16.840.1.113883.2.51.999",
            "value": "aafde0fc-9282-4526-9965-f9ffc2e77c60"
          }
        ],
        "extension": [
          {
            "url": "http://hl7.org/fhir/5.0/StructureDefinition/extension-DiagnosticReport.composition",
            "valueReference": {
              "reference": "urn:uuid:b3db56d9-c153-4dc0-93b5-8dba81c3f867"
            }
          }
        ],
        "category": [
          {
            "coding": [
              {
                "code": "26436-6",
                "system": "http://loinc.org",
                "display": "Laboratory studies (set)"
              }
            ]
          }
        ],
        "specimen": [
          {
            "reference": "urn:uuid:9d3dd639-203e-456e-8c6c-8f12e34b1b92"
          }
        ],
        "result": [
          {
            "reference": "urn:uuid:91354291-e08c-46a7-ac99-7fe25d977c96"
          },
          {
            "reference": "urn:uuid:8cf8fd16-ea62-4d75-b928-881295f5444b"
          },
          {
            "reference": "urn:uuid:07b98a8a-e1b0-42fc-8ade-80100ea778a5"
          },
          {
            "reference": "urn:uuid:05bf453c-7ae8-40f2-a8c3-e8da07e87188"
          },
          {
            "reference": "urn:uuid:582d6d57-e079-479a-8229-fd62333ed35a"
          },
          {
            "reference": "urn:uuid:5677fed1-56c6-4cae-9f2b-cb4adfdc35bd"
          },
          {
            "reference": "urn:uuid:c0d23f75-5360-4c41-9f18-0509194116d8"
          },
          {
            "reference": "urn:uuid:503aca62-cc1c-4150-bad3-ea10ba658b39"
          },
          {
            "reference": "urn:uuid:0f88f3c9-770c-4058-ba82-c23104af50b1"
          }
        ],
        "status": "registered",
        "code": {
          "coding": [
            {
              "code": "11502-2",
              "system": "http://loinc.org",
              "display": "Laboratory report"
            }
          ]
        },
        "subject": {
          "reference": "urn:uuid:4e8686be-e6eb-4684-ad73-a65da349b62f",
          "display": "Lazăr Florea"
        }
      }
    },
    {
      "fullUrl": "urn:uuid:4e8686be-e6eb-4684-ad73-a65da349b62f",
      "resource": {
        "resourceType": "Patient",
        "id": "4e8686be-e6eb-4684-ad73-a65da349b62f",
        "meta": {
          "security": [
            {
              "system": "http://terminology.hl7.org/CodeSystem/v3-ActReason",
              "code": "HTEST"
            },
            {
              "system": "http://terminology.hl7.org/CodeSystem/v3-ActReason",
              "code": "TRAIN"
            }
          ],
          "tag": [
            {
              "system": "https://synderai.net/fhir/CodeSystem/tags",
              "code": "synthetic",
              "display": "SYNDERAI Synthetic data"
            }
          ],
          "profile": [
            "http://hl7.eu/fhir/base/StructureDefinition/patient-eu-core"
          ]
        },
        "identifier": [
          {
            "type": {
              "coding": [
                {
                  "code": "PT",
                  "system": "http://terminology.hl7.org/CodeSystem/v2-0203"
                }
              ]
            },
            "system": "http://ec.europa.eu/identifier/eci",
            "value": "8693-862290-8"
          },
          {
            "type": {
              "coding": [
                {
                  "code": "MR",
                  "system": "http://terminology.hl7.org/CodeSystem/v2-0203"
                }
              ]
            },
            "system": "http://local.setting.eu/identifier",
            "value": "602fbbf5-967b-6d86-a533-5cec24b13e71"
          }
        ],
        "name": [
          {
            "family": "Florea"
          },
          {
            "given": [
              "Lazăr"
            ]
          },
          {
            "text": "Lazăr Florea"
          }
        ],
        "address": [
          {
            "line": [
              "Drumul Grațian Nistor"
            ],
            "use": "home",
            "type": "physical",
            "postalCode": "265300",
            "city": "Lupeni",
            "country": "Romania"
          }
        ],
        "telecom": [
          {
            "system": "phone",
            "value": "0753 950 380"
          }
        ],
        "extension": [
          {
            "url": "http://hl7.org/fhir/StructureDefinition/patient-nationality",
            "valueCodeableConcept": {
              "coding": [
                {
                  "code": "RO",
                  "system": "http://hl7.org/fhir/ValueSet/country"
                }
              ]
            }
          }
        ],
        "text": {
          "status": "generated",
          "div": "<div xmlns=\"http://www.w3.org/1999/xhtml\"><table class=\"hl7__ips\"><tr><td>Lazăr Florea</td><td>male</td><td>10-Feb-1946</td></tr></table></div>"
        },
        "gender": "male",
        "birthDate": "1946-02-10"
      }
    },
    {
      "fullUrl": "urn:uuid:a74ef614-374b-4ba3-8c33-2abf3a9e81d3",
      "resource": {
        "resourceType": "ServiceRequest",
        "id": "a74ef614-374b-4ba3-8c33-2abf3a9e81d3",
        "meta": {
          "profile": [
            "http://hl7.eu/fhir/laboratory/StructureDefinition/ServiceRequest-eu-lab"
          ]
        },
        "identifier": [
          {
            "system": "http://example.org",
            "value": "8a4f82d1-614d-4da0-b245-1e54115a6e7f"
          }
        ],
        "specimen": [
          {
            "reference": "urn:uuid:9d3dd639-203e-456e-8c6c-8f12e34b1b92"
          }
        ],
        "reasonCode": [
          {
            "coding": [
              {
                "code": "197927001",
                "system": "http://snomed.info/sct",
                "display": "Recurrent urinary tract infection"
              }
            ]
          },
          {
            "coding": [
              {
                "code": "414545008",
                "system": "http://snomed.info/sct",
                "display": "Ischemic heart disease"
              }
            ]
          },
          {
            "coding": [
              {
                "code": "237602007",
                "system": "http://snomed.info/sct",
                "display": "Metabolic syndrome X"
              }
            ]
          },
          {
            "coding": [
              {
                "code": "271737000",
                "system": "http://snomed.info/sct",
                "display": "Anemia"
              }
            ]
          },
          {
            "coding": [
              {
                "code": "15777000",
                "system": "http://snomed.info/sct",
                "display": "Prediabetes"
              }
            ]
          },
          {
            "coding": [
              {
                "code": "59621000",
                "system": "http://snomed.info/sct",
                "display": "Essential hypertension"
              }
            ]
          },
          {
            "coding": [
              {
                "code": "40055000",
                "system": "http://snomed.info/sct",
                "display": "Chronic sinusitis"
              }
            ]
          }
        ],
        "status": "active",
        "intent": "order",
        "code": {
          "coding": [
            {
              "code": "108252007",
              "system": "http://snomed.info/sct",
              "display": "Laboratory procedure"
            }
          ]
        },
        "subject": {
          "reference": "urn:uuid:4e8686be-e6eb-4684-ad73-a65da349b62f",
          "display": "Lazăr Florea"
        },
        "requester": {
          "reference": "urn:uuid:c9f55549-4a3d-45ec-89fd-ea859c3ccb48"
        }
      }
    },
    {
      "fullUrl": "urn:uuid:c9f55549-4a3d-45ec-89fd-ea859c3ccb48",
      "resource": {
        "resourceType": "PractitionerRole",
        "id": "c9f55549-4a3d-45ec-89fd-ea859c3ccb48",
        "meta": {
          "profile": [
            "http://hl7.eu/fhir/base/StructureDefinition/practitionerRole-eu"
          ]
        },
        "text": {
          "status": "generated",
          "div": "<div xmlns=\"http://www.w3.org/1999/xhtml\">Provider Role Id: c9f55549-4a3d-45ec-89fd-ea859c3ccb48</div>"
        },
        "organization": {
          "reference": "urn:uuid:377c1a11-a9f6-49a3-8deb-2e9f5446f578"
        }
      }
    },
    {
      "fullUrl": "urn:uuid:377c1a11-a9f6-49a3-8deb-2e9f5446f578",
      "resource": {
        "resourceType": "Organization",
        "id": "377c1a11-a9f6-49a3-8deb-2e9f5446f578",
        "meta": {
          "profile": [
            "http://hl7.eu/fhir/base/StructureDefinition/organization-eu"
          ]
        },
        "identifier": [
          {
            "assigner": {
              "display": "HL7 Europe"
            },
            "system": "urn:oid:2.16.840.1.113883.2.51.999",
            "value": "40e12afa-f7d7-4fde-84ba-c4ca9aec604b"
          }
        ],
        "address": [
          {
            "line": [
              "Strada 1 Decembrie 1918 137 A"
            ],
            "city": "Petroșani",
            "postalCode": "332019",
            "country": "Romania"
          }
        ],
        "text": {
          "status": "generated",
          "div": "<div xmlns=\"http://www.w3.org/1999/xhtml\">Provider Organization: Spitalul de Urgență</div>"
        },
        "name": "Spitalul de Urgență"
      }
    },
    {
      "fullUrl": "urn:uuid:9d3dd639-203e-456e-8c6c-8f12e34b1b92",
      "resource": {
        "resourceType": "Specimen",
        "id": "9d3dd639-203e-456e-8c6c-8f12e34b1b92",
        "meta": {
          "profile": [
            "http://hl7.eu/fhir/laboratory/StructureDefinition/Specimen-eu-lab"
          ]
        },
        "collection": {
          "collectedDateTime": "2023-06-14"
        },
        "text": {
          "status": "generated",
          "div": "<div xmlns=\"http://www.w3.org/1999/xhtml\"><table class=\"hl7__eu__lab__report\"><tr><th>Specimen</th><th>Collection Date</th></tr><tr><td>Whole blood specimen (specimen)</td><td><span class=\"nb\">14-Jun-2023</span></td></tr></table></div>"
        },
        "type": {
          "coding": [
            {
              "code": "258580003",
              "system": "http://snomed.info/sct",
              "display": "Whole blood specimen (specimen)"
            }
          ]
        }
      }
    },
    {
      "fullUrl": "urn:uuid:91354291-e08c-46a7-ac99-7fe25d977c96",
      "resource": {
        "resourceType": "Observation",
        "id": "91354291-e08c-46a7-ac99-7fe25d977c96",
        "meta": {
          "profile": [
            "http://hl7.eu/fhir/laboratory/StructureDefinition/Observation-resultslab-eu-lab"
          ]
        },
        "performer": [
          {
            "display": "The Central European Lab"
          }
        ],
        "category": [
          {
            "coding": [
              {
                "system": "http://terminology.hl7.org/CodeSystem/observation-category",
                "code": "laboratory"
              }
            ]
          }
        ],
        "code": {
          "coding": [
            {
              "code": "4548-4",
              "system": "http://loinc.org",
              "display": "Hemoglobin A1c/Hemoglobin.total in Blood"
            }
          ],
          "text": "Hemoglobin A1c/Hemoglobin.total in Blood"
        },
        "valueQuantity": {
          "system": "http://unitsofmeasure.org",
          "value": 6.2,
          "unit": "%",
          "code": "%"
        },
        "referenceRange": [
          {
            "low": {
              "value": 3.8,
              "code": "%",
              "system": "http://unitsofmeasure.org"
            }
          },
          {
            "high": {
              "value": 5.7,
              "code": "%",
              "system": "http://unitsofmeasure.org"
            }
          }
        ],
        "interpretation": [
          {
            "coding": [
              {
                "code": "H",
                "system": "http://terminology.hl7.org/CodeSystem/v3-ObservationInterpretation",
                "display": "High"
              }
            ]
          }
        ],
        "text": {
          "status": "generated",
          "div": "<div xmlns=\"http://www.w3.org/1999/xhtml\"><table class=\"hl7__eu__lab__report\"><tr><th>Test</th><th>14-Jun-2023</th><th>Reference&#xA0;Range</th><th>Unit</th></tr><tr><td>Hemoglobin A1c/Hemoglobin.total in Blood</td><td>6.2</td><td>3.8 - 5.7</td><td>H</td><td>%</td></tr></table></div>"
        },
        "status": "final",
        "subject": {
          "reference": "urn:uuid:4e8686be-e6eb-4684-ad73-a65da349b62f",
          "display": "Lazăr Florea"
        },
        "effectiveDateTime": "2023-06-14T13:56:29Z",
        "specimen": {
          "reference": "urn:uuid:9d3dd639-203e-456e-8c6c-8f12e34b1b92"
        }
      }
    },
    {
      "fullUrl": "urn:uuid:8cf8fd16-ea62-4d75-b928-881295f5444b",
      "resource": {
        "resourceType": "Observation",
        "id": "8cf8fd16-ea62-4d75-b928-881295f5444b",
        "meta": {
          "profile": [
            "http://hl7.eu/fhir/laboratory/StructureDefinition/Observation-resultslab-eu-lab"
          ]
        },
        "performer": [
          {
            "display": "The Central European Lab"
          }
        ],
        "category": [
          {
            "coding": [
              {
                "system": "http://terminology.hl7.org/CodeSystem/observation-category",
                "code": "laboratory"
              }
            ]
          }
        ],
        "code": {
          "coding": [
            {
              "code": "2339-0",
              "system": "http://loinc.org",
              "display": "Glucose [Mass/volume] in Blood"
            }
          ],
          "text": "Glucose [Mass/volume] in Blood"
        },
        "valueQuantity": {
          "system": "http://unitsofmeasure.org",
          "value": 82.5,
          "unit": "mg/dL",
          "code": "mg/dL"
        },
        "referenceRange": [
          {
            "low": {
              "value": 70,
              "code": "mg/dL",
              "system": "http://unitsofmeasure.org"
            }
          },
          {
            "high": {
              "value": 140,
              "code": "mg/dL",
              "system": "http://unitsofmeasure.org"
            }
          }
        ],
        "text": {
          "status": "generated",
          "div": "<div xmlns=\"http://www.w3.org/1999/xhtml\"><table class=\"hl7__eu__lab__report\"><tr><th>Test</th><th>14-Jun-2023</th><th>Reference&#xA0;Range</th><th>Unit</th></tr><tr><td>Glucose [Mass/volume] in Blood</td><td>82.5</td><td>70 - 140</td><td></td><td>mg/dL</td></tr></table></div>"
        },
        "status": "final",
        "subject": {
          "reference": "urn:uuid:4e8686be-e6eb-4684-ad73-a65da349b62f",
          "display": "Lazăr Florea"
        },
        "effectiveDateTime": "2023-06-14T13:56:29Z",
        "specimen": {
          "reference": "urn:uuid:9d3dd639-203e-456e-8c6c-8f12e34b1b92"
        }
      }
    },
    {
      "fullUrl": "urn:uuid:07b98a8a-e1b0-42fc-8ade-80100ea778a5",
      "resource": {
        "resourceType": "Observation",
        "id": "07b98a8a-e1b0-42fc-8ade-80100ea778a5",
        "meta": {
          "profile": [
            "http://hl7.eu/fhir/laboratory/StructureDefinition/Observation-resultslab-eu-lab"
          ]
        },
        "performer": [
          {
            "display": "The Central European Lab"
          }
        ],
        "category": [
          {
            "coding": [
              {
                "system": "http://terminology.hl7.org/CodeSystem/observation-category",
                "code": "laboratory"
              }
            ]
          }
        ],
        "code": {
          "coding": [
            {
              "code": "6299-2",
              "system": "http://loinc.org",
              "display": "Urea nitrogen [Mass/volume] in Blood"
            }
          ],
          "text": "Urea nitrogen [Mass/volume] in Blood"
        },
        "valueQuantity": {
          "system": "http://unitsofmeasure.org",
          "value": 15.7,
          "unit": "mg/dL",
          "code": "mg/dL"
        },
        "referenceRange": [
          {
            "low": {
              "value": 7,
              "code": "mg/dL",
              "system": "http://unitsofmeasure.org"
            }
          },
          {
            "high": {
              "value": 20,
              "code": "mg/dL",
              "system": "http://unitsofmeasure.org"
            }
          }
        ],
        "text": {
          "status": "generated",
          "div": "<div xmlns=\"http://www.w3.org/1999/xhtml\"><table class=\"hl7__eu__lab__report\"><tr><th>Test</th><th>14-Jun-2023</th><th>Reference&#xA0;Range</th><th>Unit</th></tr><tr><td>Urea nitrogen [Mass/volume] in Blood</td><td>15.7</td><td>7 - 20</td><td></td><td>mg/dL</td></tr></table></div>"
        },
        "status": "final",
        "subject": {
          "reference": "urn:uuid:4e8686be-e6eb-4684-ad73-a65da349b62f",
          "display": "Lazăr Florea"
        },
        "effectiveDateTime": "2023-06-14T13:56:29Z",
        "specimen": {
          "reference": "urn:uuid:9d3dd639-203e-456e-8c6c-8f12e34b1b92"
        }
      }
    },
    {
      "fullUrl": "urn:uuid:05bf453c-7ae8-40f2-a8c3-e8da07e87188",
      "resource": {
        "resourceType": "Observation",
        "id": "05bf453c-7ae8-40f2-a8c3-e8da07e87188",
        "meta": {
          "profile": [
            "http://hl7.eu/fhir/laboratory/StructureDefinition/Observation-resultslab-eu-lab"
          ]
        },
        "performer": [
          {
            "display": "The Central European Lab"
          }
        ],
        "category": [
          {
            "coding": [
              {
                "system": "http://terminology.hl7.org/CodeSystem/observation-category",
                "code": "laboratory"
              }
            ]
          }
        ],
        "code": {
          "coding": [
            {
              "code": "38483-4",
              "system": "http://loinc.org",
              "display": "Creatinine [Mass/volume] in Blood"
            }
          ],
          "text": "Creatinine [Mass/volume] in Blood"
        },
        "valueQuantity": {
          "system": "http://unitsofmeasure.org",
          "value": 0.7,
          "unit": "mg/dL",
          "code": "mg/dL"
        },
        "referenceRange": [
          {
            "low": {
              "value": 0.9,
              "code": "mg/dL",
              "system": "http://unitsofmeasure.org"
            }
          },
          {
            "high": {
              "value": 1.3,
              "code": "mg/dL",
              "system": "http://unitsofmeasure.org"
            }
          }
        ],
        "interpretation": [
          {
            "coding": [
              {
                "code": "L",
                "system": "http://terminology.hl7.org/CodeSystem/v3-ObservationInterpretation",
                "display": "Low"
              }
            ]
          }
        ],
        "text": {
          "status": "generated",
          "div": "<div xmlns=\"http://www.w3.org/1999/xhtml\"><table class=\"hl7__eu__lab__report\"><tr><th>Test</th><th>14-Jun-2023</th><th>Reference&#xA0;Range</th><th>Unit</th></tr><tr><td>Creatinine [Mass/volume] in Blood</td><td>0.7</td><td>0.9 - 1.3</td><td>L</td><td>mg/dL</td></tr></table></div>"
        },
        "status": "final",
        "subject": {
          "reference": "urn:uuid:4e8686be-e6eb-4684-ad73-a65da349b62f",
          "display": "Lazăr Florea"
        },
        "effectiveDateTime": "2023-06-14T13:56:29Z",
        "specimen": {
          "reference": "urn:uuid:9d3dd639-203e-456e-8c6c-8f12e34b1b92"
        }
      }
    },
    {
      "fullUrl": "urn:uuid:582d6d57-e079-479a-8229-fd62333ed35a",
      "resource": {
        "resourceType": "Observation",
        "id": "582d6d57-e079-479a-8229-fd62333ed35a",
        "meta": {
          "profile": [
            "http://hl7.eu/fhir/laboratory/StructureDefinition/Observation-resultslab-eu-lab"
          ]
        },
        "performer": [
          {
            "display": "The Central European Lab"
          }
        ],
        "category": [
          {
            "coding": [
              {
                "system": "http://terminology.hl7.org/CodeSystem/observation-category",
                "code": "laboratory"
              }
            ]
          }
        ],
        "code": {
          "coding": [
            {
              "code": "49765-1",
              "system": "http://loinc.org",
              "display": "Calcium [Mass/volume] in Blood"
            }
          ],
          "text": "Calcium [Mass/volume] in Blood"
        },
        "valueQuantity": {
          "system": "http://unitsofmeasure.org",
          "value": 9.9,
          "unit": "mg/dL",
          "code": "mg/dL"
        },
        "referenceRange": [
          {
            "low": {
              "value": 8.5,
              "code": "mg/dL",
              "system": "http://unitsofmeasure.org"
            }
          },
          {
            "high": {
              "value": 10.5,
              "code": "mg/dL",
              "system": "http://unitsofmeasure.org"
            }
          }
        ],
        "text": {
          "status": "generated",
          "div": "<div xmlns=\"http://www.w3.org/1999/xhtml\"><table class=\"hl7__eu__lab__report\"><tr><th>Test</th><th>14-Jun-2023</th><th>Reference&#xA0;Range</th><th>Unit</th></tr><tr><td>Calcium [Mass/volume] in Blood</td><td>9.9</td><td>8.5 - 10.5</td><td></td><td>mg/dL</td></tr></table></div>"
        },
        "status": "final",
        "subject": {
          "reference": "urn:uuid:4e8686be-e6eb-4684-ad73-a65da349b62f",
          "display": "Lazăr Florea"
        },
        "effectiveDateTime": "2023-06-14T13:56:29Z",
        "specimen": {
          "reference": "urn:uuid:9d3dd639-203e-456e-8c6c-8f12e34b1b92"
        }
      }
    },
    {
      "fullUrl": "urn:uuid:5677fed1-56c6-4cae-9f2b-cb4adfdc35bd",
      "resource": {
        "resourceType": "Observation",
        "id": "5677fed1-56c6-4cae-9f2b-cb4adfdc35bd",
        "meta": {
          "profile": [
            "http://hl7.eu/fhir/laboratory/StructureDefinition/Observation-resultslab-eu-lab"
          ]
        },
        "performer": [
          {
            "display": "The Central European Lab"
          }
        ],
        "category": [
          {
            "coding": [
              {
                "system": "http://terminology.hl7.org/CodeSystem/observation-category",
                "code": "laboratory"
              }
            ]
          }
        ],
        "code": {
          "coding": [
            {
              "code": "2947-0",
              "system": "http://loinc.org",
              "display": "Sodium [Moles/volume] in Blood"
            }
          ],
          "text": "Sodium [Moles/volume] in Blood"
        },
        "valueQuantity": {
          "system": "http://unitsofmeasure.org",
          "value": 138,
          "unit": "mmol/L",
          "code": "mmol/L"
        },
        "referenceRange": [
          {
            "low": {
              "value": 135,
              "code": "mmol/L",
              "system": "http://unitsofmeasure.org"
            }
          },
          {
            "high": {
              "value": 145,
              "code": "mmol/L",
              "system": "http://unitsofmeasure.org"
            }
          }
        ],
        "text": {
          "status": "generated",
          "div": "<div xmlns=\"http://www.w3.org/1999/xhtml\"><table class=\"hl7__eu__lab__report\"><tr><th>Test</th><th>14-Jun-2023</th><th>Reference&#xA0;Range</th><th>Unit</th></tr><tr><td>Sodium [Moles/volume] in Blood</td><td>138.0</td><td>135 - 145</td><td></td><td>mmol/L</td></tr></table></div>"
        },
        "status": "final",
        "subject": {
          "reference": "urn:uuid:4e8686be-e6eb-4684-ad73-a65da349b62f",
          "display": "Lazăr Florea"
        },
        "effectiveDateTime": "2023-06-14T13:56:29Z",
        "specimen": {
          "reference": "urn:uuid:9d3dd639-203e-456e-8c6c-8f12e34b1b92"
        }
      }
    },
    {
      "fullUrl": "urn:uuid:c0d23f75-5360-4c41-9f18-0509194116d8",
      "resource": {
        "resourceType": "Observation",
        "id": "c0d23f75-5360-4c41-9f18-0509194116d8",
        "meta": {
          "profile": [
            "http://hl7.eu/fhir/laboratory/StructureDefinition/Observation-resultslab-eu-lab"
          ]
        },
        "performer": [
          {
            "display": "The Central European Lab"
          }
        ],
        "category": [
          {
            "coding": [
              {
                "system": "http://terminology.hl7.org/CodeSystem/observation-category",
                "code": "laboratory"
              }
            ]
          }
        ],
        "code": {
          "coding": [
            {
              "code": "6298-4",
              "system": "http://loinc.org",
              "display": "Potassium [Moles/volume] in Blood"
            }
          ],
          "text": "Potassium [Moles/volume] in Blood"
        },
        "valueQuantity": {
          "system": "http://unitsofmeasure.org",
          "value": 4.6,
          "unit": "mmol/L",
          "code": "mmol/L"
        },
        "referenceRange": [
          {
            "low": {
              "value": 3.5,
              "code": "mmol/L",
              "system": "http://unitsofmeasure.org"
            }
          },
          {
            "high": {
              "value": 5.3,
              "code": "mmol/L",
              "system": "http://unitsofmeasure.org"
            }
          }
        ],
        "text": {
          "status": "generated",
          "div": "<div xmlns=\"http://www.w3.org/1999/xhtml\"><table class=\"hl7__eu__lab__report\"><tr><th>Test</th><th>14-Jun-2023</th><th>Reference&#xA0;Range</th><th>Unit</th></tr><tr><td>Potassium [Moles/volume] in Blood</td><td>4.6</td><td>3.5 - 5.3</td><td></td><td>mmol/L</td></tr></table></div>"
        },
        "status": "final",
        "subject": {
          "reference": "urn:uuid:4e8686be-e6eb-4684-ad73-a65da349b62f",
          "display": "Lazăr Florea"
        },
        "effectiveDateTime": "2023-06-14T13:56:29Z",
        "specimen": {
          "reference": "urn:uuid:9d3dd639-203e-456e-8c6c-8f12e34b1b92"
        }
      }
    },
    {
      "fullUrl": "urn:uuid:503aca62-cc1c-4150-bad3-ea10ba658b39",
      "resource": {
        "resourceType": "Observation",
        "id": "503aca62-cc1c-4150-bad3-ea10ba658b39",
        "meta": {
          "profile": [
            "http://hl7.eu/fhir/laboratory/StructureDefinition/Observation-resultslab-eu-lab"
          ]
        },
        "performer": [
          {
            "display": "The Central European Lab"
          }
        ],
        "category": [
          {
            "coding": [
              {
                "system": "http://terminology.hl7.org/CodeSystem/observation-category",
                "code": "laboratory"
              }
            ]
          }
        ],
        "code": {
          "coding": [
            {
              "code": "2069-3",
              "system": "http://loinc.org",
              "display": "Chloride [Moles/volume] in Blood"
            }
          ],
          "text": "Chloride [Moles/volume] in Blood"
        },
        "valueQuantity": {
          "system": "http://unitsofmeasure.org",
          "value": 103.8,
          "unit": "mmol/L",
          "code": "mmol/L"
        },
        "referenceRange": [
          {
            "low": {
              "value": 98,
              "code": "mmol/L",
              "system": "http://unitsofmeasure.org"
            }
          },
          {
            "high": {
              "value": 109,
              "code": "mmol/L",
              "system": "http://unitsofmeasure.org"
            }
          }
        ],
        "text": {
          "status": "generated",
          "div": "<div xmlns=\"http://www.w3.org/1999/xhtml\"><table class=\"hl7__eu__lab__report\"><tr><th>Test</th><th>14-Jun-2023</th><th>Reference&#xA0;Range</th><th>Unit</th></tr><tr><td>Chloride [Moles/volume] in Blood</td><td>103.8</td><td>98 - 109</td><td></td><td>mmol/L</td></tr></table></div>"
        },
        "status": "final",
        "subject": {
          "reference": "urn:uuid:4e8686be-e6eb-4684-ad73-a65da349b62f",
          "display": "Lazăr Florea"
        },
        "effectiveDateTime": "2023-06-14T13:56:29Z",
        "specimen": {
          "reference": "urn:uuid:9d3dd639-203e-456e-8c6c-8f12e34b1b92"
        }
      }
    },
    {
      "fullUrl": "urn:uuid:0f88f3c9-770c-4058-ba82-c23104af50b1",
      "resource": {
        "resourceType": "Observation",
        "id": "0f88f3c9-770c-4058-ba82-c23104af50b1",
        "meta": {
          "profile": [
            "http://hl7.eu/fhir/laboratory/StructureDefinition/Observation-resultslab-eu-lab"
          ]
        },
        "performer": [
          {
            "display": "The Central European Lab"
          }
        ],
        "category": [
          {
            "coding": [
              {
                "system": "http://terminology.hl7.org/CodeSystem/observation-category",
                "code": "laboratory"
              }
            ]
          }
        ],
        "code": {
          "coding": [
            {
              "code": "20565-8",
              "system": "http://loinc.org",
              "display": "Carbon dioxide, total [Moles/volume] in Blood"
            }
          ],
          "text": "Carbon dioxide, total [Moles/volume] in Blood"
        },
        "valueQuantity": {
          "system": "http://unitsofmeasure.org",
          "value": 28.4,
          "unit": "mmol/L",
          "code": "mmol/L"
        },
        "referenceRange": [
          {
            "low": {
              "value": 22,
              "code": "mmol/L",
              "system": "http://unitsofmeasure.org"
            }
          },
          {
            "high": {
              "value": 32,
              "code": "mmol/L",
              "system": "http://unitsofmeasure.org"
            }
          }
        ],
        "text": {
          "status": "generated",
          "div": "<div xmlns=\"http://www.w3.org/1999/xhtml\"><table class=\"hl7__eu__lab__report\"><tr><th>Test</th><th>14-Jun-2023</th><th>Reference&#xA0;Range</th><th>Unit</th></tr><tr><td>Carbon dioxide, total [Moles/volume] in Blood</td><td>28.4</td><td>22 - 32</td><td></td><td>mmol/L</td></tr></table></div>"
        },
        "status": "final",
        "subject": {
          "reference": "urn:uuid:4e8686be-e6eb-4684-ad73-a65da349b62f",
          "display": "Lazăr Florea"
        },
        "effectiveDateTime": "2023-06-14T13:56:29Z",
        "specimen": {
          "reference": "urn:uuid:9d3dd639-203e-456e-8c6c-8f12e34b1b92"
        }
      }
    },
    {
      "fullUrl": "urn:uuid:b6065036-998d-4ff6-8e88-10e5f19bbaf4",
      "resource": {
        "resourceType": "Device",
        "id": "b6065036-998d-4ff6-8e88-10e5f19bbaf4",
        "deviceName": [
          {
            "name": "SYNDERAI Synthetic Generator",
            "type": "manufacturer-name"
          }
        ],
        "version": [
          {
            "value": "5.0"
          }
        ],
        "text": {
          "status": "generated",
          "div": "<div xmlns=\"http://www.w3.org/1999/xhtml\">SYNDERAI Synthetic Generator v5.0</div>"
        },
        "status": "active\"",
        "distinctIdentifier": "synderai-generator-50",
        "manufacturer": "SYNDERAI Project"
      }
    },
    {
      "fullUrl": "urn:uuid:ab665bf5-775d-41da-a53c-ae2a6636dd78",
      "resource": {
        "resourceType": "Provenance",
        "id": "ab665bf5-775d-41da-a53c-ae2a6636dd78",
        "target": [
          {
            "reference": "Patient/4e8686be-e6eb-4684-ad73-a65da349b62f"
          },
          {
            "reference": "Bundle/fe6dc21b-a23f-4fc0-936c-56b3e2f5e66f"
          },
          {
            "reference": "Composition/49f73f4a-683c-4933-bfc9-ae98d68d6b2c"
          },
          {
            "reference": "PractitionerRole/b2b56822-72c6-4451-976e-c7a86dda9e60"
          },
          {
            "reference": "Practitioner/76c45c35-5a97-4214-ae41-3fff41fb47b6"
          },
          {
            "reference": "PractitionerRole/c9f55549-4a3d-45ec-89fd-ea859c3ccb48"
          },
          {
            "reference": "Organization/377c1a11-a9f6-49a3-8deb-2e9f5446f578"
          }
        ],
        "activity": {
          "text": "Synthetic Example Data Generation"
        },
        "policy": [
          "https://synderai.net/synderai-synthetic-data-policy"
        ],
        "agent": [
          {
            "type": {
              "text": "author"
            },
            "who": {
              "reference": "Device/b6065036-998d-4ff6-8e88-10e5f19bbaf4"
            }
          }
        ],
        "reason": [
          {
            "text": "Interoperability Testing and Training (non-clinical use)"
          }
        ],
        "text": {
          "status": "generated",
          "div": "<div xmlns=\"http://www.w3.org/1999/xhtml\">Provenance for SYNDERAI Synthetic Example Data Resource</div>"
        },
        "recorded": "2023-06-14T15:56:29Z"
      }
    },
    {
      "fullUrl": "urn:uuid:b2b56822-72c6-4451-976e-c7a86dda9e60",
      "resource": {
        "resourceType": "PractitionerRole",
        "id": "b2b56822-72c6-4451-976e-c7a86dda9e60",
        "meta": {
          "profile": [
            "http://hl7.eu/fhir/base/StructureDefinition/practitionerRole-eu"
          ]
        },
        "text": {
          "status": "generated",
          "div": "<div xmlns=\"http://www.w3.org/1999/xhtml\">Laboratory Role Id: b2b56822-72c6-4451-976e-c7a86dda9e60</div>"
        },
        "practitioner": {
          "reference": "urn:uuid:76c45c35-5a97-4214-ae41-3fff41fb47b6"
        }
      }
    },
    {
      "fullUrl": "urn:uuid:76c45c35-5a97-4214-ae41-3fff41fb47b6",
      "resource": {
        "resourceType": "Practitioner",
        "id": "76c45c35-5a97-4214-ae41-3fff41fb47b6",
        "meta": {
          "profile": [
            "http://hl7.eu/fhir/base/StructureDefinition/practitioner-eu"
          ]
        },
        "identifier": [
          {
            "assigner": {
              "display": "HL7 Europe"
            },
            "system": "urn:oid:2.16.840.1.113883.2.51.999",
            "value": "c5d28688-5652-4eb2-99b0-a3f0e7f4e59a"
          }
        ],
        "name": [
          {
            "prefix": [
              "dr"
            ],
            "given": [
              "Ex"
            ],
            "family": "Ample"
          }
        ],
        "address": [
          {
            "line": [
              "Laboratoire Central Européenne",
              "Boulevard du Jardin Botanique 32"
            ],
            "postalCode": "1000",
            "city": "Brussels",
            "country": "Belgium"
          }
        ],
        "text": {
          "status": "generated",
          "div": "<div xmlns=\"http://www.w3.org/1999/xhtml\">Laboratory: Laboratoire Central Européenne, 1000 Brussels, Belgium</div>"
        }
      }
    }
  ],
  "type": "document",
  "timestamp": "2023-06-14T15:56:29Z"
}
