{
  "resourceType": "Bundle",
  "id": "11be129b-45bb-4ea6-abe6-a780cad9f6ea",
  "meta": {
    "profile": [
      "http://hl7.eu/fhir/laboratory/StructureDefinition/Bundle-eu-lab"
    ]
  },
  "identifier": {
    "assigner": {
      "display": "HL7 Europe"
    },
    "system": "urn:oid:2.16.840.1.113883.2.51.999",
    "value": "8bbd404c-4ef6-4c26-9b40-4b92f220649b"
  },
  "entry": [
    {
      "fullUrl": "urn:uuid:dc8deba1-8a8d-496e-a643-28a8ecdc7e5c",
      "resource": {
        "resourceType": "Composition",
        "id": "dc8deba1-8a8d-496e-a643-28a8ecdc7e5c",
        "meta": {
          "profile": [
            "http://hl7.eu/fhir/laboratory/StructureDefinition/Composition-eu-lab"
          ]
        },
        "identifier": {
          "assigner": {
            "display": "HL7 Europe"
          },
          "system": "urn:oid:2.16.840.1.113883.2.51.999",
          "value": "3eea2c69-7a34-40e0-b788-e240b08a45ca"
        },
        "author": [
          {
            "reference": "urn:uuid:e8e3524c-3dd2-40df-8100-762494aa1ae0"
          }
        ],
        "category": [
          {
            "coding": [
              {
                "code": "26436-6",
                "system": "http://loinc.org",
                "display": "Laboratory studies (set)"
              }
            ]
          }
        ],
        "type": {
          "coding": [
            {
              "code": "11502-2",
              "system": "http://loinc.org",
              "display": "Laboratory report"
            }
          ],
          "text": "Laboratory Report"
        },
        "section": [
          {
            "code": {
              "coding": [
                {
                  "code": "26436-6",
                  "system": "http://loinc.org",
                  "display": "Laboratory studies (set)"
                }
              ],
              "text": "Laboratory studies"
            },
            "section": [
              {
                "code": {
                  "coding": [
                    {
                      "code": "$18723-7",
                      "system": "http://loinc.org",
                      "display": "Hematology studies (set)"
                    }
                  ],
                  "text": "Hematology"
                },
                "entry": [
                  {
                    "reference": "urn:uuid:4b46f78e-0b94-4c7e-b442-7b8399063e0b"
                  },
                  {
                    "reference": "urn:uuid:42425970-7c31-493f-8a7d-9fedf00efd2f"
                  },
                  {
                    "reference": "urn:uuid:6a4e14e1-1ece-44f8-af3b-aaa6bb3f39fa"
                  },
                  {
                    "reference": "urn:uuid:cf5a9c7c-d059-455d-b6c9-f0755ff50667"
                  },
                  {
                    "reference": "urn:uuid:f4190420-be0c-4861-a993-3d8fa699fa8f"
                  },
                  {
                    "reference": "urn:uuid:518503a5-05a6-42ac-a8f5-c9dbb840c5b1"
                  },
                  {
                    "reference": "urn:uuid:1caab3cb-7cd9-4adc-ab09-401a5fb12a85"
                  },
                  {
                    "reference": "urn:uuid:12742a87-8c20-4cfa-a804-6b912cbd156f"
                  },
                  {
                    "reference": "urn:uuid:ce39a33a-96b5-45f6-aea6-bdacefa7eeeb"
                  },
                  {
                    "reference": "urn:uuid:8fe6d6dc-aaa4-4866-a9d2-e93b7823db66"
                  },
                  {
                    "reference": "urn:uuid:e0157cbd-8bac-4fd9-ba2a-d89faf25ed37"
                  }
                ],
                "text": {
                  "status": "generated",
                  "div": "<div xmlns=\"http://www.w3.org/1999/xhtml\"><h3>Hematology</h3><table class=\"hl7__eu__lab__report\"><thead><tr><th>Test</th><th>22-MAR-2020</th><th>Reference&#xA0;Range</th><th>Unit</th></tr></thead><tbody><tr><td>Leukocytes [#/volume] in Blood by Automated count</td><td>5.6</td><td>3.4 - 10</td><td>10*3/uL</td></tr><tr><td>Erythrocytes [#/volume] in Blood by Automated count</td><td>5.2</td><td>4.5 - 5.2</td><td>10*6/uL</td></tr><tr><td>Hemoglobin [Mass/volume] in Blood</td><td>13.4</td><td>12 - 16</td><td>g/dL</td></tr><tr><td>Hematocrit [Volume Fraction] of Blood by Automated count</td><td>42.7</td><td>37 - 47</td><td>%</td></tr><tr><td>MCV [Entitic volume] by Automated count</td><td>82.6</td><td>82 - 98</td><td>fL</td></tr><tr><td>MCH [Entitic mass] by Automated count</td><td>30.4</td><td>27 - 33</td><td>pg</td></tr><tr><td>MCHC [Mass/volume] by Automated count</td><td>34.5</td><td>32 - 37</td><td>g/dL</td></tr><tr><td>Erythrocyte distribution width [Entitic volume] by Automated count</td><td>45.6</td><td>36 - 56</td><td>fL</td></tr><tr><td>Platelets [#/volume] in Blood by Automated count</td><td>283.5</td><td>150 - 450</td><td>10*3/uL</td></tr><tr><td>Platelet distribution width [Entitic volume] in Blood by Automated count</td><td><strong>277.0 H</strong></td><td>11.6 - 17.4</td><td>fL</td></tr><tr><td>Platelet mean volume [Entitic volume] in Blood by Automated count</td><td>10.0</td><td>9.4 - 14</td><td>fL</td></tr></tbody></table></div>"
                },
                "title": "Hematology"
              },
              {
                "code": {
                  "coding": [
                    {
                      "code": "$18719-5",
                      "system": "http://loinc.org",
                      "display": "Chemistry studies (set)"
                    }
                  ],
                  "text": "Chemistry"
                },
                "entry": [
                  {
                    "reference": "urn:uuid:34d55864-2b6e-4675-8702-3ba6106cf86d"
                  },
                  {
                    "reference": "urn:uuid:b18af94a-10fe-40ec-aca0-c1c74cf6fae3"
                  },
                  {
                    "reference": "urn:uuid:a85389dc-69ad-413e-9b35-841c1c031625"
                  },
                  {
                    "reference": "urn:uuid:5e479440-1fb0-45e8-a0fe-52aa61c7d0df"
                  },
                  {
                    "reference": "urn:uuid:419a4e9c-42a0-4fe6-8907-eb7752f3c602"
                  },
                  {
                    "reference": "urn:uuid:eccd9fcf-44d1-4c74-a1d5-a27909382adf"
                  },
                  {
                    "reference": "urn:uuid:4000d941-de08-429b-937d-4f9831035a39"
                  },
                  {
                    "reference": "urn:uuid:6781a722-6168-4cf1-b313-556a0f88ea77"
                  },
                  {
                    "reference": "urn:uuid:84c8b49c-fd58-4944-9448-6cc974224311"
                  }
                ],
                "text": {
                  "status": "generated",
                  "div": "<div xmlns=\"http://www.w3.org/1999/xhtml\"><h3>Chemistry</h3><table class=\"hl7__eu__lab__report\"><thead><tr><th>Test</th><th>22-MAR-2020</th><th>Reference&#xA0;Range</th><th>Unit</th></tr></thead><tbody><tr><td>Hemoglobin A1c/Hemoglobin.total in Blood</td><td><strong>6.1 H</strong></td><td>4.8 - 5.7</td><td>%</td></tr><tr><td>Glucose [Mass/volume] in Blood</td><td><strong>67.7 L</strong></td><td>70 - 140</td><td>mg/dL</td></tr><tr><td>Urea nitrogen [Mass/volume] in Blood</td><td>8.8</td><td>7 - 20</td><td>mg/dL</td></tr><tr><td>Creatinine [Mass/volume] in Blood</td><td>0.9</td><td>0.6 - 1.2</td><td>mg/dL</td></tr><tr><td>Calcium [Mass/volume] in Blood</td><td>10.1</td><td>8.5 - 10.4</td><td>mg/dL</td></tr><tr><td>Sodium [Moles/volume] in Blood</td><td>139.9</td><td>135 - 145</td><td>mmol/L</td></tr><tr><td>Potassium [Moles/volume] in Blood</td><td>4.5</td><td>3.5 - 5.1</td><td>mmol/L</td></tr><tr><td>Chloride [Moles/volume] in Blood</td><td>107.0</td><td>98 - 107</td><td>mmol/L</td></tr><tr><td>Carbon dioxide, total [Moles/volume] in Blood</td><td>25.7</td><td>22 - 29</td><td>mmol/L</td></tr></tbody></table></div>"
                },
                "title": "Chemistry"
              }
            ],
            "title": "Laboratory Report"
          },
          {
            "text": {
              "status": "generated",
              "div": "<div xmlns=\"http://www.w3.org/1999/xhtml\"><h3>Annotation</h3><table class=\"hl7__eu__lab__report\"><tr><th>Conclusion and Recommendations based on this report and previous findings known to us</th></tr><tr><td>The patient shows mildly elevated HbA1c, suggesting impaired glucose metabolism or early diabetes, despite a low fasting glucose which may reflect recent dietary intake or possible hypoglycemia. All other hematological and biochemical parameters are within normal limits, except for a markedly elevated platelet distribution width, which may indicate increased platelet size variability but is likely a reporting or unit error. Clinical correlation and follow-up of glucose metabolism are recommended.</td></tr></table></div>"
            },
            "code": {
              "coding": [
                {
                  "system": "http://loinc.org",
                  "code": "48767-8",
                  "display": "Annotation comment"
                }
              ]
            },
            "title": "Annotation comment"
          }
        ],
        "status": "final",
        "subject": {
          "reference": "urn:uuid:4ce6a034-329e-474b-aa1e-8ef0822d3430",
          "display": "Katy Johnston"
        },
        "date": "2020-03-22T10:58:49Z",
        "title": "Laboratory Report",
        "confidentiality": "N"
      }
    },
    {
      "fullUrl": "urn:uuid:4763c8e4-d72a-458e-b5e3-a1c8ff5d2b12",
      "resource": {
        "resourceType": "DiagnosticReport",
        "id": "4763c8e4-d72a-458e-b5e3-a1c8ff5d2b12",
        "meta": {
          "profile": [
            "http://hl7.eu/fhir/laboratory/StructureDefinition/DiagnosticReport-eu-lab"
          ]
        },
        "identifier": [
          {
            "assigner": {
              "display": "HL7 Europe"
            },
            "system": "urn:oid:2.16.840.1.113883.2.51.999",
            "value": "8c1972ec-55bd-4ff3-8794-a5ad35abf5bc"
          }
        ],
        "extension": [
          {
            "url": "http://hl7.org/fhir/5.0/StructureDefinition/extension-DiagnosticReport.composition",
            "valueReference": {
              "reference": "urn:uuid:3eea2c69-7a34-40e0-b788-e240b08a45ca"
            }
          }
        ],
        "category": [
          {
            "coding": [
              {
                "code": "26436-6",
                "system": "http://loinc.org",
                "display": "Laboratory studies (set)"
              }
            ]
          }
        ],
        "specimen": [
          {
            "reference": "urn:uuid:a09d90af-f7a6-4324-98bd-7d51a633b65f"
          },
          {
            "reference": "urn:uuid:a09d90af-f7a6-4324-98bd-7d51a633b65f"
          }
        ],
        "result": [
          {
            "reference": "urn:uuid:34d55864-2b6e-4675-8702-3ba6106cf86d"
          },
          {
            "reference": "urn:uuid:b18af94a-10fe-40ec-aca0-c1c74cf6fae3"
          },
          {
            "reference": "urn:uuid:a85389dc-69ad-413e-9b35-841c1c031625"
          },
          {
            "reference": "urn:uuid:5e479440-1fb0-45e8-a0fe-52aa61c7d0df"
          },
          {
            "reference": "urn:uuid:419a4e9c-42a0-4fe6-8907-eb7752f3c602"
          },
          {
            "reference": "urn:uuid:eccd9fcf-44d1-4c74-a1d5-a27909382adf"
          },
          {
            "reference": "urn:uuid:4000d941-de08-429b-937d-4f9831035a39"
          },
          {
            "reference": "urn:uuid:6781a722-6168-4cf1-b313-556a0f88ea77"
          },
          {
            "reference": "urn:uuid:84c8b49c-fd58-4944-9448-6cc974224311"
          },
          {
            "reference": "urn:uuid:4b46f78e-0b94-4c7e-b442-7b8399063e0b"
          },
          {
            "reference": "urn:uuid:42425970-7c31-493f-8a7d-9fedf00efd2f"
          },
          {
            "reference": "urn:uuid:6a4e14e1-1ece-44f8-af3b-aaa6bb3f39fa"
          },
          {
            "reference": "urn:uuid:cf5a9c7c-d059-455d-b6c9-f0755ff50667"
          },
          {
            "reference": "urn:uuid:f4190420-be0c-4861-a993-3d8fa699fa8f"
          },
          {
            "reference": "urn:uuid:518503a5-05a6-42ac-a8f5-c9dbb840c5b1"
          },
          {
            "reference": "urn:uuid:1caab3cb-7cd9-4adc-ab09-401a5fb12a85"
          },
          {
            "reference": "urn:uuid:12742a87-8c20-4cfa-a804-6b912cbd156f"
          },
          {
            "reference": "urn:uuid:ce39a33a-96b5-45f6-aea6-bdacefa7eeeb"
          },
          {
            "reference": "urn:uuid:8fe6d6dc-aaa4-4866-a9d2-e93b7823db66"
          },
          {
            "reference": "urn:uuid:e0157cbd-8bac-4fd9-ba2a-d89faf25ed37"
          }
        ],
        "status": "registered",
        "code": {
          "coding": [
            {
              "code": "11502-2",
              "system": "http://loinc.org",
              "display": "Laboratory report"
            }
          ]
        },
        "subject": {
          "reference": "urn:uuid:4ce6a034-329e-474b-aa1e-8ef0822d3430",
          "display": "Katy Johnston"
        }
      }
    },
    {
      "fullUrl": "urn:uuid:4ce6a034-329e-474b-aa1e-8ef0822d3430",
      "resource": {
        "resourceType": "Patient",
        "id": "4ce6a034-329e-474b-aa1e-8ef0822d3430",
        "meta": {
          "security": [
            {
              "system": "http://terminology.hl7.org/CodeSystem/v3-ActReason",
              "code": "HTEST"
            },
            {
              "system": "http://terminology.hl7.org/CodeSystem/v3-ActReason",
              "code": "TRAIN"
            }
          ],
          "tag": [
            {
              "system": "https://synderai.net/fhir/CodeSystem/tags",
              "code": "synthetic",
              "display": "SYNDERAI Synthetic data"
            }
          ],
          "profile": [
            "http://hl7.eu/fhir/base/StructureDefinition/patient-eu-core"
          ]
        },
        "identifier": [
          {
            "type": {
              "coding": [
                {
                  "code": "PT",
                  "system": "http://terminology.hl7.org/CodeSystem/v2-0203"
                }
              ]
            },
            "system": "http://ec.europa.eu/identifier/eci",
            "value": "1854-452946-6"
          },
          {
            "type": {
              "coding": [
                {
                  "code": "MR",
                  "system": "http://terminology.hl7.org/CodeSystem/v2-0203"
                }
              ]
            },
            "system": "http://local.setting.eu/identifier",
            "value": "f94741cf-8405-9657-1aec-b3bd1788b46e"
          }
        ],
        "name": [
          {
            "family": "Johnston"
          },
          {
            "given": [
              "Katy"
            ]
          },
          {
            "text": "Katy Johnston"
          }
        ],
        "address": [
          {
            "line": [
              "Flat 16f",
              "Stokes roads"
            ],
            "use": "home",
            "type": "physical",
            "postalCode": "E1",
            "city": "London",
            "country": "United Kingdom"
          }
        ],
        "telecom": [
          {
            "system": "phone",
            "value": "+44808 1570256"
          }
        ],
        "extension": [
          {
            "url": "http://hl7.org/fhir/StructureDefinition/patient-nationality",
            "valueCodeableConcept": {
              "coding": [
                {
                  "code": "GB",
                  "system": "http://hl7.org/fhir/ValueSet/country"
                }
              ]
            }
          }
        ],
        "text": {
          "status": "generated",
          "div": "<div xmlns=\"http://www.w3.org/1999/xhtml\"><table class=\"hl7__ips\"><tr><td>Katy Johnston</td><td>female</td><td>19-Sep-1988</td></tr></table></div>"
        },
        "gender": "female",
        "birthDate": "1988-09-19"
      }
    },
    {
      "fullUrl": "urn:uuid:e239de3a-02c6-4c20-8475-82d6f7c0fec7",
      "resource": {
        "resourceType": "ServiceRequest",
        "id": "e239de3a-02c6-4c20-8475-82d6f7c0fec7",
        "meta": {
          "profile": [
            "http://hl7.eu/fhir/laboratory/StructureDefinition/ServiceRequest-eu-lab"
          ]
        },
        "identifier": [
          {
            "system": "http://example.org",
            "value": "78aa319f-bf59-4e6e-a35c-0a34ba7b21f3"
          }
        ],
        "specimen": [
          {
            "reference": "urn:uuid:a09d90af-f7a6-4324-98bd-7d51a633b65f"
          }
        ],
        "reasonCode": [
          {
            "coding": [
              {
                "code": "284549007",
                "system": "http://snomed.info/sct",
                "display": "Laceration of hand"
              }
            ]
          },
          {
            "coding": [
              {
                "code": "312608009",
                "system": "http://snomed.info/sct",
                "display": "Laceration - injury"
              }
            ]
          },
          {
            "coding": [
              {
                "code": "15777000",
                "system": "http://snomed.info/sct",
                "display": "Prediabetes"
              }
            ]
          },
          {
            "coding": [
              {
                "code": "271737000",
                "system": "http://snomed.info/sct",
                "display": "Anemia"
              }
            ]
          },
          {
            "coding": [
              {
                "code": "203082005",
                "system": "http://snomed.info/sct",
                "display": "Fibromyalgia"
              }
            ]
          },
          {
            "coding": [
              {
                "code": "6525002",
                "system": "http://snomed.info/sct",
                "display": "Dependent drug abuse"
              }
            ]
          },
          {
            "coding": [
              {
                "code": "124171000119105",
                "system": "http://snomed.info/sct",
                "display": "Chronic intractable migraine without aura"
              }
            ]
          },
          {
            "coding": [
              {
                "code": "196416002",
                "system": "http://snomed.info/sct",
                "display": "Impacted molars"
              }
            ]
          }
        ],
        "status": "active",
        "intent": "order",
        "code": {
          "coding": [
            {
              "code": "108252007",
              "system": "http://snomed.info/sct",
              "display": "Laboratory procedure"
            }
          ]
        },
        "subject": {
          "reference": "urn:uuid:4ce6a034-329e-474b-aa1e-8ef0822d3430",
          "display": "Katy Johnston"
        },
        "requester": {
          "reference": "urn:uuid:213ad0d9-1dcb-45ab-a0e6-2c478d1db12f"
        }
      }
    },
    {
      "fullUrl": "urn:uuid:213ad0d9-1dcb-45ab-a0e6-2c478d1db12f",
      "resource": {
        "resourceType": "PractitionerRole",
        "id": "213ad0d9-1dcb-45ab-a0e6-2c478d1db12f",
        "meta": {
          "profile": [
            "http://hl7.eu/fhir/base/StructureDefinition/practitionerRole-eu"
          ]
        },
        "text": {
          "status": "generated",
          "div": "<div xmlns=\"http://www.w3.org/1999/xhtml\">Provider Role Id: 213ad0d9-1dcb-45ab-a0e6-2c478d1db12f</div>"
        },
        "organization": {
          "reference": "urn:uuid:9fd665e8-acec-4ac0-9904-83c9387a1949"
        }
      }
    },
    {
      "fullUrl": "urn:uuid:9fd665e8-acec-4ac0-9904-83c9387a1949",
      "resource": {
        "resourceType": "Organization",
        "id": "9fd665e8-acec-4ac0-9904-83c9387a1949",
        "meta": {
          "profile": [
            "http://hl7.eu/fhir/base/StructureDefinition/organization-eu"
          ]
        },
        "identifier": [
          {
            "assigner": {
              "display": "HL7 Europe"
            },
            "system": "urn:oid:2.16.840.1.113883.2.51.999",
            "value": "87877cf7-47d2-468f-aefe-2c589720ebdd"
          }
        ],
        "address": [
          {
            "city": "London",
            "postalCode": "SE1 7",
            "country": "United Kingdom"
          }
        ],
        "text": {
          "status": "generated",
          "div": "<div xmlns=\"http://www.w3.org/1999/xhtml\">Provider Organization: Evelina Children&#039;s Hospital</div>"
        },
        "name": "Evelina Children&#039;s Hospital"
      }
    },
    {
      "fullUrl": "urn:uuid:a09d90af-f7a6-4324-98bd-7d51a633b65f",
      "resource": {
        "resourceType": "Specimen",
        "id": "a09d90af-f7a6-4324-98bd-7d51a633b65f",
        "meta": {
          "profile": [
            "http://hl7.eu/fhir/laboratory/StructureDefinition/Specimen-eu-lab"
          ]
        },
        "collection": {
          "collectedDateTime": "2020-03-22"
        },
        "text": {
          "status": "generated",
          "div": "<div xmlns=\"http://www.w3.org/1999/xhtml\"><table class=\"hl7__eu__lab__report\"><tr><th>Specimen</th><th>Collection Date</th></tr><tr><td>Whole blood specimen (specimen)</td><td><span class=\"nb\">22-Mar-2020</span></td></tr></table></div>"
        },
        "type": {
          "coding": [
            {
              "code": "258580003",
              "system": "http://snomed.info/sct",
              "display": "Whole blood specimen (specimen)"
            }
          ]
        }
      }
    },
    {
      "fullUrl": "urn:uuid:a09d90af-f7a6-4324-98bd-7d51a633b65f",
      "resource": {
        "resourceType": "Specimen",
        "id": "a09d90af-f7a6-4324-98bd-7d51a633b65f",
        "meta": {
          "profile": [
            "http://hl7.eu/fhir/laboratory/StructureDefinition/Specimen-eu-lab"
          ]
        },
        "collection": {
          "collectedDateTime": "2020-03-22"
        },
        "text": {
          "status": "generated",
          "div": "<div xmlns=\"http://www.w3.org/1999/xhtml\"><table class=\"hl7__eu__lab__report\"><tr><th>Specimen</th><th>Collection Date</th></tr><tr><td>Whole blood specimen (specimen)</td><td><span class=\"nb\">22-Mar-2020</span></td></tr></table></div>"
        },
        "type": {
          "coding": [
            {
              "code": "258580003",
              "system": "http://snomed.info/sct",
              "display": "Whole blood specimen (specimen)"
            }
          ]
        }
      }
    },
    {
      "fullUrl": "urn:uuid:34d55864-2b6e-4675-8702-3ba6106cf86d",
      "resource": {
        "resourceType": "Observation",
        "id": "34d55864-2b6e-4675-8702-3ba6106cf86d",
        "meta": {
          "profile": [
            "http://hl7.eu/fhir/laboratory/StructureDefinition/Observation-resultslab-eu-lab"
          ]
        },
        "performer": [
          {
            "display": "The Central European Lab"
          }
        ],
        "category": [
          {
            "coding": [
              {
                "system": "http://terminology.hl7.org/CodeSystem/observation-category",
                "code": "laboratory"
              }
            ]
          }
        ],
        "code": {
          "coding": [
            {
              "code": "4548-4",
              "system": "http://loinc.org",
              "display": "Hemoglobin A1c/Hemoglobin.total in Blood"
            }
          ],
          "text": "Hemoglobin A1c/Hemoglobin.total in Blood"
        },
        "valueQuantity": {
          "system": "http://unitsofmeasure.org",
          "value": 6.1,
          "unit": "%",
          "code": "%"
        },
        "referenceRange": [
          {
            "low": {
              "value": 4.8,
              "code": "%",
              "system": "http://unitsofmeasure.org"
            }
          },
          {
            "high": {
              "value": 5.7,
              "code": "%",
              "system": "http://unitsofmeasure.org"
            }
          }
        ],
        "interpretation": [
          {
            "coding": [
              {
                "code": "H",
                "system": "http://terminology.hl7.org/CodeSystem/v3-ObservationInterpretation",
                "display": "High"
              }
            ]
          }
        ],
        "text": {
          "status": "generated",
          "div": "<div xmlns=\"http://www.w3.org/1999/xhtml\"><table class=\"hl7__eu__lab__report\"><tr><th>Test</th><th>22-Mar-2020</th><th>Reference&#xA0;Range</th><th>Unit</th></tr><tr><td>Hemoglobin A1c/Hemoglobin.total in Blood</td><td>6.1</td><td>4.8 - 5.7</td><td>H</td><td>%</td></tr></table></div>"
        },
        "status": "final",
        "subject": {
          "reference": "urn:uuid:4ce6a034-329e-474b-aa1e-8ef0822d3430",
          "display": "Katy Johnston"
        },
        "effectiveDateTime": "2020-03-22T09:58:49Z",
        "specimen": {
          "reference": "urn:uuid:a09d90af-f7a6-4324-98bd-7d51a633b65f"
        }
      }
    },
    {
      "fullUrl": "urn:uuid:b18af94a-10fe-40ec-aca0-c1c74cf6fae3",
      "resource": {
        "resourceType": "Observation",
        "id": "b18af94a-10fe-40ec-aca0-c1c74cf6fae3",
        "meta": {
          "profile": [
            "http://hl7.eu/fhir/laboratory/StructureDefinition/Observation-resultslab-eu-lab"
          ]
        },
        "performer": [
          {
            "display": "The Central European Lab"
          }
        ],
        "category": [
          {
            "coding": [
              {
                "system": "http://terminology.hl7.org/CodeSystem/observation-category",
                "code": "laboratory"
              }
            ]
          }
        ],
        "code": {
          "coding": [
            {
              "code": "2339-0",
              "system": "http://loinc.org",
              "display": "Glucose [Mass/volume] in Blood"
            }
          ],
          "text": "Glucose [Mass/volume] in Blood"
        },
        "valueQuantity": {
          "system": "http://unitsofmeasure.org",
          "value": 67.7,
          "unit": "mg/dL",
          "code": "mg/dL"
        },
        "referenceRange": [
          {
            "low": {
              "value": 70,
              "code": "mg/dL",
              "system": "http://unitsofmeasure.org"
            }
          },
          {
            "high": {
              "value": 140,
              "code": "mg/dL",
              "system": "http://unitsofmeasure.org"
            }
          }
        ],
        "interpretation": [
          {
            "coding": [
              {
                "code": "L",
                "system": "http://terminology.hl7.org/CodeSystem/v3-ObservationInterpretation",
                "display": "Low"
              }
            ]
          }
        ],
        "text": {
          "status": "generated",
          "div": "<div xmlns=\"http://www.w3.org/1999/xhtml\"><table class=\"hl7__eu__lab__report\"><tr><th>Test</th><th>22-Mar-2020</th><th>Reference&#xA0;Range</th><th>Unit</th></tr><tr><td>Glucose [Mass/volume] in Blood</td><td>67.7</td><td>70 - 140</td><td>L</td><td>mg/dL</td></tr></table></div>"
        },
        "status": "final",
        "subject": {
          "reference": "urn:uuid:4ce6a034-329e-474b-aa1e-8ef0822d3430",
          "display": "Katy Johnston"
        },
        "effectiveDateTime": "2020-03-22T09:58:49Z",
        "specimen": {
          "reference": "urn:uuid:a09d90af-f7a6-4324-98bd-7d51a633b65f"
        }
      }
    },
    {
      "fullUrl": "urn:uuid:a85389dc-69ad-413e-9b35-841c1c031625",
      "resource": {
        "resourceType": "Observation",
        "id": "a85389dc-69ad-413e-9b35-841c1c031625",
        "meta": {
          "profile": [
            "http://hl7.eu/fhir/laboratory/StructureDefinition/Observation-resultslab-eu-lab"
          ]
        },
        "performer": [
          {
            "display": "The Central European Lab"
          }
        ],
        "category": [
          {
            "coding": [
              {
                "system": "http://terminology.hl7.org/CodeSystem/observation-category",
                "code": "laboratory"
              }
            ]
          }
        ],
        "code": {
          "coding": [
            {
              "code": "6299-2",
              "system": "http://loinc.org",
              "display": "Urea nitrogen [Mass/volume] in Blood"
            }
          ],
          "text": "Urea nitrogen [Mass/volume] in Blood"
        },
        "valueQuantity": {
          "system": "http://unitsofmeasure.org",
          "value": 8.8,
          "unit": "mg/dL",
          "code": "mg/dL"
        },
        "referenceRange": [
          {
            "low": {
              "value": 7,
              "code": "mg/dL",
              "system": "http://unitsofmeasure.org"
            }
          },
          {
            "high": {
              "value": 20,
              "code": "mg/dL",
              "system": "http://unitsofmeasure.org"
            }
          }
        ],
        "text": {
          "status": "generated",
          "div": "<div xmlns=\"http://www.w3.org/1999/xhtml\"><table class=\"hl7__eu__lab__report\"><tr><th>Test</th><th>22-Mar-2020</th><th>Reference&#xA0;Range</th><th>Unit</th></tr><tr><td>Urea nitrogen [Mass/volume] in Blood</td><td>8.8</td><td>7 - 20</td><td></td><td>mg/dL</td></tr></table></div>"
        },
        "status": "final",
        "subject": {
          "reference": "urn:uuid:4ce6a034-329e-474b-aa1e-8ef0822d3430",
          "display": "Katy Johnston"
        },
        "effectiveDateTime": "2020-03-22T09:58:49Z",
        "specimen": {
          "reference": "urn:uuid:a09d90af-f7a6-4324-98bd-7d51a633b65f"
        }
      }
    },
    {
      "fullUrl": "urn:uuid:5e479440-1fb0-45e8-a0fe-52aa61c7d0df",
      "resource": {
        "resourceType": "Observation",
        "id": "5e479440-1fb0-45e8-a0fe-52aa61c7d0df",
        "meta": {
          "profile": [
            "http://hl7.eu/fhir/laboratory/StructureDefinition/Observation-resultslab-eu-lab"
          ]
        },
        "performer": [
          {
            "display": "The Central European Lab"
          }
        ],
        "category": [
          {
            "coding": [
              {
                "system": "http://terminology.hl7.org/CodeSystem/observation-category",
                "code": "laboratory"
              }
            ]
          }
        ],
        "code": {
          "coding": [
            {
              "code": "38483-4",
              "system": "http://loinc.org",
              "display": "Creatinine [Mass/volume] in Blood"
            }
          ],
          "text": "Creatinine [Mass/volume] in Blood"
        },
        "valueQuantity": {
          "system": "http://unitsofmeasure.org",
          "value": 0.9,
          "unit": "mg/dL",
          "code": "mg/dL"
        },
        "referenceRange": [
          {
            "low": {
              "value": 0.6,
              "code": "mg/dL",
              "system": "http://unitsofmeasure.org"
            }
          },
          {
            "high": {
              "value": 1.2,
              "code": "mg/dL",
              "system": "http://unitsofmeasure.org"
            }
          }
        ],
        "text": {
          "status": "generated",
          "div": "<div xmlns=\"http://www.w3.org/1999/xhtml\"><table class=\"hl7__eu__lab__report\"><tr><th>Test</th><th>22-Mar-2020</th><th>Reference&#xA0;Range</th><th>Unit</th></tr><tr><td>Creatinine [Mass/volume] in Blood</td><td>0.9</td><td>0.6 - 1.2</td><td></td><td>mg/dL</td></tr></table></div>"
        },
        "status": "final",
        "subject": {
          "reference": "urn:uuid:4ce6a034-329e-474b-aa1e-8ef0822d3430",
          "display": "Katy Johnston"
        },
        "effectiveDateTime": "2020-03-22T09:58:49Z",
        "specimen": {
          "reference": "urn:uuid:a09d90af-f7a6-4324-98bd-7d51a633b65f"
        }
      }
    },
    {
      "fullUrl": "urn:uuid:419a4e9c-42a0-4fe6-8907-eb7752f3c602",
      "resource": {
        "resourceType": "Observation",
        "id": "419a4e9c-42a0-4fe6-8907-eb7752f3c602",
        "meta": {
          "profile": [
            "http://hl7.eu/fhir/laboratory/StructureDefinition/Observation-resultslab-eu-lab"
          ]
        },
        "performer": [
          {
            "display": "The Central European Lab"
          }
        ],
        "category": [
          {
            "coding": [
              {
                "system": "http://terminology.hl7.org/CodeSystem/observation-category",
                "code": "laboratory"
              }
            ]
          }
        ],
        "code": {
          "coding": [
            {
              "code": "49765-1",
              "system": "http://loinc.org",
              "display": "Calcium [Mass/volume] in Blood"
            }
          ],
          "text": "Calcium [Mass/volume] in Blood"
        },
        "valueQuantity": {
          "system": "http://unitsofmeasure.org",
          "value": 10.1,
          "unit": "mg/dL",
          "code": "mg/dL"
        },
        "referenceRange": [
          {
            "low": {
              "value": 8.5,
              "code": "mg/dL",
              "system": "http://unitsofmeasure.org"
            }
          },
          {
            "high": {
              "value": 10.4,
              "code": "mg/dL",
              "system": "http://unitsofmeasure.org"
            }
          }
        ],
        "text": {
          "status": "generated",
          "div": "<div xmlns=\"http://www.w3.org/1999/xhtml\"><table class=\"hl7__eu__lab__report\"><tr><th>Test</th><th>22-Mar-2020</th><th>Reference&#xA0;Range</th><th>Unit</th></tr><tr><td>Calcium [Mass/volume] in Blood</td><td>10.1</td><td>8.5 - 10.4</td><td></td><td>mg/dL</td></tr></table></div>"
        },
        "status": "final",
        "subject": {
          "reference": "urn:uuid:4ce6a034-329e-474b-aa1e-8ef0822d3430",
          "display": "Katy Johnston"
        },
        "effectiveDateTime": "2020-03-22T09:58:49Z",
        "specimen": {
          "reference": "urn:uuid:a09d90af-f7a6-4324-98bd-7d51a633b65f"
        }
      }
    },
    {
      "fullUrl": "urn:uuid:eccd9fcf-44d1-4c74-a1d5-a27909382adf",
      "resource": {
        "resourceType": "Observation",
        "id": "eccd9fcf-44d1-4c74-a1d5-a27909382adf",
        "meta": {
          "profile": [
            "http://hl7.eu/fhir/laboratory/StructureDefinition/Observation-resultslab-eu-lab"
          ]
        },
        "performer": [
          {
            "display": "The Central European Lab"
          }
        ],
        "category": [
          {
            "coding": [
              {
                "system": "http://terminology.hl7.org/CodeSystem/observation-category",
                "code": "laboratory"
              }
            ]
          }
        ],
        "code": {
          "coding": [
            {
              "code": "2947-0",
              "system": "http://loinc.org",
              "display": "Sodium [Moles/volume] in Blood"
            }
          ],
          "text": "Sodium [Moles/volume] in Blood"
        },
        "valueQuantity": {
          "system": "http://unitsofmeasure.org",
          "value": 139.9,
          "unit": "mmol/L",
          "code": "mmol/L"
        },
        "referenceRange": [
          {
            "low": {
              "value": 135,
              "code": "mmol/L",
              "system": "http://unitsofmeasure.org"
            }
          },
          {
            "high": {
              "value": 145,
              "code": "mmol/L",
              "system": "http://unitsofmeasure.org"
            }
          }
        ],
        "text": {
          "status": "generated",
          "div": "<div xmlns=\"http://www.w3.org/1999/xhtml\"><table class=\"hl7__eu__lab__report\"><tr><th>Test</th><th>22-Mar-2020</th><th>Reference&#xA0;Range</th><th>Unit</th></tr><tr><td>Sodium [Moles/volume] in Blood</td><td>139.9</td><td>135 - 145</td><td></td><td>mmol/L</td></tr></table></div>"
        },
        "status": "final",
        "subject": {
          "reference": "urn:uuid:4ce6a034-329e-474b-aa1e-8ef0822d3430",
          "display": "Katy Johnston"
        },
        "effectiveDateTime": "2020-03-22T09:58:49Z",
        "specimen": {
          "reference": "urn:uuid:a09d90af-f7a6-4324-98bd-7d51a633b65f"
        }
      }
    },
    {
      "fullUrl": "urn:uuid:4000d941-de08-429b-937d-4f9831035a39",
      "resource": {
        "resourceType": "Observation",
        "id": "4000d941-de08-429b-937d-4f9831035a39",
        "meta": {
          "profile": [
            "http://hl7.eu/fhir/laboratory/StructureDefinition/Observation-resultslab-eu-lab"
          ]
        },
        "performer": [
          {
            "display": "The Central European Lab"
          }
        ],
        "category": [
          {
            "coding": [
              {
                "system": "http://terminology.hl7.org/CodeSystem/observation-category",
                "code": "laboratory"
              }
            ]
          }
        ],
        "code": {
          "coding": [
            {
              "code": "6298-4",
              "system": "http://loinc.org",
              "display": "Potassium [Moles/volume] in Blood"
            }
          ],
          "text": "Potassium [Moles/volume] in Blood"
        },
        "valueQuantity": {
          "system": "http://unitsofmeasure.org",
          "value": 4.5,
          "unit": "mmol/L",
          "code": "mmol/L"
        },
        "referenceRange": [
          {
            "low": {
              "value": 3.5,
              "code": "mmol/L",
              "system": "http://unitsofmeasure.org"
            }
          },
          {
            "high": {
              "value": 5.1,
              "code": "mmol/L",
              "system": "http://unitsofmeasure.org"
            }
          }
        ],
        "text": {
          "status": "generated",
          "div": "<div xmlns=\"http://www.w3.org/1999/xhtml\"><table class=\"hl7__eu__lab__report\"><tr><th>Test</th><th>22-Mar-2020</th><th>Reference&#xA0;Range</th><th>Unit</th></tr><tr><td>Potassium [Moles/volume] in Blood</td><td>4.5</td><td>3.5 - 5.1</td><td></td><td>mmol/L</td></tr></table></div>"
        },
        "status": "final",
        "subject": {
          "reference": "urn:uuid:4ce6a034-329e-474b-aa1e-8ef0822d3430",
          "display": "Katy Johnston"
        },
        "effectiveDateTime": "2020-03-22T09:58:49Z",
        "specimen": {
          "reference": "urn:uuid:a09d90af-f7a6-4324-98bd-7d51a633b65f"
        }
      }
    },
    {
      "fullUrl": "urn:uuid:6781a722-6168-4cf1-b313-556a0f88ea77",
      "resource": {
        "resourceType": "Observation",
        "id": "6781a722-6168-4cf1-b313-556a0f88ea77",
        "meta": {
          "profile": [
            "http://hl7.eu/fhir/laboratory/StructureDefinition/Observation-resultslab-eu-lab"
          ]
        },
        "performer": [
          {
            "display": "The Central European Lab"
          }
        ],
        "category": [
          {
            "coding": [
              {
                "system": "http://terminology.hl7.org/CodeSystem/observation-category",
                "code": "laboratory"
              }
            ]
          }
        ],
        "code": {
          "coding": [
            {
              "code": "2069-3",
              "system": "http://loinc.org",
              "display": "Chloride [Moles/volume] in Blood"
            }
          ],
          "text": "Chloride [Moles/volume] in Blood"
        },
        "valueQuantity": {
          "system": "http://unitsofmeasure.org",
          "value": 107,
          "unit": "mmol/L",
          "code": "mmol/L"
        },
        "referenceRange": [
          {
            "low": {
              "value": 98,
              "code": "mmol/L",
              "system": "http://unitsofmeasure.org"
            }
          },
          {
            "high": {
              "value": 107,
              "code": "mmol/L",
              "system": "http://unitsofmeasure.org"
            }
          }
        ],
        "text": {
          "status": "generated",
          "div": "<div xmlns=\"http://www.w3.org/1999/xhtml\"><table class=\"hl7__eu__lab__report\"><tr><th>Test</th><th>22-Mar-2020</th><th>Reference&#xA0;Range</th><th>Unit</th></tr><tr><td>Chloride [Moles/volume] in Blood</td><td>107.0</td><td>98 - 107</td><td></td><td>mmol/L</td></tr></table></div>"
        },
        "status": "final",
        "subject": {
          "reference": "urn:uuid:4ce6a034-329e-474b-aa1e-8ef0822d3430",
          "display": "Katy Johnston"
        },
        "effectiveDateTime": "2020-03-22T09:58:49Z",
        "specimen": {
          "reference": "urn:uuid:a09d90af-f7a6-4324-98bd-7d51a633b65f"
        }
      }
    },
    {
      "fullUrl": "urn:uuid:84c8b49c-fd58-4944-9448-6cc974224311",
      "resource": {
        "resourceType": "Observation",
        "id": "84c8b49c-fd58-4944-9448-6cc974224311",
        "meta": {
          "profile": [
            "http://hl7.eu/fhir/laboratory/StructureDefinition/Observation-resultslab-eu-lab"
          ]
        },
        "performer": [
          {
            "display": "The Central European Lab"
          }
        ],
        "category": [
          {
            "coding": [
              {
                "system": "http://terminology.hl7.org/CodeSystem/observation-category",
                "code": "laboratory"
              }
            ]
          }
        ],
        "code": {
          "coding": [
            {
              "code": "20565-8",
              "system": "http://loinc.org",
              "display": "Carbon dioxide, total [Moles/volume] in Blood"
            }
          ],
          "text": "Carbon dioxide, total [Moles/volume] in Blood"
        },
        "valueQuantity": {
          "system": "http://unitsofmeasure.org",
          "value": 25.7,
          "unit": "mmol/L",
          "code": "mmol/L"
        },
        "referenceRange": [
          {
            "low": {
              "value": 22,
              "code": "mmol/L",
              "system": "http://unitsofmeasure.org"
            }
          },
          {
            "high": {
              "value": 29,
              "code": "mmol/L",
              "system": "http://unitsofmeasure.org"
            }
          }
        ],
        "text": {
          "status": "generated",
          "div": "<div xmlns=\"http://www.w3.org/1999/xhtml\"><table class=\"hl7__eu__lab__report\"><tr><th>Test</th><th>22-Mar-2020</th><th>Reference&#xA0;Range</th><th>Unit</th></tr><tr><td>Carbon dioxide, total [Moles/volume] in Blood</td><td>25.7</td><td>22 - 29</td><td></td><td>mmol/L</td></tr></table></div>"
        },
        "status": "final",
        "subject": {
          "reference": "urn:uuid:4ce6a034-329e-474b-aa1e-8ef0822d3430",
          "display": "Katy Johnston"
        },
        "effectiveDateTime": "2020-03-22T09:58:49Z",
        "specimen": {
          "reference": "urn:uuid:a09d90af-f7a6-4324-98bd-7d51a633b65f"
        }
      }
    },
    {
      "fullUrl": "urn:uuid:4b46f78e-0b94-4c7e-b442-7b8399063e0b",
      "resource": {
        "resourceType": "Observation",
        "id": "4b46f78e-0b94-4c7e-b442-7b8399063e0b",
        "meta": {
          "profile": [
            "http://hl7.eu/fhir/laboratory/StructureDefinition/Observation-resultslab-eu-lab"
          ]
        },
        "performer": [
          {
            "display": "The Central European Lab"
          }
        ],
        "category": [
          {
            "coding": [
              {
                "system": "http://terminology.hl7.org/CodeSystem/observation-category",
                "code": "laboratory"
              }
            ]
          }
        ],
        "code": {
          "coding": [
            {
              "code": "6690-2",
              "system": "http://loinc.org",
              "display": "Leukocytes [#/volume] in Blood by Automated count"
            }
          ],
          "text": "Leukocytes [#/volume] in Blood by Automated count"
        },
        "valueQuantity": {
          "system": "http://unitsofmeasure.org",
          "value": 5.6,
          "unit": "10*3/uL",
          "code": "10*3/uL"
        },
        "referenceRange": [
          {
            "low": {
              "value": 3.4,
              "code": "10*3/uL",
              "system": "http://unitsofmeasure.org"
            }
          },
          {
            "high": {
              "value": 10,
              "code": "10*3/uL",
              "system": "http://unitsofmeasure.org"
            }
          }
        ],
        "text": {
          "status": "generated",
          "div": "<div xmlns=\"http://www.w3.org/1999/xhtml\"><table class=\"hl7__eu__lab__report\"><tr><th>Test</th><th>22-Mar-2020</th><th>Reference&#xA0;Range</th><th>Unit</th></tr><tr><td>Leukocytes [#/volume] in Blood by Automated count</td><td>5.6</td><td>3.4 - 10</td><td></td><td>10*3/uL</td></tr></table></div>"
        },
        "status": "final",
        "subject": {
          "reference": "urn:uuid:4ce6a034-329e-474b-aa1e-8ef0822d3430",
          "display": "Katy Johnston"
        },
        "effectiveDateTime": "2020-03-22T09:58:49Z",
        "specimen": {
          "reference": "urn:uuid:a09d90af-f7a6-4324-98bd-7d51a633b65f"
        }
      }
    },
    {
      "fullUrl": "urn:uuid:42425970-7c31-493f-8a7d-9fedf00efd2f",
      "resource": {
        "resourceType": "Observation",
        "id": "42425970-7c31-493f-8a7d-9fedf00efd2f",
        "meta": {
          "profile": [
            "http://hl7.eu/fhir/laboratory/StructureDefinition/Observation-resultslab-eu-lab"
          ]
        },
        "performer": [
          {
            "display": "The Central European Lab"
          }
        ],
        "category": [
          {
            "coding": [
              {
                "system": "http://terminology.hl7.org/CodeSystem/observation-category",
                "code": "laboratory"
              }
            ]
          }
        ],
        "code": {
          "coding": [
            {
              "code": "789-8",
              "system": "http://loinc.org",
              "display": "Erythrocytes [#/volume] in Blood by Automated count"
            }
          ],
          "text": "Erythrocytes [#/volume] in Blood by Automated count"
        },
        "valueQuantity": {
          "system": "http://unitsofmeasure.org",
          "value": 5.2,
          "unit": "10*6/uL",
          "code": "10*6/uL"
        },
        "referenceRange": [
          {
            "low": {
              "value": 4.5,
              "code": "10*6/uL",
              "system": "http://unitsofmeasure.org"
            }
          },
          {
            "high": {
              "value": 5.2,
              "code": "10*6/uL",
              "system": "http://unitsofmeasure.org"
            }
          }
        ],
        "text": {
          "status": "generated",
          "div": "<div xmlns=\"http://www.w3.org/1999/xhtml\"><table class=\"hl7__eu__lab__report\"><tr><th>Test</th><th>22-Mar-2020</th><th>Reference&#xA0;Range</th><th>Unit</th></tr><tr><td>Erythrocytes [#/volume] in Blood by Automated count</td><td>5.2</td><td>4.5 - 5.2</td><td></td><td>10*6/uL</td></tr></table></div>"
        },
        "status": "final",
        "subject": {
          "reference": "urn:uuid:4ce6a034-329e-474b-aa1e-8ef0822d3430",
          "display": "Katy Johnston"
        },
        "effectiveDateTime": "2020-03-22T09:58:49Z",
        "specimen": {
          "reference": "urn:uuid:a09d90af-f7a6-4324-98bd-7d51a633b65f"
        }
      }
    },
    {
      "fullUrl": "urn:uuid:6a4e14e1-1ece-44f8-af3b-aaa6bb3f39fa",
      "resource": {
        "resourceType": "Observation",
        "id": "6a4e14e1-1ece-44f8-af3b-aaa6bb3f39fa",
        "meta": {
          "profile": [
            "http://hl7.eu/fhir/laboratory/StructureDefinition/Observation-resultslab-eu-lab"
          ]
        },
        "performer": [
          {
            "display": "The Central European Lab"
          }
        ],
        "category": [
          {
            "coding": [
              {
                "system": "http://terminology.hl7.org/CodeSystem/observation-category",
                "code": "laboratory"
              }
            ]
          }
        ],
        "code": {
          "coding": [
            {
              "code": "718-7",
              "system": "http://loinc.org",
              "display": "Hemoglobin [Mass/volume] in Blood"
            }
          ],
          "text": "Hemoglobin [Mass/volume] in Blood"
        },
        "valueQuantity": {
          "system": "http://unitsofmeasure.org",
          "value": 13.4,
          "unit": "g/dL",
          "code": "g/dL"
        },
        "referenceRange": [
          {
            "low": {
              "value": 12,
              "code": "g/dL",
              "system": "http://unitsofmeasure.org"
            }
          },
          {
            "high": {
              "value": 16,
              "code": "g/dL",
              "system": "http://unitsofmeasure.org"
            }
          }
        ],
        "text": {
          "status": "generated",
          "div": "<div xmlns=\"http://www.w3.org/1999/xhtml\"><table class=\"hl7__eu__lab__report\"><tr><th>Test</th><th>22-Mar-2020</th><th>Reference&#xA0;Range</th><th>Unit</th></tr><tr><td>Hemoglobin [Mass/volume] in Blood</td><td>13.4</td><td>12 - 16</td><td></td><td>g/dL</td></tr></table></div>"
        },
        "status": "final",
        "subject": {
          "reference": "urn:uuid:4ce6a034-329e-474b-aa1e-8ef0822d3430",
          "display": "Katy Johnston"
        },
        "effectiveDateTime": "2020-03-22T09:58:49Z",
        "specimen": {
          "reference": "urn:uuid:a09d90af-f7a6-4324-98bd-7d51a633b65f"
        }
      }
    },
    {
      "fullUrl": "urn:uuid:cf5a9c7c-d059-455d-b6c9-f0755ff50667",
      "resource": {
        "resourceType": "Observation",
        "id": "cf5a9c7c-d059-455d-b6c9-f0755ff50667",
        "meta": {
          "profile": [
            "http://hl7.eu/fhir/laboratory/StructureDefinition/Observation-resultslab-eu-lab"
          ]
        },
        "performer": [
          {
            "display": "The Central European Lab"
          }
        ],
        "category": [
          {
            "coding": [
              {
                "system": "http://terminology.hl7.org/CodeSystem/observation-category",
                "code": "laboratory"
              }
            ]
          }
        ],
        "code": {
          "coding": [
            {
              "code": "4544-3",
              "system": "http://loinc.org",
              "display": "Hematocrit [Volume Fraction] of Blood by Automated count"
            }
          ],
          "text": "Hematocrit [Volume Fraction] of Blood by Automated count"
        },
        "valueQuantity": {
          "system": "http://unitsofmeasure.org",
          "value": 42.7,
          "unit": "%",
          "code": "%"
        },
        "referenceRange": [
          {
            "low": {
              "value": 37,
              "code": "%",
              "system": "http://unitsofmeasure.org"
            }
          },
          {
            "high": {
              "value": 47,
              "code": "%",
              "system": "http://unitsofmeasure.org"
            }
          }
        ],
        "text": {
          "status": "generated",
          "div": "<div xmlns=\"http://www.w3.org/1999/xhtml\"><table class=\"hl7__eu__lab__report\"><tr><th>Test</th><th>22-Mar-2020</th><th>Reference&#xA0;Range</th><th>Unit</th></tr><tr><td>Hematocrit [Volume Fraction] of Blood by Automated count</td><td>42.7</td><td>37 - 47</td><td></td><td>%</td></tr></table></div>"
        },
        "status": "final",
        "subject": {
          "reference": "urn:uuid:4ce6a034-329e-474b-aa1e-8ef0822d3430",
          "display": "Katy Johnston"
        },
        "effectiveDateTime": "2020-03-22T09:58:49Z",
        "specimen": {
          "reference": "urn:uuid:a09d90af-f7a6-4324-98bd-7d51a633b65f"
        }
      }
    },
    {
      "fullUrl": "urn:uuid:f4190420-be0c-4861-a993-3d8fa699fa8f",
      "resource": {
        "resourceType": "Observation",
        "id": "f4190420-be0c-4861-a993-3d8fa699fa8f",
        "meta": {
          "profile": [
            "http://hl7.eu/fhir/laboratory/StructureDefinition/Observation-resultslab-eu-lab"
          ]
        },
        "performer": [
          {
            "display": "The Central European Lab"
          }
        ],
        "category": [
          {
            "coding": [
              {
                "system": "http://terminology.hl7.org/CodeSystem/observation-category",
                "code": "laboratory"
              }
            ]
          }
        ],
        "code": {
          "coding": [
            {
              "code": "787-2",
              "system": "http://loinc.org",
              "display": "MCV [Entitic volume] by Automated count"
            }
          ],
          "text": "MCV [Entitic volume] by Automated count"
        },
        "valueQuantity": {
          "system": "http://unitsofmeasure.org",
          "value": 82.6,
          "unit": "fL",
          "code": "fL"
        },
        "referenceRange": [
          {
            "low": {
              "value": 82,
              "code": "fL",
              "system": "http://unitsofmeasure.org"
            }
          },
          {
            "high": {
              "value": 98,
              "code": "fL",
              "system": "http://unitsofmeasure.org"
            }
          }
        ],
        "text": {
          "status": "generated",
          "div": "<div xmlns=\"http://www.w3.org/1999/xhtml\"><table class=\"hl7__eu__lab__report\"><tr><th>Test</th><th>22-Mar-2020</th><th>Reference&#xA0;Range</th><th>Unit</th></tr><tr><td>MCV [Entitic volume] by Automated count</td><td>82.6</td><td>82 - 98</td><td></td><td>fL</td></tr></table></div>"
        },
        "status": "final",
        "subject": {
          "reference": "urn:uuid:4ce6a034-329e-474b-aa1e-8ef0822d3430",
          "display": "Katy Johnston"
        },
        "effectiveDateTime": "2020-03-22T09:58:49Z",
        "specimen": {
          "reference": "urn:uuid:a09d90af-f7a6-4324-98bd-7d51a633b65f"
        }
      }
    },
    {
      "fullUrl": "urn:uuid:518503a5-05a6-42ac-a8f5-c9dbb840c5b1",
      "resource": {
        "resourceType": "Observation",
        "id": "518503a5-05a6-42ac-a8f5-c9dbb840c5b1",
        "meta": {
          "profile": [
            "http://hl7.eu/fhir/laboratory/StructureDefinition/Observation-resultslab-eu-lab"
          ]
        },
        "performer": [
          {
            "display": "The Central European Lab"
          }
        ],
        "category": [
          {
            "coding": [
              {
                "system": "http://terminology.hl7.org/CodeSystem/observation-category",
                "code": "laboratory"
              }
            ]
          }
        ],
        "code": {
          "coding": [
            {
              "code": "785-6",
              "system": "http://loinc.org",
              "display": "MCH [Entitic mass] by Automated count"
            }
          ],
          "text": "MCH [Entitic mass] by Automated count"
        },
        "valueQuantity": {
          "system": "http://unitsofmeasure.org",
          "value": 30.4,
          "unit": "pg",
          "code": "pg"
        },
        "referenceRange": [
          {
            "low": {
              "value": 27,
              "code": "pg",
              "system": "http://unitsofmeasure.org"
            }
          },
          {
            "high": {
              "value": 33,
              "code": "pg",
              "system": "http://unitsofmeasure.org"
            }
          }
        ],
        "text": {
          "status": "generated",
          "div": "<div xmlns=\"http://www.w3.org/1999/xhtml\"><table class=\"hl7__eu__lab__report\"><tr><th>Test</th><th>22-Mar-2020</th><th>Reference&#xA0;Range</th><th>Unit</th></tr><tr><td>MCH [Entitic mass] by Automated count</td><td>30.4</td><td>27 - 33</td><td></td><td>pg</td></tr></table></div>"
        },
        "status": "final",
        "subject": {
          "reference": "urn:uuid:4ce6a034-329e-474b-aa1e-8ef0822d3430",
          "display": "Katy Johnston"
        },
        "effectiveDateTime": "2020-03-22T09:58:49Z",
        "specimen": {
          "reference": "urn:uuid:a09d90af-f7a6-4324-98bd-7d51a633b65f"
        }
      }
    },
    {
      "fullUrl": "urn:uuid:1caab3cb-7cd9-4adc-ab09-401a5fb12a85",
      "resource": {
        "resourceType": "Observation",
        "id": "1caab3cb-7cd9-4adc-ab09-401a5fb12a85",
        "meta": {
          "profile": [
            "http://hl7.eu/fhir/laboratory/StructureDefinition/Observation-resultslab-eu-lab"
          ]
        },
        "performer": [
          {
            "display": "The Central European Lab"
          }
        ],
        "category": [
          {
            "coding": [
              {
                "system": "http://terminology.hl7.org/CodeSystem/observation-category",
                "code": "laboratory"
              }
            ]
          }
        ],
        "code": {
          "coding": [
            {
              "code": "786-4",
              "system": "http://loinc.org",
              "display": "MCHC [Mass/volume] by Automated count"
            }
          ],
          "text": "MCHC [Mass/volume] by Automated count"
        },
        "valueQuantity": {
          "system": "http://unitsofmeasure.org",
          "value": 34.5,
          "unit": "g/dL",
          "code": "g/dL"
        },
        "referenceRange": [
          {
            "low": {
              "value": 32,
              "code": "g/dL",
              "system": "http://unitsofmeasure.org"
            }
          },
          {
            "high": {
              "value": 37,
              "code": "g/dL",
              "system": "http://unitsofmeasure.org"
            }
          }
        ],
        "text": {
          "status": "generated",
          "div": "<div xmlns=\"http://www.w3.org/1999/xhtml\"><table class=\"hl7__eu__lab__report\"><tr><th>Test</th><th>22-Mar-2020</th><th>Reference&#xA0;Range</th><th>Unit</th></tr><tr><td>MCHC [Mass/volume] by Automated count</td><td>34.5</td><td>32 - 37</td><td></td><td>g/dL</td></tr></table></div>"
        },
        "status": "final",
        "subject": {
          "reference": "urn:uuid:4ce6a034-329e-474b-aa1e-8ef0822d3430",
          "display": "Katy Johnston"
        },
        "effectiveDateTime": "2020-03-22T09:58:49Z",
        "specimen": {
          "reference": "urn:uuid:a09d90af-f7a6-4324-98bd-7d51a633b65f"
        }
      }
    },
    {
      "fullUrl": "urn:uuid:12742a87-8c20-4cfa-a804-6b912cbd156f",
      "resource": {
        "resourceType": "Observation",
        "id": "12742a87-8c20-4cfa-a804-6b912cbd156f",
        "meta": {
          "profile": [
            "http://hl7.eu/fhir/laboratory/StructureDefinition/Observation-resultslab-eu-lab"
          ]
        },
        "performer": [
          {
            "display": "The Central European Lab"
          }
        ],
        "category": [
          {
            "coding": [
              {
                "system": "http://terminology.hl7.org/CodeSystem/observation-category",
                "code": "laboratory"
              }
            ]
          }
        ],
        "code": {
          "coding": [
            {
              "code": "21000-5",
              "system": "http://loinc.org",
              "display": "Erythrocyte distribution width [Entitic volume] by Automated count"
            }
          ],
          "text": "Erythrocyte distribution width [Entitic volume] by Automated count"
        },
        "valueQuantity": {
          "system": "http://unitsofmeasure.org",
          "value": 45.6,
          "unit": "fL",
          "code": "fL"
        },
        "referenceRange": [
          {
            "low": {
              "value": 36,
              "code": "fL",
              "system": "http://unitsofmeasure.org"
            }
          },
          {
            "high": {
              "value": 56,
              "code": "fL",
              "system": "http://unitsofmeasure.org"
            }
          }
        ],
        "text": {
          "status": "generated",
          "div": "<div xmlns=\"http://www.w3.org/1999/xhtml\"><table class=\"hl7__eu__lab__report\"><tr><th>Test</th><th>22-Mar-2020</th><th>Reference&#xA0;Range</th><th>Unit</th></tr><tr><td>Erythrocyte distribution width [Entitic volume] by Automated count</td><td>45.6</td><td>36 - 56</td><td></td><td>fL</td></tr></table></div>"
        },
        "status": "final",
        "subject": {
          "reference": "urn:uuid:4ce6a034-329e-474b-aa1e-8ef0822d3430",
          "display": "Katy Johnston"
        },
        "effectiveDateTime": "2020-03-22T09:58:49Z",
        "specimen": {
          "reference": "urn:uuid:a09d90af-f7a6-4324-98bd-7d51a633b65f"
        }
      }
    },
    {
      "fullUrl": "urn:uuid:ce39a33a-96b5-45f6-aea6-bdacefa7eeeb",
      "resource": {
        "resourceType": "Observation",
        "id": "ce39a33a-96b5-45f6-aea6-bdacefa7eeeb",
        "meta": {
          "profile": [
            "http://hl7.eu/fhir/laboratory/StructureDefinition/Observation-resultslab-eu-lab"
          ]
        },
        "performer": [
          {
            "display": "The Central European Lab"
          }
        ],
        "category": [
          {
            "coding": [
              {
                "system": "http://terminology.hl7.org/CodeSystem/observation-category",
                "code": "laboratory"
              }
            ]
          }
        ],
        "code": {
          "coding": [
            {
              "code": "777-3",
              "system": "http://loinc.org",
              "display": "Platelets [#/volume] in Blood by Automated count"
            }
          ],
          "text": "Platelets [#/volume] in Blood by Automated count"
        },
        "valueQuantity": {
          "system": "http://unitsofmeasure.org",
          "value": 283.5,
          "unit": "10*3/uL",
          "code": "10*3/uL"
        },
        "referenceRange": [
          {
            "low": {
              "value": 150,
              "code": "10*3/uL",
              "system": "http://unitsofmeasure.org"
            }
          },
          {
            "high": {
              "value": 450,
              "code": "10*3/uL",
              "system": "http://unitsofmeasure.org"
            }
          }
        ],
        "text": {
          "status": "generated",
          "div": "<div xmlns=\"http://www.w3.org/1999/xhtml\"><table class=\"hl7__eu__lab__report\"><tr><th>Test</th><th>22-Mar-2020</th><th>Reference&#xA0;Range</th><th>Unit</th></tr><tr><td>Platelets [#/volume] in Blood by Automated count</td><td>283.5</td><td>150 - 450</td><td></td><td>10*3/uL</td></tr></table></div>"
        },
        "status": "final",
        "subject": {
          "reference": "urn:uuid:4ce6a034-329e-474b-aa1e-8ef0822d3430",
          "display": "Katy Johnston"
        },
        "effectiveDateTime": "2020-03-22T09:58:49Z",
        "specimen": {
          "reference": "urn:uuid:a09d90af-f7a6-4324-98bd-7d51a633b65f"
        }
      }
    },
    {
      "fullUrl": "urn:uuid:8fe6d6dc-aaa4-4866-a9d2-e93b7823db66",
      "resource": {
        "resourceType": "Observation",
        "id": "8fe6d6dc-aaa4-4866-a9d2-e93b7823db66",
        "meta": {
          "profile": [
            "http://hl7.eu/fhir/laboratory/StructureDefinition/Observation-resultslab-eu-lab"
          ]
        },
        "performer": [
          {
            "display": "The Central European Lab"
          }
        ],
        "category": [
          {
            "coding": [
              {
                "system": "http://terminology.hl7.org/CodeSystem/observation-category",
                "code": "laboratory"
              }
            ]
          }
        ],
        "code": {
          "coding": [
            {
              "code": "32207-3",
              "system": "http://loinc.org",
              "display": "Platelet distribution width [Entitic volume] in Blood by Automated count"
            }
          ],
          "text": "Platelet distribution width [Entitic volume] in Blood by Automated count"
        },
        "valueQuantity": {
          "system": "http://unitsofmeasure.org",
          "value": 277,
          "unit": "fL",
          "code": "fL"
        },
        "referenceRange": [
          {
            "low": {
              "value": 11.6,
              "code": "fL",
              "system": "http://unitsofmeasure.org"
            }
          },
          {
            "high": {
              "value": 17.4,
              "code": "fL",
              "system": "http://unitsofmeasure.org"
            }
          }
        ],
        "interpretation": [
          {
            "coding": [
              {
                "code": "H",
                "system": "http://terminology.hl7.org/CodeSystem/v3-ObservationInterpretation",
                "display": "High"
              }
            ]
          }
        ],
        "text": {
          "status": "generated",
          "div": "<div xmlns=\"http://www.w3.org/1999/xhtml\"><table class=\"hl7__eu__lab__report\"><tr><th>Test</th><th>22-Mar-2020</th><th>Reference&#xA0;Range</th><th>Unit</th></tr><tr><td>Platelet distribution width [Entitic volume] in Blood by Automated count</td><td>277.0</td><td>11.6 - 17.4</td><td>H</td><td>fL</td></tr></table></div>"
        },
        "status": "final",
        "subject": {
          "reference": "urn:uuid:4ce6a034-329e-474b-aa1e-8ef0822d3430",
          "display": "Katy Johnston"
        },
        "effectiveDateTime": "2020-03-22T09:58:49Z",
        "specimen": {
          "reference": "urn:uuid:a09d90af-f7a6-4324-98bd-7d51a633b65f"
        }
      }
    },
    {
      "fullUrl": "urn:uuid:e0157cbd-8bac-4fd9-ba2a-d89faf25ed37",
      "resource": {
        "resourceType": "Observation",
        "id": "e0157cbd-8bac-4fd9-ba2a-d89faf25ed37",
        "meta": {
          "profile": [
            "http://hl7.eu/fhir/laboratory/StructureDefinition/Observation-resultslab-eu-lab"
          ]
        },
        "performer": [
          {
            "display": "The Central European Lab"
          }
        ],
        "category": [
          {
            "coding": [
              {
                "system": "http://terminology.hl7.org/CodeSystem/observation-category",
                "code": "laboratory"
              }
            ]
          }
        ],
        "code": {
          "coding": [
            {
              "code": "32623-1",
              "system": "http://loinc.org",
              "display": "Platelet mean volume [Entitic volume] in Blood by Automated count"
            }
          ],
          "text": "Platelet mean volume [Entitic volume] in Blood by Automated count"
        },
        "valueQuantity": {
          "system": "http://unitsofmeasure.org",
          "value": 10,
          "unit": "fL",
          "code": "fL"
        },
        "referenceRange": [
          {
            "low": {
              "value": 9.4,
              "code": "fL",
              "system": "http://unitsofmeasure.org"
            }
          },
          {
            "high": {
              "value": 14,
              "code": "fL",
              "system": "http://unitsofmeasure.org"
            }
          }
        ],
        "text": {
          "status": "generated",
          "div": "<div xmlns=\"http://www.w3.org/1999/xhtml\"><table class=\"hl7__eu__lab__report\"><tr><th>Test</th><th>22-Mar-2020</th><th>Reference&#xA0;Range</th><th>Unit</th></tr><tr><td>Platelet mean volume [Entitic volume] in Blood by Automated count</td><td>10.0</td><td>9.4 - 14</td><td></td><td>fL</td></tr></table></div>"
        },
        "status": "final",
        "subject": {
          "reference": "urn:uuid:4ce6a034-329e-474b-aa1e-8ef0822d3430",
          "display": "Katy Johnston"
        },
        "effectiveDateTime": "2020-03-22T09:58:49Z",
        "specimen": {
          "reference": "urn:uuid:a09d90af-f7a6-4324-98bd-7d51a633b65f"
        }
      }
    },
    {
      "fullUrl": "urn:uuid:18c3dd7c-bf84-4f00-ba7d-4a31ed27a7d7",
      "resource": {
        "resourceType": "Device",
        "id": "18c3dd7c-bf84-4f00-ba7d-4a31ed27a7d7",
        "deviceName": [
          {
            "name": "SYNDERAI Synthetic Generator",
            "type": "manufacturer-name"
          }
        ],
        "version": [
          {
            "value": "5.0"
          }
        ],
        "text": {
          "status": "generated",
          "div": "<div xmlns=\"http://www.w3.org/1999/xhtml\">SYNDERAI Synthetic Generator v5.0</div>"
        },
        "status": "active\"",
        "distinctIdentifier": "synderai-generator-50",
        "manufacturer": "SYNDERAI Project"
      }
    },
    {
      "fullUrl": "urn:uuid:f26252fe-9a29-4dd6-9c11-6cf585ffed66",
      "resource": {
        "resourceType": "Provenance",
        "id": "f26252fe-9a29-4dd6-9c11-6cf585ffed66",
        "target": [
          {
            "reference": "Patient/4ce6a034-329e-474b-aa1e-8ef0822d3430"
          },
          {
            "reference": "Bundle/11be129b-45bb-4ea6-abe6-a780cad9f6ea"
          },
          {
            "reference": "Composition/dc8deba1-8a8d-496e-a643-28a8ecdc7e5c"
          },
          {
            "reference": "PractitionerRole/e8e3524c-3dd2-40df-8100-762494aa1ae0"
          },
          {
            "reference": "Practitioner/e3f831d7-7435-43b1-8dee-9b4e8031e1d6"
          },
          {
            "reference": "PractitionerRole/213ad0d9-1dcb-45ab-a0e6-2c478d1db12f"
          },
          {
            "reference": "Organization/9fd665e8-acec-4ac0-9904-83c9387a1949"
          }
        ],
        "activity": {
          "text": "Synthetic Example Data Generation"
        },
        "policy": [
          "https://synderai.net/synderai-synthetic-data-policy"
        ],
        "agent": [
          {
            "type": {
              "text": "author"
            },
            "who": {
              "reference": "Device/18c3dd7c-bf84-4f00-ba7d-4a31ed27a7d7"
            }
          }
        ],
        "reason": [
          {
            "text": "Interoperability Testing and Training (non-clinical use)"
          }
        ],
        "text": {
          "status": "generated",
          "div": "<div xmlns=\"http://www.w3.org/1999/xhtml\">Provenance for SYNDERAI Synthetic Example Data Resource</div>"
        },
        "recorded": "2020-03-22T10:58:49Z"
      }
    },
    {
      "fullUrl": "urn:uuid:e8e3524c-3dd2-40df-8100-762494aa1ae0",
      "resource": {
        "resourceType": "PractitionerRole",
        "id": "e8e3524c-3dd2-40df-8100-762494aa1ae0",
        "meta": {
          "profile": [
            "http://hl7.eu/fhir/base/StructureDefinition/practitionerRole-eu"
          ]
        },
        "text": {
          "status": "generated",
          "div": "<div xmlns=\"http://www.w3.org/1999/xhtml\">Laboratory Role Id: e8e3524c-3dd2-40df-8100-762494aa1ae0</div>"
        },
        "practitioner": {
          "reference": "urn:uuid:e3f831d7-7435-43b1-8dee-9b4e8031e1d6"
        }
      }
    },
    {
      "fullUrl": "urn:uuid:e3f831d7-7435-43b1-8dee-9b4e8031e1d6",
      "resource": {
        "resourceType": "Practitioner",
        "id": "e3f831d7-7435-43b1-8dee-9b4e8031e1d6",
        "meta": {
          "profile": [
            "http://hl7.eu/fhir/base/StructureDefinition/practitioner-eu"
          ]
        },
        "identifier": [
          {
            "assigner": {
              "display": "HL7 Europe"
            },
            "system": "urn:oid:2.16.840.1.113883.2.51.999",
            "value": "34324b25-e87e-4834-aa51-1f9448eab50a"
          }
        ],
        "name": [
          {
            "prefix": [
              "dr"
            ],
            "given": [
              "Ex"
            ],
            "family": "Ample"
          }
        ],
        "address": [
          {
            "line": [
              "Laboratoire Central Europenne",
              "Boulevard du Jardin Botanique 32"
            ],
            "postalCode": "1000",
            "city": "Brussels",
            "country": "Belgium"
          }
        ],
        "text": {
          "status": "generated",
          "div": "<div xmlns=\"http://www.w3.org/1999/xhtml\">Laboratory: Laboratoire Central Europenne, 1000 Brussels, Belgium</div>"
        }
      }
    }
  ],
  "type": "document",
  "timestamp": "2020-03-22T10:58:49Z"
}
