{
  "resourceType": "Bundle",
  "id": "81a878a2-ad9a-4d6c-a410-a0d389ea6973",
  "meta": {
    "profile": [
      "http://hl7.eu/fhir/laboratory/StructureDefinition/Bundle-eu-lab"
    ]
  },
  "identifier": {
    "assigner": {
      "display": "HL7 Europe"
    },
    "system": "urn:oid:2.16.840.1.113883.2.51.999",
    "value": "2a8721c8-8c28-4ec1-b442-fba2e8a901d7"
  },
  "entry": [
    {
      "fullUrl": "urn:uuid:bc667870-074e-47e4-8011-46e79cdc815f",
      "resource": {
        "resourceType": "Composition",
        "id": "bc667870-074e-47e4-8011-46e79cdc815f",
        "meta": {
          "profile": [
            "http://hl7.eu/fhir/laboratory/StructureDefinition/Composition-eu-lab"
          ]
        },
        "identifier": {
          "assigner": {
            "display": "HL7 Europe"
          },
          "system": "urn:oid:2.16.840.1.113883.2.51.999",
          "value": "23358e23-8c3c-40ad-87e3-395c3d71fd38"
        },
        "author": [
          {
            "reference": "urn:uuid:06a272a7-3f30-4850-b608-a2191f7738f3"
          }
        ],
        "category": [
          {
            "coding": [
              {
                "code": "26436-6",
                "system": "http://loinc.org",
                "display": "Laboratory studies (set)"
              }
            ]
          }
        ],
        "type": {
          "coding": [
            {
              "code": "11502-2",
              "system": "http://loinc.org",
              "display": "Laboratory report"
            }
          ],
          "text": "Laboratory Report"
        },
        "section": [
          {
            "code": {
              "coding": [
                {
                  "code": "26436-6",
                  "system": "http://loinc.org",
                  "display": "Laboratory studies (set)"
                }
              ],
              "text": "Laboratory studies"
            },
            "section": [
              {
                "code": {
                  "coding": [
                    {
                      "code": "$18719-5",
                      "system": "http://loinc.org",
                      "display": "Chemistry studies (set)"
                    }
                  ],
                  "text": "Chemistry"
                },
                "entry": [
                  {
                    "reference": "urn:uuid:f1c5464b-2b40-45c5-a88b-a354f03fd5bb"
                  },
                  {
                    "reference": "urn:uuid:218c85ad-9b9a-4bf8-b6a9-f9d4ec3e711f"
                  },
                  {
                    "reference": "urn:uuid:0680b5d8-0351-4e65-88ff-a70c9c417fd3"
                  },
                  {
                    "reference": "urn:uuid:3c5712a6-270a-47de-be59-24d774c7ff6f"
                  },
                  {
                    "reference": "urn:uuid:a3365ae2-2317-4237-af18-654348490085"
                  },
                  {
                    "reference": "urn:uuid:20498397-718e-4927-85a3-9c59a6b7e78b"
                  },
                  {
                    "reference": "urn:uuid:95108cbe-a6b8-4904-a7c5-e3c21211a5a7"
                  },
                  {
                    "reference": "urn:uuid:7a0dbcca-4333-43df-a67c-bc400eb07fdc"
                  },
                  {
                    "reference": "urn:uuid:0f1a264a-771d-4152-8b5b-1a44dffc009d"
                  },
                  {
                    "reference": "urn:uuid:cc184132-f8b9-4cf5-b8df-37c4fbc06287"
                  },
                  {
                    "reference": "urn:uuid:5f7ef9f9-869f-4a91-9274-f637f90f59ad"
                  },
                  {
                    "reference": "urn:uuid:d5e595de-05d9-4f7b-8885-5b78e3ea38ab"
                  },
                  {
                    "reference": "urn:uuid:5fc3da89-a8d1-4ea4-87b7-562be79c6150"
                  },
                  {
                    "reference": "urn:uuid:88c90754-fc0c-4d57-8000-d88f6bd2bcd1"
                  }
                ],
                "text": {
                  "status": "generated",
                  "div": "<div xmlns=\"http://www.w3.org/1999/xhtml\"><h3>Chemistry</h3><table class=\"hl7__eu__lab__report\"><thead><tr><th>Test</th><th>11-AUG-2023</th><th>Reference&#xA0;Range</th><th>Unit</th></tr></thead><tbody><tr><td>Hemoglobin A1c/Hemoglobin.total in Blood</td><td><strong>7.0 H</strong></td><td>4 - 6</td><td>%</td></tr><tr><td>Glucose [Mass/volume] in Blood</td><td>120.4</td><td>70 - 140</td><td>mg/dL</td></tr><tr><td>Urea nitrogen [Mass/volume] in Blood</td><td>16.0</td><td>7 - 25</td><td>mg/dL</td></tr><tr><td>Creatinine [Mass/volume] in Blood</td><td>0.9</td><td>0.6 - 1.1</td><td>mg/dL</td></tr><tr><td>Calcium [Mass/volume] in Blood</td><td>10.0</td><td>8.5 - 10.4</td><td>mg/dL</td></tr><tr><td>Sodium [Moles/volume] in Blood</td><td>143.7</td><td>135 - 145</td><td>mmol/L</td></tr><tr><td>Potassium [Moles/volume] in Blood</td><td>4.1</td><td>3.5 - 5.1</td><td>mmol/L</td></tr><tr><td>Chloride [Moles/volume] in Blood</td><td>101.3</td><td>98 - 107</td><td>mmol/L</td></tr><tr><td>Carbon dioxide, total [Moles/volume] in Blood</td><td>26.9</td><td>22 - 29</td><td>mmol/L</td></tr><tr><td>Cholesterol [Mass/volume] in Serum or Plasma</td><td><strong>230.5 H</strong></td><td>125 - 200</td><td>mg/dL</td></tr><tr><td>Triglyceride [Mass/volume] in Serum or Plasma</td><td><strong>179.2 H</strong></td><td>35 - 150</td><td>mg/dL</td></tr><tr><td>Cholesterol in LDL [Mass/volume] in Serum or Plasma by Direct assay</td><td><strong>149.9 H</strong></td><td>0 - 130</td><td>mg/dL</td></tr><tr><td>Cholesterol in HDL [Mass/volume] in Serum or Plasma</td><td>44.8</td><td>40 - 100</td><td>mg/dL</td></tr><tr><td>Microalbumin/Creatinine [Mass Ratio] in Urine</td><td>2.8</td><td>0 - 30</td><td>mg/g</td></tr></tbody></table></div>"
                },
                "title": "Chemistry"
              }
            ],
            "title": "Laboratory Report"
          },
          {
            "text": {
              "status": "generated",
              "div": "<div xmlns=\"http://www.w3.org/1999/xhtml\"><h3>Annotation</h3><table class=\"hl7__eu__lab__report\"><tr><th>Conclusion and Recommendations based on this report and previous findings known to us</th></tr><tr><td>The patient shows elevated HbA1c, indicating suboptimal long-term glycemic control, and increased total cholesterol, LDL cholesterol, and triglycerides, suggesting a heightened cardiovascular risk. Renal function, electrolytes, and microalbumin/creatinine ratio are within normal limits. Recommend review of diabetes and lipid management, as well as cardiovascular risk reduction strategies.</td></tr></table></div>"
            },
            "code": {
              "coding": [
                {
                  "system": "http://loinc.org",
                  "code": "48767-8",
                  "display": "Annotation comment"
                }
              ]
            },
            "title": "Annotation comment"
          }
        ],
        "status": "final",
        "subject": {
          "reference": "urn:uuid:d5ffc759-c9ed-4742-8be4-6a7c64de4748",
          "display": "Martine Couturier"
        },
        "date": "2023-08-11T22:13:15Z",
        "title": "Laboratory Report",
        "confidentiality": "N"
      }
    },
    {
      "fullUrl": "urn:uuid:e496f9a4-6911-457f-8c3f-83b7bd5d66ab",
      "resource": {
        "resourceType": "DiagnosticReport",
        "id": "e496f9a4-6911-457f-8c3f-83b7bd5d66ab",
        "meta": {
          "profile": [
            "http://hl7.eu/fhir/laboratory/StructureDefinition/DiagnosticReport-eu-lab"
          ]
        },
        "identifier": [
          {
            "assigner": {
              "display": "HL7 Europe"
            },
            "system": "urn:oid:2.16.840.1.113883.2.51.999",
            "value": "702c43f7-1cbb-4bf1-aaa1-c02b715ae196"
          }
        ],
        "extension": [
          {
            "url": "http://hl7.org/fhir/5.0/StructureDefinition/extension-DiagnosticReport.composition",
            "valueReference": {
              "reference": "urn:uuid:23358e23-8c3c-40ad-87e3-395c3d71fd38"
            }
          }
        ],
        "category": [
          {
            "coding": [
              {
                "code": "26436-6",
                "system": "http://loinc.org",
                "display": "Laboratory studies (set)"
              }
            ]
          }
        ],
        "specimen": [
          {
            "reference": "urn:uuid:e9e4e876-7b24-4df8-9f23-a57977ad6f2e"
          },
          {
            "reference": "urn:uuid:07d20d7e-d5d1-4709-b926-6a4942be23c8"
          },
          {
            "reference": "urn:uuid:9b707c4f-82b6-41a7-894a-efa7765b4dae"
          }
        ],
        "result": [
          {
            "reference": "urn:uuid:f1c5464b-2b40-45c5-a88b-a354f03fd5bb"
          },
          {
            "reference": "urn:uuid:218c85ad-9b9a-4bf8-b6a9-f9d4ec3e711f"
          },
          {
            "reference": "urn:uuid:0680b5d8-0351-4e65-88ff-a70c9c417fd3"
          },
          {
            "reference": "urn:uuid:3c5712a6-270a-47de-be59-24d774c7ff6f"
          },
          {
            "reference": "urn:uuid:a3365ae2-2317-4237-af18-654348490085"
          },
          {
            "reference": "urn:uuid:20498397-718e-4927-85a3-9c59a6b7e78b"
          },
          {
            "reference": "urn:uuid:95108cbe-a6b8-4904-a7c5-e3c21211a5a7"
          },
          {
            "reference": "urn:uuid:7a0dbcca-4333-43df-a67c-bc400eb07fdc"
          },
          {
            "reference": "urn:uuid:0f1a264a-771d-4152-8b5b-1a44dffc009d"
          },
          {
            "reference": "urn:uuid:cc184132-f8b9-4cf5-b8df-37c4fbc06287"
          },
          {
            "reference": "urn:uuid:5f7ef9f9-869f-4a91-9274-f637f90f59ad"
          },
          {
            "reference": "urn:uuid:d5e595de-05d9-4f7b-8885-5b78e3ea38ab"
          },
          {
            "reference": "urn:uuid:5fc3da89-a8d1-4ea4-87b7-562be79c6150"
          },
          {
            "reference": "urn:uuid:88c90754-fc0c-4d57-8000-d88f6bd2bcd1"
          }
        ],
        "status": "registered",
        "code": {
          "coding": [
            {
              "code": "11502-2",
              "system": "http://loinc.org",
              "display": "Laboratory report"
            }
          ]
        },
        "subject": {
          "reference": "urn:uuid:d5ffc759-c9ed-4742-8be4-6a7c64de4748",
          "display": "Martine Couturier"
        }
      }
    },
    {
      "fullUrl": "urn:uuid:d5ffc759-c9ed-4742-8be4-6a7c64de4748",
      "resource": {
        "resourceType": "Patient",
        "id": "d5ffc759-c9ed-4742-8be4-6a7c64de4748",
        "meta": {
          "security": [
            {
              "system": "http://terminology.hl7.org/CodeSystem/v3-ActReason",
              "code": "HTEST"
            },
            {
              "system": "http://terminology.hl7.org/CodeSystem/v3-ActReason",
              "code": "TRAIN"
            }
          ],
          "tag": [
            {
              "system": "https://synderai.net/fhir/CodeSystem/tags",
              "code": "synthetic",
              "display": "SYNDERAI Synthetic data"
            }
          ],
          "profile": [
            "http://hl7.eu/fhir/base/StructureDefinition/patient-eu-core"
          ]
        },
        "identifier": [
          {
            "type": {
              "coding": [
                {
                  "code": "PT",
                  "system": "http://terminology.hl7.org/CodeSystem/v2-0203"
                }
              ]
            },
            "system": "http://ec.europa.eu/identifier/eci",
            "value": "6614-983327-0"
          },
          {
            "type": {
              "coding": [
                {
                  "code": "MR",
                  "system": "http://terminology.hl7.org/CodeSystem/v2-0203"
                }
              ]
            },
            "system": "http://local.setting.eu/identifier",
            "value": "decdc04d-a1c8-929f-4aad-63136dd70efd"
          }
        ],
        "name": [
          {
            "family": "Couturier"
          },
          {
            "given": [
              "Martine"
            ]
          },
          {
            "text": "Martine Couturier"
          }
        ],
        "address": [
          {
            "line": [
              "458, rue de Bègue"
            ],
            "use": "home",
            "type": "physical",
            "postalCode": "03110",
            "city": "Boutin",
            "country": "France"
          }
        ],
        "telecom": [
          {
            "system": "phone",
            "value": "+33 4 11 66 35 81"
          }
        ],
        "extension": [
          {
            "url": "http://hl7.org/fhir/StructureDefinition/patient-nationality",
            "valueCodeableConcept": {
              "coding": [
                {
                  "code": "FR",
                  "system": "http://hl7.org/fhir/ValueSet/country"
                }
              ]
            }
          }
        ],
        "text": {
          "status": "generated",
          "div": "<div xmlns=\"http://www.w3.org/1999/xhtml\"><table class=\"hl7__ips\"><tr><td>Martine Couturier</td><td>female</td><td>13-Nov-1961</td></tr></table></div>"
        },
        "gender": "female",
        "birthDate": "1961-11-13"
      }
    },
    {
      "fullUrl": "urn:uuid:4ac669e7-7810-4ae6-8911-a06a91883a09",
      "resource": {
        "resourceType": "ServiceRequest",
        "id": "4ac669e7-7810-4ae6-8911-a06a91883a09",
        "meta": {
          "profile": [
            "http://hl7.eu/fhir/laboratory/StructureDefinition/ServiceRequest-eu-lab"
          ]
        },
        "identifier": [
          {
            "system": "http://example.org",
            "value": "0adb7930-bef4-476e-a447-aa51b19afce6"
          }
        ],
        "specimen": [
          {
            "reference": "urn:uuid:e9e4e876-7b24-4df8-9f23-a57977ad6f2e"
          },
          {
            "reference": "urn:uuid:07d20d7e-d5d1-4709-b926-6a4942be23c8"
          },
          {
            "reference": "urn:uuid:9b707c4f-82b6-41a7-894a-efa7765b4dae"
          }
        ],
        "reasonCode": [
          {
            "coding": [
              {
                "code": "368581000119106",
                "system": "http://snomed.info/sct",
                "display": "Neuropathy due to type 2 diabetes mellitus"
              }
            ]
          },
          {
            "coding": [
              {
                "code": "302870006",
                "system": "http://snomed.info/sct",
                "display": "Hypertriglyceridemia"
              }
            ]
          },
          {
            "coding": [
              {
                "code": "44054006",
                "system": "http://snomed.info/sct",
                "display": "Type 2 diabetes mellitus"
              }
            ]
          },
          {
            "coding": [
              {
                "code": "237602007",
                "system": "http://snomed.info/sct",
                "display": "Metabolic syndrome X"
              }
            ]
          },
          {
            "coding": [
              {
                "code": "271737000",
                "system": "http://snomed.info/sct",
                "display": "Anemia"
              }
            ]
          },
          {
            "coding": [
              {
                "code": "15777000",
                "system": "http://snomed.info/sct",
                "display": "Prediabetes"
              }
            ]
          }
        ],
        "status": "active",
        "intent": "order",
        "code": {
          "coding": [
            {
              "code": "108252007",
              "system": "http://snomed.info/sct",
              "display": "Laboratory procedure"
            }
          ]
        },
        "subject": {
          "reference": "urn:uuid:d5ffc759-c9ed-4742-8be4-6a7c64de4748",
          "display": "Martine Couturier"
        },
        "requester": {
          "reference": "urn:uuid:a6531f73-c719-47c1-bdd6-8d8a2d36226d"
        }
      }
    },
    {
      "fullUrl": "urn:uuid:a6531f73-c719-47c1-bdd6-8d8a2d36226d",
      "resource": {
        "resourceType": "PractitionerRole",
        "id": "a6531f73-c719-47c1-bdd6-8d8a2d36226d",
        "meta": {
          "profile": [
            "http://hl7.eu/fhir/base/StructureDefinition/practitionerRole-eu"
          ]
        },
        "text": {
          "status": "generated",
          "div": "<div xmlns=\"http://www.w3.org/1999/xhtml\">Provider Role Id: a6531f73-c719-47c1-bdd6-8d8a2d36226d</div>"
        },
        "organization": {
          "reference": "urn:uuid:c5c2b523-0bee-4ab0-a87b-fd65323f5758"
        }
      }
    },
    {
      "fullUrl": "urn:uuid:c5c2b523-0bee-4ab0-a87b-fd65323f5758",
      "resource": {
        "resourceType": "Organization",
        "id": "c5c2b523-0bee-4ab0-a87b-fd65323f5758",
        "meta": {
          "profile": [
            "http://hl7.eu/fhir/base/StructureDefinition/organization-eu"
          ]
        },
        "identifier": [
          {
            "assigner": {
              "display": "HL7 Europe"
            },
            "system": "urn:oid:2.16.840.1.113883.2.51.999",
            "value": "79d4bb2c-9b0a-4588-8af7-00749fc74b08"
          }
        ],
        "address": [
          {
            "line": [
              "Boulevard Denière 1"
            ],
            "city": "Vichy",
            "postalCode": "03200",
            "country": "France"
          }
        ],
        "text": {
          "status": "generated",
          "div": "<div xmlns=\"http://www.w3.org/1999/xhtml\">Provider Organization: Centre hospitalier Jacques Lacarin</div>"
        },
        "name": "Centre hospitalier Jacques Lacarin"
      }
    },
    {
      "fullUrl": "urn:uuid:e9e4e876-7b24-4df8-9f23-a57977ad6f2e",
      "resource": {
        "resourceType": "Specimen",
        "id": "e9e4e876-7b24-4df8-9f23-a57977ad6f2e",
        "meta": {
          "profile": [
            "http://hl7.eu/fhir/laboratory/StructureDefinition/Specimen-eu-lab"
          ]
        },
        "collection": {
          "collectedDateTime": "2023-08-11"
        },
        "text": {
          "status": "generated",
          "div": "<div xmlns=\"http://www.w3.org/1999/xhtml\"><table class=\"hl7__eu__lab__report\"><tr><th>Specimen</th><th>Collection Date</th></tr><tr><td>Whole blood specimen (specimen)</td><td><span class=\"nb\">11-Aug-2023</span></td></tr></table></div>"
        },
        "type": {
          "coding": [
            {
              "code": "258580003",
              "system": "http://snomed.info/sct",
              "display": "Whole blood specimen (specimen)"
            }
          ]
        }
      }
    },
    {
      "fullUrl": "urn:uuid:07d20d7e-d5d1-4709-b926-6a4942be23c8",
      "resource": {
        "resourceType": "Specimen",
        "id": "07d20d7e-d5d1-4709-b926-6a4942be23c8",
        "meta": {
          "profile": [
            "http://hl7.eu/fhir/laboratory/StructureDefinition/Specimen-eu-lab"
          ]
        },
        "collection": {
          "collectedDateTime": "2023-08-11"
        },
        "text": {
          "status": "generated",
          "div": "<div xmlns=\"http://www.w3.org/1999/xhtml\"><table class=\"hl7__eu__lab__report\"><tr><th>Specimen</th><th>Collection Date</th></tr><tr><td>Acellular blood (serum or plasma) specimen</td><td><span class=\"nb\">11-Aug-2023</span></td></tr></table></div>"
        },
        "type": {
          "coding": [
            {
              "code": "122592007",
              "system": "http://snomed.info/sct",
              "display": "Acellular blood (serum or plasma) specimen"
            }
          ]
        }
      }
    },
    {
      "fullUrl": "urn:uuid:9b707c4f-82b6-41a7-894a-efa7765b4dae",
      "resource": {
        "resourceType": "Specimen",
        "id": "9b707c4f-82b6-41a7-894a-efa7765b4dae",
        "meta": {
          "profile": [
            "http://hl7.eu/fhir/laboratory/StructureDefinition/Specimen-eu-lab"
          ]
        },
        "collection": {
          "collectedDateTime": "2023-08-11"
        },
        "text": {
          "status": "generated",
          "div": "<div xmlns=\"http://www.w3.org/1999/xhtml\"><table class=\"hl7__eu__lab__report\"><tr><th>Specimen</th><th>Collection Date</th></tr><tr><td>Urine specimen</td><td><span class=\"nb\">11-Aug-2023</span></td></tr></table></div>"
        },
        "type": {
          "coding": [
            {
              "code": "122575003",
              "system": "http://snomed.info/sct",
              "display": "Urine specimen"
            }
          ]
        }
      }
    },
    {
      "fullUrl": "urn:uuid:f1c5464b-2b40-45c5-a88b-a354f03fd5bb",
      "resource": {
        "resourceType": "Observation",
        "id": "f1c5464b-2b40-45c5-a88b-a354f03fd5bb",
        "meta": {
          "profile": [
            "http://hl7.eu/fhir/laboratory/StructureDefinition/Observation-resultslab-eu-lab"
          ]
        },
        "performer": [
          {
            "display": "The Central European Lab"
          }
        ],
        "category": [
          {
            "coding": [
              {
                "system": "http://terminology.hl7.org/CodeSystem/observation-category",
                "code": "laboratory"
              }
            ]
          }
        ],
        "code": {
          "coding": [
            {
              "code": "4548-4",
              "system": "http://loinc.org",
              "display": "Hemoglobin A1c/Hemoglobin.total in Blood"
            }
          ],
          "text": "Hemoglobin A1c/Hemoglobin.total in Blood"
        },
        "valueQuantity": {
          "system": "http://unitsofmeasure.org",
          "value": 7,
          "unit": "%",
          "code": "%"
        },
        "referenceRange": [
          {
            "low": {
              "value": 4,
              "code": "%",
              "system": "http://unitsofmeasure.org"
            }
          },
          {
            "high": {
              "value": 6,
              "code": "%",
              "system": "http://unitsofmeasure.org"
            }
          }
        ],
        "interpretation": [
          {
            "coding": [
              {
                "code": "H",
                "system": "http://terminology.hl7.org/CodeSystem/v3-ObservationInterpretation",
                "display": "High"
              }
            ]
          }
        ],
        "text": {
          "status": "generated",
          "div": "<div xmlns=\"http://www.w3.org/1999/xhtml\"><table class=\"hl7__eu__lab__report\"><tr><th>Test</th><th>11-Aug-2023</th><th>Reference&#xA0;Range</th><th>Unit</th></tr><tr><td>Hemoglobin A1c/Hemoglobin.total in Blood</td><td>7.0</td><td>4 - 6</td><td>H</td><td>%</td></tr></table></div>"
        },
        "status": "final",
        "subject": {
          "reference": "urn:uuid:d5ffc759-c9ed-4742-8be4-6a7c64de4748",
          "display": "Martine Couturier"
        },
        "effectiveDateTime": "2023-08-11T20:13:15Z",
        "specimen": {
          "reference": "urn:uuid:e9e4e876-7b24-4df8-9f23-a57977ad6f2e"
        }
      }
    },
    {
      "fullUrl": "urn:uuid:218c85ad-9b9a-4bf8-b6a9-f9d4ec3e711f",
      "resource": {
        "resourceType": "Observation",
        "id": "218c85ad-9b9a-4bf8-b6a9-f9d4ec3e711f",
        "meta": {
          "profile": [
            "http://hl7.eu/fhir/laboratory/StructureDefinition/Observation-resultslab-eu-lab"
          ]
        },
        "performer": [
          {
            "display": "The Central European Lab"
          }
        ],
        "category": [
          {
            "coding": [
              {
                "system": "http://terminology.hl7.org/CodeSystem/observation-category",
                "code": "laboratory"
              }
            ]
          }
        ],
        "code": {
          "coding": [
            {
              "code": "2339-0",
              "system": "http://loinc.org",
              "display": "Glucose [Mass/volume] in Blood"
            }
          ],
          "text": "Glucose [Mass/volume] in Blood"
        },
        "valueQuantity": {
          "system": "http://unitsofmeasure.org",
          "value": 120.4,
          "unit": "mg/dL",
          "code": "mg/dL"
        },
        "referenceRange": [
          {
            "low": {
              "value": 70,
              "code": "mg/dL",
              "system": "http://unitsofmeasure.org"
            }
          },
          {
            "high": {
              "value": 140,
              "code": "mg/dL",
              "system": "http://unitsofmeasure.org"
            }
          }
        ],
        "text": {
          "status": "generated",
          "div": "<div xmlns=\"http://www.w3.org/1999/xhtml\"><table class=\"hl7__eu__lab__report\"><tr><th>Test</th><th>11-Aug-2023</th><th>Reference&#xA0;Range</th><th>Unit</th></tr><tr><td>Glucose [Mass/volume] in Blood</td><td>120.4</td><td>70 - 140</td><td></td><td>mg/dL</td></tr></table></div>"
        },
        "status": "final",
        "subject": {
          "reference": "urn:uuid:d5ffc759-c9ed-4742-8be4-6a7c64de4748",
          "display": "Martine Couturier"
        },
        "effectiveDateTime": "2023-08-11T20:13:15Z",
        "specimen": {
          "reference": "urn:uuid:e9e4e876-7b24-4df8-9f23-a57977ad6f2e"
        }
      }
    },
    {
      "fullUrl": "urn:uuid:0680b5d8-0351-4e65-88ff-a70c9c417fd3",
      "resource": {
        "resourceType": "Observation",
        "id": "0680b5d8-0351-4e65-88ff-a70c9c417fd3",
        "meta": {
          "profile": [
            "http://hl7.eu/fhir/laboratory/StructureDefinition/Observation-resultslab-eu-lab"
          ]
        },
        "performer": [
          {
            "display": "The Central European Lab"
          }
        ],
        "category": [
          {
            "coding": [
              {
                "system": "http://terminology.hl7.org/CodeSystem/observation-category",
                "code": "laboratory"
              }
            ]
          }
        ],
        "code": {
          "coding": [
            {
              "code": "6299-2",
              "system": "http://loinc.org",
              "display": "Urea nitrogen [Mass/volume] in Blood"
            }
          ],
          "text": "Urea nitrogen [Mass/volume] in Blood"
        },
        "valueQuantity": {
          "system": "http://unitsofmeasure.org",
          "value": 16,
          "unit": "mg/dL",
          "code": "mg/dL"
        },
        "referenceRange": [
          {
            "low": {
              "value": 7,
              "code": "mg/dL",
              "system": "http://unitsofmeasure.org"
            }
          },
          {
            "high": {
              "value": 25,
              "code": "mg/dL",
              "system": "http://unitsofmeasure.org"
            }
          }
        ],
        "text": {
          "status": "generated",
          "div": "<div xmlns=\"http://www.w3.org/1999/xhtml\"><table class=\"hl7__eu__lab__report\"><tr><th>Test</th><th>11-Aug-2023</th><th>Reference&#xA0;Range</th><th>Unit</th></tr><tr><td>Urea nitrogen [Mass/volume] in Blood</td><td>16.0</td><td>7 - 25</td><td></td><td>mg/dL</td></tr></table></div>"
        },
        "status": "final",
        "subject": {
          "reference": "urn:uuid:d5ffc759-c9ed-4742-8be4-6a7c64de4748",
          "display": "Martine Couturier"
        },
        "effectiveDateTime": "2023-08-11T20:13:15Z",
        "specimen": {
          "reference": "urn:uuid:e9e4e876-7b24-4df8-9f23-a57977ad6f2e"
        }
      }
    },
    {
      "fullUrl": "urn:uuid:3c5712a6-270a-47de-be59-24d774c7ff6f",
      "resource": {
        "resourceType": "Observation",
        "id": "3c5712a6-270a-47de-be59-24d774c7ff6f",
        "meta": {
          "profile": [
            "http://hl7.eu/fhir/laboratory/StructureDefinition/Observation-resultslab-eu-lab"
          ]
        },
        "performer": [
          {
            "display": "The Central European Lab"
          }
        ],
        "category": [
          {
            "coding": [
              {
                "system": "http://terminology.hl7.org/CodeSystem/observation-category",
                "code": "laboratory"
              }
            ]
          }
        ],
        "code": {
          "coding": [
            {
              "code": "38483-4",
              "system": "http://loinc.org",
              "display": "Creatinine [Mass/volume] in Blood"
            }
          ],
          "text": "Creatinine [Mass/volume] in Blood"
        },
        "valueQuantity": {
          "system": "http://unitsofmeasure.org",
          "value": 0.9,
          "unit": "mg/dL",
          "code": "mg/dL"
        },
        "referenceRange": [
          {
            "low": {
              "value": 0.6,
              "code": "mg/dL",
              "system": "http://unitsofmeasure.org"
            }
          },
          {
            "high": {
              "value": 1.1,
              "code": "mg/dL",
              "system": "http://unitsofmeasure.org"
            }
          }
        ],
        "text": {
          "status": "generated",
          "div": "<div xmlns=\"http://www.w3.org/1999/xhtml\"><table class=\"hl7__eu__lab__report\"><tr><th>Test</th><th>11-Aug-2023</th><th>Reference&#xA0;Range</th><th>Unit</th></tr><tr><td>Creatinine [Mass/volume] in Blood</td><td>0.9</td><td>0.6 - 1.1</td><td></td><td>mg/dL</td></tr></table></div>"
        },
        "status": "final",
        "subject": {
          "reference": "urn:uuid:d5ffc759-c9ed-4742-8be4-6a7c64de4748",
          "display": "Martine Couturier"
        },
        "effectiveDateTime": "2023-08-11T20:13:15Z",
        "specimen": {
          "reference": "urn:uuid:e9e4e876-7b24-4df8-9f23-a57977ad6f2e"
        }
      }
    },
    {
      "fullUrl": "urn:uuid:a3365ae2-2317-4237-af18-654348490085",
      "resource": {
        "resourceType": "Observation",
        "id": "a3365ae2-2317-4237-af18-654348490085",
        "meta": {
          "profile": [
            "http://hl7.eu/fhir/laboratory/StructureDefinition/Observation-resultslab-eu-lab"
          ]
        },
        "performer": [
          {
            "display": "The Central European Lab"
          }
        ],
        "category": [
          {
            "coding": [
              {
                "system": "http://terminology.hl7.org/CodeSystem/observation-category",
                "code": "laboratory"
              }
            ]
          }
        ],
        "code": {
          "coding": [
            {
              "code": "49765-1",
              "system": "http://loinc.org",
              "display": "Calcium [Mass/volume] in Blood"
            }
          ],
          "text": "Calcium [Mass/volume] in Blood"
        },
        "valueQuantity": {
          "system": "http://unitsofmeasure.org",
          "value": 10,
          "unit": "mg/dL",
          "code": "mg/dL"
        },
        "referenceRange": [
          {
            "low": {
              "value": 8.5,
              "code": "mg/dL",
              "system": "http://unitsofmeasure.org"
            }
          },
          {
            "high": {
              "value": 10.4,
              "code": "mg/dL",
              "system": "http://unitsofmeasure.org"
            }
          }
        ],
        "text": {
          "status": "generated",
          "div": "<div xmlns=\"http://www.w3.org/1999/xhtml\"><table class=\"hl7__eu__lab__report\"><tr><th>Test</th><th>11-Aug-2023</th><th>Reference&#xA0;Range</th><th>Unit</th></tr><tr><td>Calcium [Mass/volume] in Blood</td><td>10.0</td><td>8.5 - 10.4</td><td></td><td>mg/dL</td></tr></table></div>"
        },
        "status": "final",
        "subject": {
          "reference": "urn:uuid:d5ffc759-c9ed-4742-8be4-6a7c64de4748",
          "display": "Martine Couturier"
        },
        "effectiveDateTime": "2023-08-11T20:13:15Z",
        "specimen": {
          "reference": "urn:uuid:e9e4e876-7b24-4df8-9f23-a57977ad6f2e"
        }
      }
    },
    {
      "fullUrl": "urn:uuid:20498397-718e-4927-85a3-9c59a6b7e78b",
      "resource": {
        "resourceType": "Observation",
        "id": "20498397-718e-4927-85a3-9c59a6b7e78b",
        "meta": {
          "profile": [
            "http://hl7.eu/fhir/laboratory/StructureDefinition/Observation-resultslab-eu-lab"
          ]
        },
        "performer": [
          {
            "display": "The Central European Lab"
          }
        ],
        "category": [
          {
            "coding": [
              {
                "system": "http://terminology.hl7.org/CodeSystem/observation-category",
                "code": "laboratory"
              }
            ]
          }
        ],
        "code": {
          "coding": [
            {
              "code": "2947-0",
              "system": "http://loinc.org",
              "display": "Sodium [Moles/volume] in Blood"
            }
          ],
          "text": "Sodium [Moles/volume] in Blood"
        },
        "valueQuantity": {
          "system": "http://unitsofmeasure.org",
          "value": 143.7,
          "unit": "mmol/L",
          "code": "mmol/L"
        },
        "referenceRange": [
          {
            "low": {
              "value": 135,
              "code": "mmol/L",
              "system": "http://unitsofmeasure.org"
            }
          },
          {
            "high": {
              "value": 145,
              "code": "mmol/L",
              "system": "http://unitsofmeasure.org"
            }
          }
        ],
        "text": {
          "status": "generated",
          "div": "<div xmlns=\"http://www.w3.org/1999/xhtml\"><table class=\"hl7__eu__lab__report\"><tr><th>Test</th><th>11-Aug-2023</th><th>Reference&#xA0;Range</th><th>Unit</th></tr><tr><td>Sodium [Moles/volume] in Blood</td><td>143.7</td><td>135 - 145</td><td></td><td>mmol/L</td></tr></table></div>"
        },
        "status": "final",
        "subject": {
          "reference": "urn:uuid:d5ffc759-c9ed-4742-8be4-6a7c64de4748",
          "display": "Martine Couturier"
        },
        "effectiveDateTime": "2023-08-11T20:13:15Z",
        "specimen": {
          "reference": "urn:uuid:e9e4e876-7b24-4df8-9f23-a57977ad6f2e"
        }
      }
    },
    {
      "fullUrl": "urn:uuid:95108cbe-a6b8-4904-a7c5-e3c21211a5a7",
      "resource": {
        "resourceType": "Observation",
        "id": "95108cbe-a6b8-4904-a7c5-e3c21211a5a7",
        "meta": {
          "profile": [
            "http://hl7.eu/fhir/laboratory/StructureDefinition/Observation-resultslab-eu-lab"
          ]
        },
        "performer": [
          {
            "display": "The Central European Lab"
          }
        ],
        "category": [
          {
            "coding": [
              {
                "system": "http://terminology.hl7.org/CodeSystem/observation-category",
                "code": "laboratory"
              }
            ]
          }
        ],
        "code": {
          "coding": [
            {
              "code": "6298-4",
              "system": "http://loinc.org",
              "display": "Potassium [Moles/volume] in Blood"
            }
          ],
          "text": "Potassium [Moles/volume] in Blood"
        },
        "valueQuantity": {
          "system": "http://unitsofmeasure.org",
          "value": 4.1,
          "unit": "mmol/L",
          "code": "mmol/L"
        },
        "referenceRange": [
          {
            "low": {
              "value": 3.5,
              "code": "mmol/L",
              "system": "http://unitsofmeasure.org"
            }
          },
          {
            "high": {
              "value": 5.1,
              "code": "mmol/L",
              "system": "http://unitsofmeasure.org"
            }
          }
        ],
        "text": {
          "status": "generated",
          "div": "<div xmlns=\"http://www.w3.org/1999/xhtml\"><table class=\"hl7__eu__lab__report\"><tr><th>Test</th><th>11-Aug-2023</th><th>Reference&#xA0;Range</th><th>Unit</th></tr><tr><td>Potassium [Moles/volume] in Blood</td><td>4.1</td><td>3.5 - 5.1</td><td></td><td>mmol/L</td></tr></table></div>"
        },
        "status": "final",
        "subject": {
          "reference": "urn:uuid:d5ffc759-c9ed-4742-8be4-6a7c64de4748",
          "display": "Martine Couturier"
        },
        "effectiveDateTime": "2023-08-11T20:13:15Z",
        "specimen": {
          "reference": "urn:uuid:e9e4e876-7b24-4df8-9f23-a57977ad6f2e"
        }
      }
    },
    {
      "fullUrl": "urn:uuid:7a0dbcca-4333-43df-a67c-bc400eb07fdc",
      "resource": {
        "resourceType": "Observation",
        "id": "7a0dbcca-4333-43df-a67c-bc400eb07fdc",
        "meta": {
          "profile": [
            "http://hl7.eu/fhir/laboratory/StructureDefinition/Observation-resultslab-eu-lab"
          ]
        },
        "performer": [
          {
            "display": "The Central European Lab"
          }
        ],
        "category": [
          {
            "coding": [
              {
                "system": "http://terminology.hl7.org/CodeSystem/observation-category",
                "code": "laboratory"
              }
            ]
          }
        ],
        "code": {
          "coding": [
            {
              "code": "2069-3",
              "system": "http://loinc.org",
              "display": "Chloride [Moles/volume] in Blood"
            }
          ],
          "text": "Chloride [Moles/volume] in Blood"
        },
        "valueQuantity": {
          "system": "http://unitsofmeasure.org",
          "value": 101.3,
          "unit": "mmol/L",
          "code": "mmol/L"
        },
        "referenceRange": [
          {
            "low": {
              "value": 98,
              "code": "mmol/L",
              "system": "http://unitsofmeasure.org"
            }
          },
          {
            "high": {
              "value": 107,
              "code": "mmol/L",
              "system": "http://unitsofmeasure.org"
            }
          }
        ],
        "text": {
          "status": "generated",
          "div": "<div xmlns=\"http://www.w3.org/1999/xhtml\"><table class=\"hl7__eu__lab__report\"><tr><th>Test</th><th>11-Aug-2023</th><th>Reference&#xA0;Range</th><th>Unit</th></tr><tr><td>Chloride [Moles/volume] in Blood</td><td>101.3</td><td>98 - 107</td><td></td><td>mmol/L</td></tr></table></div>"
        },
        "status": "final",
        "subject": {
          "reference": "urn:uuid:d5ffc759-c9ed-4742-8be4-6a7c64de4748",
          "display": "Martine Couturier"
        },
        "effectiveDateTime": "2023-08-11T20:13:15Z",
        "specimen": {
          "reference": "urn:uuid:e9e4e876-7b24-4df8-9f23-a57977ad6f2e"
        }
      }
    },
    {
      "fullUrl": "urn:uuid:0f1a264a-771d-4152-8b5b-1a44dffc009d",
      "resource": {
        "resourceType": "Observation",
        "id": "0f1a264a-771d-4152-8b5b-1a44dffc009d",
        "meta": {
          "profile": [
            "http://hl7.eu/fhir/laboratory/StructureDefinition/Observation-resultslab-eu-lab"
          ]
        },
        "performer": [
          {
            "display": "The Central European Lab"
          }
        ],
        "category": [
          {
            "coding": [
              {
                "system": "http://terminology.hl7.org/CodeSystem/observation-category",
                "code": "laboratory"
              }
            ]
          }
        ],
        "code": {
          "coding": [
            {
              "code": "20565-8",
              "system": "http://loinc.org",
              "display": "Carbon dioxide, total [Moles/volume] in Blood"
            }
          ],
          "text": "Carbon dioxide, total [Moles/volume] in Blood"
        },
        "valueQuantity": {
          "system": "http://unitsofmeasure.org",
          "value": 26.9,
          "unit": "mmol/L",
          "code": "mmol/L"
        },
        "referenceRange": [
          {
            "low": {
              "value": 22,
              "code": "mmol/L",
              "system": "http://unitsofmeasure.org"
            }
          },
          {
            "high": {
              "value": 29,
              "code": "mmol/L",
              "system": "http://unitsofmeasure.org"
            }
          }
        ],
        "text": {
          "status": "generated",
          "div": "<div xmlns=\"http://www.w3.org/1999/xhtml\"><table class=\"hl7__eu__lab__report\"><tr><th>Test</th><th>11-Aug-2023</th><th>Reference&#xA0;Range</th><th>Unit</th></tr><tr><td>Carbon dioxide, total [Moles/volume] in Blood</td><td>26.9</td><td>22 - 29</td><td></td><td>mmol/L</td></tr></table></div>"
        },
        "status": "final",
        "subject": {
          "reference": "urn:uuid:d5ffc759-c9ed-4742-8be4-6a7c64de4748",
          "display": "Martine Couturier"
        },
        "effectiveDateTime": "2023-08-11T20:13:15Z",
        "specimen": {
          "reference": "urn:uuid:e9e4e876-7b24-4df8-9f23-a57977ad6f2e"
        }
      }
    },
    {
      "fullUrl": "urn:uuid:cc184132-f8b9-4cf5-b8df-37c4fbc06287",
      "resource": {
        "resourceType": "Observation",
        "id": "cc184132-f8b9-4cf5-b8df-37c4fbc06287",
        "meta": {
          "profile": [
            "http://hl7.eu/fhir/laboratory/StructureDefinition/Observation-resultslab-eu-lab"
          ]
        },
        "performer": [
          {
            "display": "The Central European Lab"
          }
        ],
        "category": [
          {
            "coding": [
              {
                "system": "http://terminology.hl7.org/CodeSystem/observation-category",
                "code": "laboratory"
              }
            ]
          }
        ],
        "code": {
          "coding": [
            {
              "code": "2093-3",
              "system": "http://loinc.org",
              "display": "Cholesterol [Mass/volume] in Serum or Plasma"
            }
          ],
          "text": "Cholesterol [Mass/volume] in Serum or Plasma"
        },
        "valueQuantity": {
          "system": "http://unitsofmeasure.org",
          "value": 230.5,
          "unit": "mg/dL",
          "code": "mg/dL"
        },
        "referenceRange": [
          {
            "low": {
              "value": 125,
              "code": "mg/dL",
              "system": "http://unitsofmeasure.org"
            }
          },
          {
            "high": {
              "value": 200,
              "code": "mg/dL",
              "system": "http://unitsofmeasure.org"
            }
          }
        ],
        "interpretation": [
          {
            "coding": [
              {
                "code": "H",
                "system": "http://terminology.hl7.org/CodeSystem/v3-ObservationInterpretation",
                "display": "High"
              }
            ]
          }
        ],
        "text": {
          "status": "generated",
          "div": "<div xmlns=\"http://www.w3.org/1999/xhtml\"><table class=\"hl7__eu__lab__report\"><tr><th>Test</th><th>11-Aug-2023</th><th>Reference&#xA0;Range</th><th>Unit</th></tr><tr><td>Cholesterol [Mass/volume] in Serum or Plasma</td><td>230.5</td><td>125 - 200</td><td>H</td><td>mg/dL</td></tr></table></div>"
        },
        "status": "final",
        "subject": {
          "reference": "urn:uuid:d5ffc759-c9ed-4742-8be4-6a7c64de4748",
          "display": "Martine Couturier"
        },
        "effectiveDateTime": "2023-08-11T20:13:15Z",
        "specimen": {
          "reference": "urn:uuid:07d20d7e-d5d1-4709-b926-6a4942be23c8"
        }
      }
    },
    {
      "fullUrl": "urn:uuid:5f7ef9f9-869f-4a91-9274-f637f90f59ad",
      "resource": {
        "resourceType": "Observation",
        "id": "5f7ef9f9-869f-4a91-9274-f637f90f59ad",
        "meta": {
          "profile": [
            "http://hl7.eu/fhir/laboratory/StructureDefinition/Observation-resultslab-eu-lab"
          ]
        },
        "performer": [
          {
            "display": "The Central European Lab"
          }
        ],
        "category": [
          {
            "coding": [
              {
                "system": "http://terminology.hl7.org/CodeSystem/observation-category",
                "code": "laboratory"
              }
            ]
          }
        ],
        "code": {
          "coding": [
            {
              "code": "2571-8",
              "system": "http://loinc.org",
              "display": "Triglyceride [Mass/volume] in Serum or Plasma"
            }
          ],
          "text": "Triglyceride [Mass/volume] in Serum or Plasma"
        },
        "valueQuantity": {
          "system": "http://unitsofmeasure.org",
          "value": 179.2,
          "unit": "mg/dL",
          "code": "mg/dL"
        },
        "referenceRange": [
          {
            "low": {
              "value": 35,
              "code": "mg/dL",
              "system": "http://unitsofmeasure.org"
            }
          },
          {
            "high": {
              "value": 150,
              "code": "mg/dL",
              "system": "http://unitsofmeasure.org"
            }
          }
        ],
        "interpretation": [
          {
            "coding": [
              {
                "code": "H",
                "system": "http://terminology.hl7.org/CodeSystem/v3-ObservationInterpretation",
                "display": "High"
              }
            ]
          }
        ],
        "text": {
          "status": "generated",
          "div": "<div xmlns=\"http://www.w3.org/1999/xhtml\"><table class=\"hl7__eu__lab__report\"><tr><th>Test</th><th>11-Aug-2023</th><th>Reference&#xA0;Range</th><th>Unit</th></tr><tr><td>Triglyceride [Mass/volume] in Serum or Plasma</td><td>179.2</td><td>35 - 150</td><td>H</td><td>mg/dL</td></tr></table></div>"
        },
        "status": "final",
        "subject": {
          "reference": "urn:uuid:d5ffc759-c9ed-4742-8be4-6a7c64de4748",
          "display": "Martine Couturier"
        },
        "effectiveDateTime": "2023-08-11T20:13:15Z",
        "specimen": {
          "reference": "urn:uuid:07d20d7e-d5d1-4709-b926-6a4942be23c8"
        }
      }
    },
    {
      "fullUrl": "urn:uuid:d5e595de-05d9-4f7b-8885-5b78e3ea38ab",
      "resource": {
        "resourceType": "Observation",
        "id": "d5e595de-05d9-4f7b-8885-5b78e3ea38ab",
        "meta": {
          "profile": [
            "http://hl7.eu/fhir/laboratory/StructureDefinition/Observation-resultslab-eu-lab"
          ]
        },
        "performer": [
          {
            "display": "The Central European Lab"
          }
        ],
        "category": [
          {
            "coding": [
              {
                "system": "http://terminology.hl7.org/CodeSystem/observation-category",
                "code": "laboratory"
              }
            ]
          }
        ],
        "code": {
          "coding": [
            {
              "code": "18262-6",
              "system": "http://loinc.org",
              "display": "Cholesterol in LDL [Mass/volume] in Serum or Plasma by Direct assay"
            }
          ],
          "text": "Cholesterol in LDL [Mass/volume] in Serum or Plasma by Direct assay"
        },
        "valueQuantity": {
          "system": "http://unitsofmeasure.org",
          "value": 149.9,
          "unit": "mg/dL",
          "code": "mg/dL"
        },
        "referenceRange": [
          {
            "low": {
              "value": 0,
              "code": "mg/dL",
              "system": "http://unitsofmeasure.org"
            }
          },
          {
            "high": {
              "value": 130,
              "code": "mg/dL",
              "system": "http://unitsofmeasure.org"
            }
          }
        ],
        "interpretation": [
          {
            "coding": [
              {
                "code": "H",
                "system": "http://terminology.hl7.org/CodeSystem/v3-ObservationInterpretation",
                "display": "High"
              }
            ]
          }
        ],
        "text": {
          "status": "generated",
          "div": "<div xmlns=\"http://www.w3.org/1999/xhtml\"><table class=\"hl7__eu__lab__report\"><tr><th>Test</th><th>11-Aug-2023</th><th>Reference&#xA0;Range</th><th>Unit</th></tr><tr><td>Cholesterol in LDL [Mass/volume] in Serum or Plasma by Direct assay</td><td>149.9</td><td>0 - 130</td><td>H</td><td>mg/dL</td></tr></table></div>"
        },
        "status": "final",
        "subject": {
          "reference": "urn:uuid:d5ffc759-c9ed-4742-8be4-6a7c64de4748",
          "display": "Martine Couturier"
        },
        "effectiveDateTime": "2023-08-11T20:13:15Z",
        "specimen": {
          "reference": "urn:uuid:07d20d7e-d5d1-4709-b926-6a4942be23c8"
        }
      }
    },
    {
      "fullUrl": "urn:uuid:5fc3da89-a8d1-4ea4-87b7-562be79c6150",
      "resource": {
        "resourceType": "Observation",
        "id": "5fc3da89-a8d1-4ea4-87b7-562be79c6150",
        "meta": {
          "profile": [
            "http://hl7.eu/fhir/laboratory/StructureDefinition/Observation-resultslab-eu-lab"
          ]
        },
        "performer": [
          {
            "display": "The Central European Lab"
          }
        ],
        "category": [
          {
            "coding": [
              {
                "system": "http://terminology.hl7.org/CodeSystem/observation-category",
                "code": "laboratory"
              }
            ]
          }
        ],
        "code": {
          "coding": [
            {
              "code": "2085-9",
              "system": "http://loinc.org",
              "display": "Cholesterol in HDL [Mass/volume] in Serum or Plasma"
            }
          ],
          "text": "Cholesterol in HDL [Mass/volume] in Serum or Plasma"
        },
        "valueQuantity": {
          "system": "http://unitsofmeasure.org",
          "value": 44.8,
          "unit": "mg/dL",
          "code": "mg/dL"
        },
        "referenceRange": [
          {
            "low": {
              "value": 40,
              "code": "mg/dL",
              "system": "http://unitsofmeasure.org"
            }
          },
          {
            "high": {
              "value": 100,
              "code": "mg/dL",
              "system": "http://unitsofmeasure.org"
            }
          }
        ],
        "text": {
          "status": "generated",
          "div": "<div xmlns=\"http://www.w3.org/1999/xhtml\"><table class=\"hl7__eu__lab__report\"><tr><th>Test</th><th>11-Aug-2023</th><th>Reference&#xA0;Range</th><th>Unit</th></tr><tr><td>Cholesterol in HDL [Mass/volume] in Serum or Plasma</td><td>44.8</td><td>40 - 100</td><td></td><td>mg/dL</td></tr></table></div>"
        },
        "status": "final",
        "subject": {
          "reference": "urn:uuid:d5ffc759-c9ed-4742-8be4-6a7c64de4748",
          "display": "Martine Couturier"
        },
        "effectiveDateTime": "2023-08-11T20:13:15Z",
        "specimen": {
          "reference": "urn:uuid:07d20d7e-d5d1-4709-b926-6a4942be23c8"
        }
      }
    },
    {
      "fullUrl": "urn:uuid:88c90754-fc0c-4d57-8000-d88f6bd2bcd1",
      "resource": {
        "resourceType": "Observation",
        "id": "88c90754-fc0c-4d57-8000-d88f6bd2bcd1",
        "meta": {
          "profile": [
            "http://hl7.eu/fhir/laboratory/StructureDefinition/Observation-resultslab-eu-lab"
          ]
        },
        "performer": [
          {
            "display": "The Central European Lab"
          }
        ],
        "category": [
          {
            "coding": [
              {
                "system": "http://terminology.hl7.org/CodeSystem/observation-category",
                "code": "laboratory"
              }
            ]
          }
        ],
        "code": {
          "coding": [
            {
              "code": "14959-1",
              "system": "http://loinc.org",
              "display": "Microalbumin/Creatinine [Mass Ratio] in Urine"
            }
          ],
          "text": "Microalbumin/Creatinine [Mass Ratio] in Urine"
        },
        "valueQuantity": {
          "system": "http://unitsofmeasure.org",
          "value": 2.8,
          "unit": "mg/g",
          "code": "mg/g"
        },
        "referenceRange": [
          {
            "low": {
              "value": 0,
              "code": "mg/g",
              "system": "http://unitsofmeasure.org"
            }
          },
          {
            "high": {
              "value": 30,
              "code": "mg/g",
              "system": "http://unitsofmeasure.org"
            }
          }
        ],
        "text": {
          "status": "generated",
          "div": "<div xmlns=\"http://www.w3.org/1999/xhtml\"><table class=\"hl7__eu__lab__report\"><tr><th>Test</th><th>11-Aug-2023</th><th>Reference&#xA0;Range</th><th>Unit</th></tr><tr><td>Microalbumin/Creatinine [Mass Ratio] in Urine</td><td>2.8</td><td>0 - 30</td><td></td><td>mg/g</td></tr></table></div>"
        },
        "status": "final",
        "subject": {
          "reference": "urn:uuid:d5ffc759-c9ed-4742-8be4-6a7c64de4748",
          "display": "Martine Couturier"
        },
        "effectiveDateTime": "2023-08-11T20:13:15Z",
        "specimen": {
          "reference": "urn:uuid:9b707c4f-82b6-41a7-894a-efa7765b4dae"
        }
      }
    },
    {
      "fullUrl": "urn:uuid:16da4bff-9c1c-478e-8fbb-1174c3b3866f",
      "resource": {
        "resourceType": "Device",
        "id": "16da4bff-9c1c-478e-8fbb-1174c3b3866f",
        "deviceName": [
          {
            "name": "SYNDERAI Synthetic Generator",
            "type": "manufacturer-name"
          }
        ],
        "version": [
          {
            "value": "5.0"
          }
        ],
        "text": {
          "status": "generated",
          "div": "<div xmlns=\"http://www.w3.org/1999/xhtml\">SYNDERAI Synthetic Generator v5.0</div>"
        },
        "status": "active\"",
        "distinctIdentifier": "synderai-generator-50",
        "manufacturer": "SYNDERAI Project"
      }
    },
    {
      "fullUrl": "urn:uuid:d7b9812f-c9c8-4b4e-8419-7c7234223873",
      "resource": {
        "resourceType": "Provenance",
        "id": "d7b9812f-c9c8-4b4e-8419-7c7234223873",
        "target": [
          {
            "reference": "Patient/d5ffc759-c9ed-4742-8be4-6a7c64de4748"
          },
          {
            "reference": "Bundle/81a878a2-ad9a-4d6c-a410-a0d389ea6973"
          },
          {
            "reference": "Composition/bc667870-074e-47e4-8011-46e79cdc815f"
          },
          {
            "reference": "PractitionerRole/06a272a7-3f30-4850-b608-a2191f7738f3"
          },
          {
            "reference": "Practitioner/d192086e-9ff0-4240-87da-a8038a73a9d0"
          },
          {
            "reference": "PractitionerRole/a6531f73-c719-47c1-bdd6-8d8a2d36226d"
          },
          {
            "reference": "Organization/c5c2b523-0bee-4ab0-a87b-fd65323f5758"
          }
        ],
        "activity": {
          "text": "Synthetic Example Data Generation"
        },
        "policy": [
          "https://synderai.net/synderai-synthetic-data-policy"
        ],
        "agent": [
          {
            "type": {
              "text": "author"
            },
            "who": {
              "reference": "Device/16da4bff-9c1c-478e-8fbb-1174c3b3866f"
            }
          }
        ],
        "reason": [
          {
            "text": "Interoperability Testing and Training (non-clinical use)"
          }
        ],
        "text": {
          "status": "generated",
          "div": "<div xmlns=\"http://www.w3.org/1999/xhtml\">Provenance for SYNDERAI Synthetic Example Data Resource</div>"
        },
        "recorded": "2023-08-11T22:13:15Z"
      }
    },
    {
      "fullUrl": "urn:uuid:06a272a7-3f30-4850-b608-a2191f7738f3",
      "resource": {
        "resourceType": "PractitionerRole",
        "id": "06a272a7-3f30-4850-b608-a2191f7738f3",
        "meta": {
          "profile": [
            "http://hl7.eu/fhir/base/StructureDefinition/practitionerRole-eu"
          ]
        },
        "text": {
          "status": "generated",
          "div": "<div xmlns=\"http://www.w3.org/1999/xhtml\">Laboratory Role Id: 06a272a7-3f30-4850-b608-a2191f7738f3</div>"
        },
        "practitioner": {
          "reference": "urn:uuid:d192086e-9ff0-4240-87da-a8038a73a9d0"
        }
      }
    },
    {
      "fullUrl": "urn:uuid:d192086e-9ff0-4240-87da-a8038a73a9d0",
      "resource": {
        "resourceType": "Practitioner",
        "id": "d192086e-9ff0-4240-87da-a8038a73a9d0",
        "meta": {
          "profile": [
            "http://hl7.eu/fhir/base/StructureDefinition/practitioner-eu"
          ]
        },
        "identifier": [
          {
            "assigner": {
              "display": "HL7 Europe"
            },
            "system": "urn:oid:2.16.840.1.113883.2.51.999",
            "value": "d67137f8-0231-4758-ab33-3475e854b606"
          }
        ],
        "name": [
          {
            "prefix": [
              "dr"
            ],
            "given": [
              "Ex"
            ],
            "family": "Ample"
          }
        ],
        "address": [
          {
            "line": [
              "Laboratoire Central Européenne",
              "Boulevard du Jardin Botanique 32"
            ],
            "postalCode": "1000",
            "city": "Brussels",
            "country": "Belgium"
          }
        ],
        "text": {
          "status": "generated",
          "div": "<div xmlns=\"http://www.w3.org/1999/xhtml\">Laboratory: Laboratoire Central Européenne, 1000 Brussels, Belgium</div>"
        }
      }
    }
  ],
  "type": "document",
  "timestamp": "2023-08-11T22:13:15Z"
}
