{
  "resourceType": "Bundle",
  "id": "176c2c96-acd6-4b8c-a256-40a8e0ce29f8",
  "meta": {
    "profile": [
      "http://hl7.eu/fhir/laboratory/StructureDefinition/Bundle-eu-lab"
    ]
  },
  "identifier": {
    "assigner": {
      "display": "HL7 Europe"
    },
    "system": "urn:oid:2.16.840.1.113883.2.51.999",
    "value": "b339da1e-0402-4293-beb8-5f6b19c0fc9d"
  },
  "entry": [
    {
      "fullUrl": "urn:uuid:7069b633-ad28-49e1-8493-48207af30491",
      "resource": {
        "resourceType": "Composition",
        "id": "7069b633-ad28-49e1-8493-48207af30491",
        "meta": {
          "profile": [
            "http://hl7.eu/fhir/laboratory/StructureDefinition/Composition-eu-lab"
          ]
        },
        "identifier": {
          "assigner": {
            "display": "HL7 Europe"
          },
          "system": "urn:oid:2.16.840.1.113883.2.51.999",
          "value": "e8611e74-b242-4f0c-ad9f-c483a8456cf9"
        },
        "author": [
          {
            "reference": "urn:uuid:112ecffa-0e90-4442-9299-b252046fd958"
          }
        ],
        "category": [
          {
            "coding": [
              {
                "code": "26436-6",
                "system": "http://loinc.org",
                "display": "Laboratory studies (set)"
              }
            ]
          }
        ],
        "type": {
          "coding": [
            {
              "code": "11502-2",
              "system": "http://loinc.org",
              "display": "Laboratory report"
            }
          ],
          "text": "Laboratory Report"
        },
        "section": [
          {
            "code": {
              "coding": [
                {
                  "code": "26436-6",
                  "system": "http://loinc.org",
                  "display": "Laboratory studies (set)"
                }
              ],
              "text": "Laboratory studies"
            },
            "section": [
              {
                "code": {
                  "coding": [
                    {
                      "code": "$18719-5",
                      "system": "http://loinc.org",
                      "display": "Chemistry studies (set)"
                    }
                  ],
                  "text": "Chemistry"
                },
                "entry": [
                  {
                    "reference": "urn:uuid:406e877c-44d6-46bc-87d8-d3e76803391f"
                  },
                  {
                    "reference": "urn:uuid:6e84e1bf-9f8e-4baa-aa76-4c8b78fa8745"
                  },
                  {
                    "reference": "urn:uuid:a86982b1-4db5-43ff-a90f-8e5bb2385e09"
                  },
                  {
                    "reference": "urn:uuid:3037affb-c02d-4dc3-bc15-e75637b1c33b"
                  },
                  {
                    "reference": "urn:uuid:65ba575c-99fd-49f9-85ab-d28b35b6dd20"
                  },
                  {
                    "reference": "urn:uuid:feb389ae-9520-45d0-b9fc-741b03cece9b"
                  },
                  {
                    "reference": "urn:uuid:174a32e2-d572-4e05-aa03-08521af515f3"
                  },
                  {
                    "reference": "urn:uuid:78b82773-2568-4cf0-9b82-829f9cf925ce"
                  },
                  {
                    "reference": "urn:uuid:206d8656-0f69-4c7b-bb1f-aeceda5bc7a9"
                  },
                  {
                    "reference": "urn:uuid:a3b0cb88-bbd6-48be-9c24-4bdca551e2a0"
                  },
                  {
                    "reference": "urn:uuid:bf30f792-9fd8-478d-856e-908ead7bc3b2"
                  },
                  {
                    "reference": "urn:uuid:9c061b94-9c7f-45c4-813e-84dc03a18d8e"
                  },
                  {
                    "reference": "urn:uuid:065c6160-21e8-44d0-b56a-704e75c7def7"
                  }
                ],
                "text": {
                  "status": "generated",
                  "div": "<div xmlns=\"http://www.w3.org/1999/xhtml\"><h3>Chemistry</h3><table class=\"hl7__eu__lab__report\"><thead><tr><th>Test</th><th>02-FEB-2019</th><th>Reference&#xA0;Range</th><th>Unit</th></tr></thead><tbody><tr><td>Hemoglobin A1c/Hemoglobin.total in Blood</td><td>5.9</td><td>4 - 6</td><td>%</td></tr><tr><td>Glucose [Mass/volume] in Blood</td><td><strong>64.9 L</strong></td><td>70 - 140</td><td>mg/dL</td></tr><tr><td>Urea nitrogen [Mass/volume] in Blood</td><td>16.2</td><td>7 - 45</td><td>mg/dL</td></tr><tr><td>Creatinine [Mass/volume] in Blood</td><td>0.8</td><td>0.6 - 1.1</td><td>mg/dL</td></tr><tr><td>Calcium [Mass/volume] in Blood</td><td>8.8</td><td>8.5 - 10.5</td><td>mg/dL</td></tr><tr><td>Sodium [Moles/volume] in Blood</td><td>142.7</td><td>135 - 145</td><td>mmol/L</td></tr><tr><td>Potassium [Moles/volume] in Blood</td><td>4.0</td><td>3.5 - 5.1</td><td>mmol/L</td></tr><tr><td>Chloride [Moles/volume] in Blood</td><td>102.5</td><td>98 - 107</td><td>mmol/L</td></tr><tr><td>Carbon dioxide, total [Moles/volume] in Blood</td><td>26.1</td><td>22 - 32</td><td>mmol/L</td></tr><tr><td>Cholesterol [Mass/volume] in Serum or Plasma</td><td><strong>227.7 H</strong></td><td>125 - 200</td><td>mg/dL</td></tr><tr><td>Triglyceride [Mass/volume] in Serum or Plasma</td><td>124.8</td><td>0 - 150</td><td>mg/dL</td></tr><tr><td>Cholesterol in LDL [Mass/volume] in Serum or Plasma by Direct assay</td><td><strong>157.1 H</strong></td><td>0 - 130</td><td>mg/dL</td></tr><tr><td>Cholesterol in HDL [Mass/volume] in Serum or Plasma</td><td>45.6</td><td>40 - 60</td><td>mg/dL</td></tr></tbody></table></div>"
                },
                "title": "Chemistry"
              }
            ],
            "title": "Laboratory Report"
          },
          {
            "text": {
              "status": "generated",
              "div": "<div xmlns=\"http://www.w3.org/1999/xhtml\"><h3>Annotation</h3><table class=\"hl7__eu__lab__report\"><tr><th>Conclusion and Recommendations based on this report and previous findings known to us</th></tr><tr><td>The patient shows mildly elevated total and LDL cholesterol, indicating increased cardiovascular risk, while HDL and triglycerides are within normal limits. Hemoglobin A1c is at the upper end of normal, suggesting close monitoring for glucose metabolism is warranted. Glucose is slightly low, which may be due to fasting or other factors. Renal and electrolyte parameters are within normal ranges. Overall, lipid management and continued monitoring of glucose control are recommended.</td></tr></table></div>"
            },
            "code": {
              "coding": [
                {
                  "system": "http://loinc.org",
                  "code": "48767-8",
                  "display": "Annotation comment"
                }
              ]
            },
            "title": "Annotation comment"
          }
        ],
        "status": "final",
        "subject": {
          "reference": "urn:uuid:ed5ef9fc-721f-4c91-a41b-9da132b354c9",
          "display": "Lydia Ward"
        },
        "date": "2019-02-02T00:08:09Z",
        "title": "Laboratory Report",
        "confidentiality": "N"
      }
    },
    {
      "fullUrl": "urn:uuid:a9320b76-e19b-4c1f-9c40-91b70d4c47bd",
      "resource": {
        "resourceType": "DiagnosticReport",
        "id": "a9320b76-e19b-4c1f-9c40-91b70d4c47bd",
        "meta": {
          "profile": [
            "http://hl7.eu/fhir/laboratory/StructureDefinition/DiagnosticReport-eu-lab"
          ]
        },
        "identifier": [
          {
            "assigner": {
              "display": "HL7 Europe"
            },
            "system": "urn:oid:2.16.840.1.113883.2.51.999",
            "value": "b77792c5-9f8a-462b-8378-2ce3663684f4"
          }
        ],
        "extension": [
          {
            "url": "http://hl7.org/fhir/5.0/StructureDefinition/extension-DiagnosticReport.composition",
            "valueReference": {
              "reference": "urn:uuid:e8611e74-b242-4f0c-ad9f-c483a8456cf9"
            }
          }
        ],
        "category": [
          {
            "coding": [
              {
                "code": "26436-6",
                "system": "http://loinc.org",
                "display": "Laboratory studies (set)"
              }
            ]
          }
        ],
        "specimen": [
          {
            "reference": "urn:uuid:802797a4-cccd-47a4-ab8e-88efd42ab963"
          },
          {
            "reference": "urn:uuid:654d3ab2-c853-4e24-b2ff-081be8476f4a"
          }
        ],
        "result": [
          {
            "reference": "urn:uuid:406e877c-44d6-46bc-87d8-d3e76803391f"
          },
          {
            "reference": "urn:uuid:6e84e1bf-9f8e-4baa-aa76-4c8b78fa8745"
          },
          {
            "reference": "urn:uuid:a86982b1-4db5-43ff-a90f-8e5bb2385e09"
          },
          {
            "reference": "urn:uuid:3037affb-c02d-4dc3-bc15-e75637b1c33b"
          },
          {
            "reference": "urn:uuid:65ba575c-99fd-49f9-85ab-d28b35b6dd20"
          },
          {
            "reference": "urn:uuid:feb389ae-9520-45d0-b9fc-741b03cece9b"
          },
          {
            "reference": "urn:uuid:174a32e2-d572-4e05-aa03-08521af515f3"
          },
          {
            "reference": "urn:uuid:78b82773-2568-4cf0-9b82-829f9cf925ce"
          },
          {
            "reference": "urn:uuid:206d8656-0f69-4c7b-bb1f-aeceda5bc7a9"
          },
          {
            "reference": "urn:uuid:a3b0cb88-bbd6-48be-9c24-4bdca551e2a0"
          },
          {
            "reference": "urn:uuid:bf30f792-9fd8-478d-856e-908ead7bc3b2"
          },
          {
            "reference": "urn:uuid:9c061b94-9c7f-45c4-813e-84dc03a18d8e"
          },
          {
            "reference": "urn:uuid:065c6160-21e8-44d0-b56a-704e75c7def7"
          }
        ],
        "status": "registered",
        "code": {
          "coding": [
            {
              "code": "11502-2",
              "system": "http://loinc.org",
              "display": "Laboratory report"
            }
          ]
        },
        "subject": {
          "reference": "urn:uuid:ed5ef9fc-721f-4c91-a41b-9da132b354c9",
          "display": "Lydia Ward"
        }
      }
    },
    {
      "fullUrl": "urn:uuid:ed5ef9fc-721f-4c91-a41b-9da132b354c9",
      "resource": {
        "resourceType": "Patient",
        "id": "ed5ef9fc-721f-4c91-a41b-9da132b354c9",
        "meta": {
          "security": [
            {
              "system": "http://terminology.hl7.org/CodeSystem/v3-ActReason",
              "code": "HTEST"
            },
            {
              "system": "http://terminology.hl7.org/CodeSystem/v3-ActReason",
              "code": "TRAIN"
            }
          ],
          "tag": [
            {
              "system": "https://synderai.net/fhir/CodeSystem/tags",
              "code": "synthetic",
              "display": "SYNDERAI Synthetic data"
            }
          ],
          "profile": [
            "http://hl7.eu/fhir/base/StructureDefinition/patient-eu-core"
          ]
        },
        "identifier": [
          {
            "type": {
              "coding": [
                {
                  "code": "PT",
                  "system": "http://terminology.hl7.org/CodeSystem/v2-0203"
                }
              ]
            },
            "system": "http://ec.europa.eu/identifier/eci",
            "value": "8944-364030-8"
          },
          {
            "type": {
              "coding": [
                {
                  "code": "MR",
                  "system": "http://terminology.hl7.org/CodeSystem/v2-0203"
                }
              ]
            },
            "system": "http://local.setting.eu/identifier",
            "value": "9edf6b8d-b276-7218-98c6-ccf8d15f2a01"
          }
        ],
        "name": [
          {
            "family": "Ward"
          },
          {
            "given": [
              "Lydia"
            ]
          },
          {
            "text": "Lydia Ward"
          }
        ],
        "address": [
          {
            "line": [
              "6 Hunt radial"
            ],
            "use": "home",
            "type": "physical",
            "postalCode": "EH33",
            "city": "South Rosieside",
            "country": "United Kingdom"
          }
        ],
        "telecom": [
          {
            "system": "phone",
            "value": "01144960349"
          }
        ],
        "extension": [
          {
            "url": "http://hl7.org/fhir/StructureDefinition/patient-nationality",
            "valueCodeableConcept": {
              "coding": [
                {
                  "code": "GB",
                  "system": "http://hl7.org/fhir/ValueSet/country"
                }
              ]
            }
          }
        ],
        "text": {
          "status": "generated",
          "div": "<div xmlns=\"http://www.w3.org/1999/xhtml\"><table class=\"hl7__ips\"><tr><td>Lydia Ward</td><td>female</td><td>27-Dec-1968</td></tr></table></div>"
        },
        "gender": "female",
        "birthDate": "1968-12-27"
      }
    },
    {
      "fullUrl": "urn:uuid:c89aea28-f781-4fb7-b5db-2d02d8271cdc",
      "resource": {
        "resourceType": "ServiceRequest",
        "id": "c89aea28-f781-4fb7-b5db-2d02d8271cdc",
        "meta": {
          "profile": [
            "http://hl7.eu/fhir/laboratory/StructureDefinition/ServiceRequest-eu-lab"
          ]
        },
        "identifier": [
          {
            "system": "http://example.org",
            "value": "312c91f2-1b9a-447d-93cc-d2a565f08686"
          }
        ],
        "specimen": [
          {
            "reference": "urn:uuid:802797a4-cccd-47a4-ab8e-88efd42ab963"
          },
          {
            "reference": "urn:uuid:654d3ab2-c853-4e24-b2ff-081be8476f4a"
          }
        ],
        "reasonCode": [
          {
            "coding": [
              {
                "code": "271737000",
                "system": "http://snomed.info/sct",
                "display": "Anemia"
              }
            ]
          },
          {
            "coding": [
              {
                "code": "15777000",
                "system": "http://snomed.info/sct",
                "display": "Prediabetes"
              }
            ]
          }
        ],
        "status": "active",
        "intent": "order",
        "code": {
          "coding": [
            {
              "code": "108252007",
              "system": "http://snomed.info/sct",
              "display": "Laboratory procedure"
            }
          ]
        },
        "subject": {
          "reference": "urn:uuid:ed5ef9fc-721f-4c91-a41b-9da132b354c9",
          "display": "Lydia Ward"
        },
        "requester": {
          "reference": "urn:uuid:d4e69c2a-70b6-4377-b511-52cd1bfeb027"
        }
      }
    },
    {
      "fullUrl": "urn:uuid:d4e69c2a-70b6-4377-b511-52cd1bfeb027",
      "resource": {
        "resourceType": "PractitionerRole",
        "id": "d4e69c2a-70b6-4377-b511-52cd1bfeb027",
        "meta": {
          "profile": [
            "http://hl7.eu/fhir/base/StructureDefinition/practitionerRole-eu"
          ]
        },
        "text": {
          "status": "generated",
          "div": "<div xmlns=\"http://www.w3.org/1999/xhtml\">Provider Role Id: d4e69c2a-70b6-4377-b511-52cd1bfeb027</div>"
        },
        "organization": {
          "reference": "urn:uuid:5db142c7-d5d1-42b1-bb32-01c57a025779"
        }
      }
    },
    {
      "fullUrl": "urn:uuid:5db142c7-d5d1-42b1-bb32-01c57a025779",
      "resource": {
        "resourceType": "Organization",
        "id": "5db142c7-d5d1-42b1-bb32-01c57a025779",
        "meta": {
          "profile": [
            "http://hl7.eu/fhir/base/StructureDefinition/organization-eu"
          ]
        },
        "identifier": [
          {
            "assigner": {
              "display": "HL7 Europe"
            },
            "system": "urn:oid:2.16.840.1.113883.2.51.999",
            "value": "4568d121-e405-4e2a-b6b9-de09bd9fb3a0"
          }
        ],
        "address": [
          {
            "city": "Edinburgh",
            "postalCode": "EH9 2",
            "country": "United Kingdom"
          }
        ],
        "text": {
          "status": "generated",
          "div": "<div xmlns=\"http://www.w3.org/1999/xhtml\">Provider Organization: Royal Hospital for Sick Children</div>"
        },
        "name": "Royal Hospital for Sick Children"
      }
    },
    {
      "fullUrl": "urn:uuid:802797a4-cccd-47a4-ab8e-88efd42ab963",
      "resource": {
        "resourceType": "Specimen",
        "id": "802797a4-cccd-47a4-ab8e-88efd42ab963",
        "meta": {
          "profile": [
            "http://hl7.eu/fhir/laboratory/StructureDefinition/Specimen-eu-lab"
          ]
        },
        "collection": {
          "collectedDateTime": "2019-02-01"
        },
        "text": {
          "status": "generated",
          "div": "<div xmlns=\"http://www.w3.org/1999/xhtml\"><table class=\"hl7__eu__lab__report\"><tr><th>Specimen</th><th>Collection Date</th></tr><tr><td>Whole blood specimen (specimen)</td><td><span class=\"nb\">01-Feb-2019</span></td></tr></table></div>"
        },
        "type": {
          "coding": [
            {
              "code": "258580003",
              "system": "http://snomed.info/sct",
              "display": "Whole blood specimen (specimen)"
            }
          ]
        }
      }
    },
    {
      "fullUrl": "urn:uuid:654d3ab2-c853-4e24-b2ff-081be8476f4a",
      "resource": {
        "resourceType": "Specimen",
        "id": "654d3ab2-c853-4e24-b2ff-081be8476f4a",
        "meta": {
          "profile": [
            "http://hl7.eu/fhir/laboratory/StructureDefinition/Specimen-eu-lab"
          ]
        },
        "collection": {
          "collectedDateTime": "2019-02-01"
        },
        "text": {
          "status": "generated",
          "div": "<div xmlns=\"http://www.w3.org/1999/xhtml\"><table class=\"hl7__eu__lab__report\"><tr><th>Specimen</th><th>Collection Date</th></tr><tr><td>Acellular blood (serum or plasma) specimen</td><td><span class=\"nb\">01-Feb-2019</span></td></tr></table></div>"
        },
        "type": {
          "coding": [
            {
              "code": "122592007",
              "system": "http://snomed.info/sct",
              "display": "Acellular blood (serum or plasma) specimen"
            }
          ]
        }
      }
    },
    {
      "fullUrl": "urn:uuid:406e877c-44d6-46bc-87d8-d3e76803391f",
      "resource": {
        "resourceType": "Observation",
        "id": "406e877c-44d6-46bc-87d8-d3e76803391f",
        "meta": {
          "profile": [
            "http://hl7.eu/fhir/laboratory/StructureDefinition/Observation-resultslab-eu-lab"
          ]
        },
        "performer": [
          {
            "display": "The Central European Lab"
          }
        ],
        "category": [
          {
            "coding": [
              {
                "system": "http://terminology.hl7.org/CodeSystem/observation-category",
                "code": "laboratory"
              }
            ]
          }
        ],
        "code": {
          "coding": [
            {
              "code": "4548-4",
              "system": "http://loinc.org",
              "display": "Hemoglobin A1c/Hemoglobin.total in Blood"
            }
          ],
          "text": "Hemoglobin A1c/Hemoglobin.total in Blood"
        },
        "valueQuantity": {
          "system": "http://unitsofmeasure.org",
          "value": 5.9,
          "unit": "%",
          "code": "%"
        },
        "referenceRange": [
          {
            "low": {
              "value": 4,
              "code": "%",
              "system": "http://unitsofmeasure.org"
            }
          },
          {
            "high": {
              "value": 6,
              "code": "%",
              "system": "http://unitsofmeasure.org"
            }
          }
        ],
        "text": {
          "status": "generated",
          "div": "<div xmlns=\"http://www.w3.org/1999/xhtml\"><table class=\"hl7__eu__lab__report\"><tr><th>Test</th><th>02-Feb-2019</th><th>Reference&#xA0;Range</th><th>Unit</th></tr><tr><td>Hemoglobin A1c/Hemoglobin.total in Blood</td><td>5.9</td><td>4 - 6</td><td></td><td>%</td></tr></table></div>"
        },
        "status": "final",
        "subject": {
          "reference": "urn:uuid:ed5ef9fc-721f-4c91-a41b-9da132b354c9",
          "display": "Lydia Ward"
        },
        "effectiveDateTime": "2019-02-01T23:08:09Z",
        "specimen": {
          "reference": "urn:uuid:802797a4-cccd-47a4-ab8e-88efd42ab963"
        }
      }
    },
    {
      "fullUrl": "urn:uuid:6e84e1bf-9f8e-4baa-aa76-4c8b78fa8745",
      "resource": {
        "resourceType": "Observation",
        "id": "6e84e1bf-9f8e-4baa-aa76-4c8b78fa8745",
        "meta": {
          "profile": [
            "http://hl7.eu/fhir/laboratory/StructureDefinition/Observation-resultslab-eu-lab"
          ]
        },
        "performer": [
          {
            "display": "The Central European Lab"
          }
        ],
        "category": [
          {
            "coding": [
              {
                "system": "http://terminology.hl7.org/CodeSystem/observation-category",
                "code": "laboratory"
              }
            ]
          }
        ],
        "code": {
          "coding": [
            {
              "code": "2339-0",
              "system": "http://loinc.org",
              "display": "Glucose [Mass/volume] in Blood"
            }
          ],
          "text": "Glucose [Mass/volume] in Blood"
        },
        "valueQuantity": {
          "system": "http://unitsofmeasure.org",
          "value": 64.9,
          "unit": "mg/dL",
          "code": "mg/dL"
        },
        "referenceRange": [
          {
            "low": {
              "value": 70,
              "code": "mg/dL",
              "system": "http://unitsofmeasure.org"
            }
          },
          {
            "high": {
              "value": 140,
              "code": "mg/dL",
              "system": "http://unitsofmeasure.org"
            }
          }
        ],
        "interpretation": [
          {
            "coding": [
              {
                "code": "L",
                "system": "http://terminology.hl7.org/CodeSystem/v3-ObservationInterpretation",
                "display": "Low"
              }
            ]
          }
        ],
        "text": {
          "status": "generated",
          "div": "<div xmlns=\"http://www.w3.org/1999/xhtml\"><table class=\"hl7__eu__lab__report\"><tr><th>Test</th><th>02-Feb-2019</th><th>Reference&#xA0;Range</th><th>Unit</th></tr><tr><td>Glucose [Mass/volume] in Blood</td><td>64.9</td><td>70 - 140</td><td>L</td><td>mg/dL</td></tr></table></div>"
        },
        "status": "final",
        "subject": {
          "reference": "urn:uuid:ed5ef9fc-721f-4c91-a41b-9da132b354c9",
          "display": "Lydia Ward"
        },
        "effectiveDateTime": "2019-02-01T23:08:09Z",
        "specimen": {
          "reference": "urn:uuid:802797a4-cccd-47a4-ab8e-88efd42ab963"
        }
      }
    },
    {
      "fullUrl": "urn:uuid:a86982b1-4db5-43ff-a90f-8e5bb2385e09",
      "resource": {
        "resourceType": "Observation",
        "id": "a86982b1-4db5-43ff-a90f-8e5bb2385e09",
        "meta": {
          "profile": [
            "http://hl7.eu/fhir/laboratory/StructureDefinition/Observation-resultslab-eu-lab"
          ]
        },
        "performer": [
          {
            "display": "The Central European Lab"
          }
        ],
        "category": [
          {
            "coding": [
              {
                "system": "http://terminology.hl7.org/CodeSystem/observation-category",
                "code": "laboratory"
              }
            ]
          }
        ],
        "code": {
          "coding": [
            {
              "code": "6299-2",
              "system": "http://loinc.org",
              "display": "Urea nitrogen [Mass/volume] in Blood"
            }
          ],
          "text": "Urea nitrogen [Mass/volume] in Blood"
        },
        "valueQuantity": {
          "system": "http://unitsofmeasure.org",
          "value": 16.2,
          "unit": "mg/dL",
          "code": "mg/dL"
        },
        "referenceRange": [
          {
            "low": {
              "value": 7,
              "code": "mg/dL",
              "system": "http://unitsofmeasure.org"
            }
          },
          {
            "high": {
              "value": 45,
              "code": "mg/dL",
              "system": "http://unitsofmeasure.org"
            }
          }
        ],
        "text": {
          "status": "generated",
          "div": "<div xmlns=\"http://www.w3.org/1999/xhtml\"><table class=\"hl7__eu__lab__report\"><tr><th>Test</th><th>02-Feb-2019</th><th>Reference&#xA0;Range</th><th>Unit</th></tr><tr><td>Urea nitrogen [Mass/volume] in Blood</td><td>16.2</td><td>7 - 45</td><td></td><td>mg/dL</td></tr></table></div>"
        },
        "status": "final",
        "subject": {
          "reference": "urn:uuid:ed5ef9fc-721f-4c91-a41b-9da132b354c9",
          "display": "Lydia Ward"
        },
        "effectiveDateTime": "2019-02-01T23:08:09Z",
        "specimen": {
          "reference": "urn:uuid:802797a4-cccd-47a4-ab8e-88efd42ab963"
        }
      }
    },
    {
      "fullUrl": "urn:uuid:3037affb-c02d-4dc3-bc15-e75637b1c33b",
      "resource": {
        "resourceType": "Observation",
        "id": "3037affb-c02d-4dc3-bc15-e75637b1c33b",
        "meta": {
          "profile": [
            "http://hl7.eu/fhir/laboratory/StructureDefinition/Observation-resultslab-eu-lab"
          ]
        },
        "performer": [
          {
            "display": "The Central European Lab"
          }
        ],
        "category": [
          {
            "coding": [
              {
                "system": "http://terminology.hl7.org/CodeSystem/observation-category",
                "code": "laboratory"
              }
            ]
          }
        ],
        "code": {
          "coding": [
            {
              "code": "38483-4",
              "system": "http://loinc.org",
              "display": "Creatinine [Mass/volume] in Blood"
            }
          ],
          "text": "Creatinine [Mass/volume] in Blood"
        },
        "valueQuantity": {
          "system": "http://unitsofmeasure.org",
          "value": 0.8,
          "unit": "mg/dL",
          "code": "mg/dL"
        },
        "referenceRange": [
          {
            "low": {
              "value": 0.6,
              "code": "mg/dL",
              "system": "http://unitsofmeasure.org"
            }
          },
          {
            "high": {
              "value": 1.1,
              "code": "mg/dL",
              "system": "http://unitsofmeasure.org"
            }
          }
        ],
        "text": {
          "status": "generated",
          "div": "<div xmlns=\"http://www.w3.org/1999/xhtml\"><table class=\"hl7__eu__lab__report\"><tr><th>Test</th><th>02-Feb-2019</th><th>Reference&#xA0;Range</th><th>Unit</th></tr><tr><td>Creatinine [Mass/volume] in Blood</td><td>0.8</td><td>0.6 - 1.1</td><td></td><td>mg/dL</td></tr></table></div>"
        },
        "status": "final",
        "subject": {
          "reference": "urn:uuid:ed5ef9fc-721f-4c91-a41b-9da132b354c9",
          "display": "Lydia Ward"
        },
        "effectiveDateTime": "2019-02-01T23:08:09Z",
        "specimen": {
          "reference": "urn:uuid:802797a4-cccd-47a4-ab8e-88efd42ab963"
        }
      }
    },
    {
      "fullUrl": "urn:uuid:65ba575c-99fd-49f9-85ab-d28b35b6dd20",
      "resource": {
        "resourceType": "Observation",
        "id": "65ba575c-99fd-49f9-85ab-d28b35b6dd20",
        "meta": {
          "profile": [
            "http://hl7.eu/fhir/laboratory/StructureDefinition/Observation-resultslab-eu-lab"
          ]
        },
        "performer": [
          {
            "display": "The Central European Lab"
          }
        ],
        "category": [
          {
            "coding": [
              {
                "system": "http://terminology.hl7.org/CodeSystem/observation-category",
                "code": "laboratory"
              }
            ]
          }
        ],
        "code": {
          "coding": [
            {
              "code": "49765-1",
              "system": "http://loinc.org",
              "display": "Calcium [Mass/volume] in Blood"
            }
          ],
          "text": "Calcium [Mass/volume] in Blood"
        },
        "valueQuantity": {
          "system": "http://unitsofmeasure.org",
          "value": 8.8,
          "unit": "mg/dL",
          "code": "mg/dL"
        },
        "referenceRange": [
          {
            "low": {
              "value": 8.5,
              "code": "mg/dL",
              "system": "http://unitsofmeasure.org"
            }
          },
          {
            "high": {
              "value": 10.5,
              "code": "mg/dL",
              "system": "http://unitsofmeasure.org"
            }
          }
        ],
        "text": {
          "status": "generated",
          "div": "<div xmlns=\"http://www.w3.org/1999/xhtml\"><table class=\"hl7__eu__lab__report\"><tr><th>Test</th><th>02-Feb-2019</th><th>Reference&#xA0;Range</th><th>Unit</th></tr><tr><td>Calcium [Mass/volume] in Blood</td><td>8.8</td><td>8.5 - 10.5</td><td></td><td>mg/dL</td></tr></table></div>"
        },
        "status": "final",
        "subject": {
          "reference": "urn:uuid:ed5ef9fc-721f-4c91-a41b-9da132b354c9",
          "display": "Lydia Ward"
        },
        "effectiveDateTime": "2019-02-01T23:08:09Z",
        "specimen": {
          "reference": "urn:uuid:802797a4-cccd-47a4-ab8e-88efd42ab963"
        }
      }
    },
    {
      "fullUrl": "urn:uuid:feb389ae-9520-45d0-b9fc-741b03cece9b",
      "resource": {
        "resourceType": "Observation",
        "id": "feb389ae-9520-45d0-b9fc-741b03cece9b",
        "meta": {
          "profile": [
            "http://hl7.eu/fhir/laboratory/StructureDefinition/Observation-resultslab-eu-lab"
          ]
        },
        "performer": [
          {
            "display": "The Central European Lab"
          }
        ],
        "category": [
          {
            "coding": [
              {
                "system": "http://terminology.hl7.org/CodeSystem/observation-category",
                "code": "laboratory"
              }
            ]
          }
        ],
        "code": {
          "coding": [
            {
              "code": "2947-0",
              "system": "http://loinc.org",
              "display": "Sodium [Moles/volume] in Blood"
            }
          ],
          "text": "Sodium [Moles/volume] in Blood"
        },
        "valueQuantity": {
          "system": "http://unitsofmeasure.org",
          "value": 142.7,
          "unit": "mmol/L",
          "code": "mmol/L"
        },
        "referenceRange": [
          {
            "low": {
              "value": 135,
              "code": "mmol/L",
              "system": "http://unitsofmeasure.org"
            }
          },
          {
            "high": {
              "value": 145,
              "code": "mmol/L",
              "system": "http://unitsofmeasure.org"
            }
          }
        ],
        "text": {
          "status": "generated",
          "div": "<div xmlns=\"http://www.w3.org/1999/xhtml\"><table class=\"hl7__eu__lab__report\"><tr><th>Test</th><th>02-Feb-2019</th><th>Reference&#xA0;Range</th><th>Unit</th></tr><tr><td>Sodium [Moles/volume] in Blood</td><td>142.7</td><td>135 - 145</td><td></td><td>mmol/L</td></tr></table></div>"
        },
        "status": "final",
        "subject": {
          "reference": "urn:uuid:ed5ef9fc-721f-4c91-a41b-9da132b354c9",
          "display": "Lydia Ward"
        },
        "effectiveDateTime": "2019-02-01T23:08:09Z",
        "specimen": {
          "reference": "urn:uuid:802797a4-cccd-47a4-ab8e-88efd42ab963"
        }
      }
    },
    {
      "fullUrl": "urn:uuid:174a32e2-d572-4e05-aa03-08521af515f3",
      "resource": {
        "resourceType": "Observation",
        "id": "174a32e2-d572-4e05-aa03-08521af515f3",
        "meta": {
          "profile": [
            "http://hl7.eu/fhir/laboratory/StructureDefinition/Observation-resultslab-eu-lab"
          ]
        },
        "performer": [
          {
            "display": "The Central European Lab"
          }
        ],
        "category": [
          {
            "coding": [
              {
                "system": "http://terminology.hl7.org/CodeSystem/observation-category",
                "code": "laboratory"
              }
            ]
          }
        ],
        "code": {
          "coding": [
            {
              "code": "6298-4",
              "system": "http://loinc.org",
              "display": "Potassium [Moles/volume] in Blood"
            }
          ],
          "text": "Potassium [Moles/volume] in Blood"
        },
        "valueQuantity": {
          "system": "http://unitsofmeasure.org",
          "value": 4,
          "unit": "mmol/L",
          "code": "mmol/L"
        },
        "referenceRange": [
          {
            "low": {
              "value": 3.5,
              "code": "mmol/L",
              "system": "http://unitsofmeasure.org"
            }
          },
          {
            "high": {
              "value": 5.1,
              "code": "mmol/L",
              "system": "http://unitsofmeasure.org"
            }
          }
        ],
        "text": {
          "status": "generated",
          "div": "<div xmlns=\"http://www.w3.org/1999/xhtml\"><table class=\"hl7__eu__lab__report\"><tr><th>Test</th><th>02-Feb-2019</th><th>Reference&#xA0;Range</th><th>Unit</th></tr><tr><td>Potassium [Moles/volume] in Blood</td><td>4.0</td><td>3.5 - 5.1</td><td></td><td>mmol/L</td></tr></table></div>"
        },
        "status": "final",
        "subject": {
          "reference": "urn:uuid:ed5ef9fc-721f-4c91-a41b-9da132b354c9",
          "display": "Lydia Ward"
        },
        "effectiveDateTime": "2019-02-01T23:08:09Z",
        "specimen": {
          "reference": "urn:uuid:802797a4-cccd-47a4-ab8e-88efd42ab963"
        }
      }
    },
    {
      "fullUrl": "urn:uuid:78b82773-2568-4cf0-9b82-829f9cf925ce",
      "resource": {
        "resourceType": "Observation",
        "id": "78b82773-2568-4cf0-9b82-829f9cf925ce",
        "meta": {
          "profile": [
            "http://hl7.eu/fhir/laboratory/StructureDefinition/Observation-resultslab-eu-lab"
          ]
        },
        "performer": [
          {
            "display": "The Central European Lab"
          }
        ],
        "category": [
          {
            "coding": [
              {
                "system": "http://terminology.hl7.org/CodeSystem/observation-category",
                "code": "laboratory"
              }
            ]
          }
        ],
        "code": {
          "coding": [
            {
              "code": "2069-3",
              "system": "http://loinc.org",
              "display": "Chloride [Moles/volume] in Blood"
            }
          ],
          "text": "Chloride [Moles/volume] in Blood"
        },
        "valueQuantity": {
          "system": "http://unitsofmeasure.org",
          "value": 102.5,
          "unit": "mmol/L",
          "code": "mmol/L"
        },
        "referenceRange": [
          {
            "low": {
              "value": 98,
              "code": "mmol/L",
              "system": "http://unitsofmeasure.org"
            }
          },
          {
            "high": {
              "value": 107,
              "code": "mmol/L",
              "system": "http://unitsofmeasure.org"
            }
          }
        ],
        "text": {
          "status": "generated",
          "div": "<div xmlns=\"http://www.w3.org/1999/xhtml\"><table class=\"hl7__eu__lab__report\"><tr><th>Test</th><th>02-Feb-2019</th><th>Reference&#xA0;Range</th><th>Unit</th></tr><tr><td>Chloride [Moles/volume] in Blood</td><td>102.5</td><td>98 - 107</td><td></td><td>mmol/L</td></tr></table></div>"
        },
        "status": "final",
        "subject": {
          "reference": "urn:uuid:ed5ef9fc-721f-4c91-a41b-9da132b354c9",
          "display": "Lydia Ward"
        },
        "effectiveDateTime": "2019-02-01T23:08:09Z",
        "specimen": {
          "reference": "urn:uuid:802797a4-cccd-47a4-ab8e-88efd42ab963"
        }
      }
    },
    {
      "fullUrl": "urn:uuid:206d8656-0f69-4c7b-bb1f-aeceda5bc7a9",
      "resource": {
        "resourceType": "Observation",
        "id": "206d8656-0f69-4c7b-bb1f-aeceda5bc7a9",
        "meta": {
          "profile": [
            "http://hl7.eu/fhir/laboratory/StructureDefinition/Observation-resultslab-eu-lab"
          ]
        },
        "performer": [
          {
            "display": "The Central European Lab"
          }
        ],
        "category": [
          {
            "coding": [
              {
                "system": "http://terminology.hl7.org/CodeSystem/observation-category",
                "code": "laboratory"
              }
            ]
          }
        ],
        "code": {
          "coding": [
            {
              "code": "20565-8",
              "system": "http://loinc.org",
              "display": "Carbon dioxide, total [Moles/volume] in Blood"
            }
          ],
          "text": "Carbon dioxide, total [Moles/volume] in Blood"
        },
        "valueQuantity": {
          "system": "http://unitsofmeasure.org",
          "value": 26.1,
          "unit": "mmol/L",
          "code": "mmol/L"
        },
        "referenceRange": [
          {
            "low": {
              "value": 22,
              "code": "mmol/L",
              "system": "http://unitsofmeasure.org"
            }
          },
          {
            "high": {
              "value": 32,
              "code": "mmol/L",
              "system": "http://unitsofmeasure.org"
            }
          }
        ],
        "text": {
          "status": "generated",
          "div": "<div xmlns=\"http://www.w3.org/1999/xhtml\"><table class=\"hl7__eu__lab__report\"><tr><th>Test</th><th>02-Feb-2019</th><th>Reference&#xA0;Range</th><th>Unit</th></tr><tr><td>Carbon dioxide, total [Moles/volume] in Blood</td><td>26.1</td><td>22 - 32</td><td></td><td>mmol/L</td></tr></table></div>"
        },
        "status": "final",
        "subject": {
          "reference": "urn:uuid:ed5ef9fc-721f-4c91-a41b-9da132b354c9",
          "display": "Lydia Ward"
        },
        "effectiveDateTime": "2019-02-01T23:08:09Z",
        "specimen": {
          "reference": "urn:uuid:802797a4-cccd-47a4-ab8e-88efd42ab963"
        }
      }
    },
    {
      "fullUrl": "urn:uuid:a3b0cb88-bbd6-48be-9c24-4bdca551e2a0",
      "resource": {
        "resourceType": "Observation",
        "id": "a3b0cb88-bbd6-48be-9c24-4bdca551e2a0",
        "meta": {
          "profile": [
            "http://hl7.eu/fhir/laboratory/StructureDefinition/Observation-resultslab-eu-lab"
          ]
        },
        "performer": [
          {
            "display": "The Central European Lab"
          }
        ],
        "category": [
          {
            "coding": [
              {
                "system": "http://terminology.hl7.org/CodeSystem/observation-category",
                "code": "laboratory"
              }
            ]
          }
        ],
        "code": {
          "coding": [
            {
              "code": "2093-3",
              "system": "http://loinc.org",
              "display": "Cholesterol [Mass/volume] in Serum or Plasma"
            }
          ],
          "text": "Cholesterol [Mass/volume] in Serum or Plasma"
        },
        "valueQuantity": {
          "system": "http://unitsofmeasure.org",
          "value": 227.7,
          "unit": "mg/dL",
          "code": "mg/dL"
        },
        "referenceRange": [
          {
            "low": {
              "value": 125,
              "code": "mg/dL",
              "system": "http://unitsofmeasure.org"
            }
          },
          {
            "high": {
              "value": 200,
              "code": "mg/dL",
              "system": "http://unitsofmeasure.org"
            }
          }
        ],
        "interpretation": [
          {
            "coding": [
              {
                "code": "H",
                "system": "http://terminology.hl7.org/CodeSystem/v3-ObservationInterpretation",
                "display": "High"
              }
            ]
          }
        ],
        "text": {
          "status": "generated",
          "div": "<div xmlns=\"http://www.w3.org/1999/xhtml\"><table class=\"hl7__eu__lab__report\"><tr><th>Test</th><th>02-Feb-2019</th><th>Reference&#xA0;Range</th><th>Unit</th></tr><tr><td>Cholesterol [Mass/volume] in Serum or Plasma</td><td>227.7</td><td>125 - 200</td><td>H</td><td>mg/dL</td></tr></table></div>"
        },
        "status": "final",
        "subject": {
          "reference": "urn:uuid:ed5ef9fc-721f-4c91-a41b-9da132b354c9",
          "display": "Lydia Ward"
        },
        "effectiveDateTime": "2019-02-01T23:08:09Z",
        "specimen": {
          "reference": "urn:uuid:654d3ab2-c853-4e24-b2ff-081be8476f4a"
        }
      }
    },
    {
      "fullUrl": "urn:uuid:bf30f792-9fd8-478d-856e-908ead7bc3b2",
      "resource": {
        "resourceType": "Observation",
        "id": "bf30f792-9fd8-478d-856e-908ead7bc3b2",
        "meta": {
          "profile": [
            "http://hl7.eu/fhir/laboratory/StructureDefinition/Observation-resultslab-eu-lab"
          ]
        },
        "performer": [
          {
            "display": "The Central European Lab"
          }
        ],
        "category": [
          {
            "coding": [
              {
                "system": "http://terminology.hl7.org/CodeSystem/observation-category",
                "code": "laboratory"
              }
            ]
          }
        ],
        "code": {
          "coding": [
            {
              "code": "2571-8",
              "system": "http://loinc.org",
              "display": "Triglyceride [Mass/volume] in Serum or Plasma"
            }
          ],
          "text": "Triglyceride [Mass/volume] in Serum or Plasma"
        },
        "valueQuantity": {
          "system": "http://unitsofmeasure.org",
          "value": 124.8,
          "unit": "mg/dL",
          "code": "mg/dL"
        },
        "referenceRange": [
          {
            "low": {
              "value": 0,
              "code": "mg/dL",
              "system": "http://unitsofmeasure.org"
            }
          },
          {
            "high": {
              "value": 150,
              "code": "mg/dL",
              "system": "http://unitsofmeasure.org"
            }
          }
        ],
        "text": {
          "status": "generated",
          "div": "<div xmlns=\"http://www.w3.org/1999/xhtml\"><table class=\"hl7__eu__lab__report\"><tr><th>Test</th><th>02-Feb-2019</th><th>Reference&#xA0;Range</th><th>Unit</th></tr><tr><td>Triglyceride [Mass/volume] in Serum or Plasma</td><td>124.8</td><td>0 - 150</td><td></td><td>mg/dL</td></tr></table></div>"
        },
        "status": "final",
        "subject": {
          "reference": "urn:uuid:ed5ef9fc-721f-4c91-a41b-9da132b354c9",
          "display": "Lydia Ward"
        },
        "effectiveDateTime": "2019-02-01T23:08:09Z",
        "specimen": {
          "reference": "urn:uuid:654d3ab2-c853-4e24-b2ff-081be8476f4a"
        }
      }
    },
    {
      "fullUrl": "urn:uuid:9c061b94-9c7f-45c4-813e-84dc03a18d8e",
      "resource": {
        "resourceType": "Observation",
        "id": "9c061b94-9c7f-45c4-813e-84dc03a18d8e",
        "meta": {
          "profile": [
            "http://hl7.eu/fhir/laboratory/StructureDefinition/Observation-resultslab-eu-lab"
          ]
        },
        "performer": [
          {
            "display": "The Central European Lab"
          }
        ],
        "category": [
          {
            "coding": [
              {
                "system": "http://terminology.hl7.org/CodeSystem/observation-category",
                "code": "laboratory"
              }
            ]
          }
        ],
        "code": {
          "coding": [
            {
              "code": "18262-6",
              "system": "http://loinc.org",
              "display": "Cholesterol in LDL [Mass/volume] in Serum or Plasma by Direct assay"
            }
          ],
          "text": "Cholesterol in LDL [Mass/volume] in Serum or Plasma by Direct assay"
        },
        "valueQuantity": {
          "system": "http://unitsofmeasure.org",
          "value": 157.1,
          "unit": "mg/dL",
          "code": "mg/dL"
        },
        "referenceRange": [
          {
            "low": {
              "value": 0,
              "code": "mg/dL",
              "system": "http://unitsofmeasure.org"
            }
          },
          {
            "high": {
              "value": 130,
              "code": "mg/dL",
              "system": "http://unitsofmeasure.org"
            }
          }
        ],
        "interpretation": [
          {
            "coding": [
              {
                "code": "H",
                "system": "http://terminology.hl7.org/CodeSystem/v3-ObservationInterpretation",
                "display": "High"
              }
            ]
          }
        ],
        "text": {
          "status": "generated",
          "div": "<div xmlns=\"http://www.w3.org/1999/xhtml\"><table class=\"hl7__eu__lab__report\"><tr><th>Test</th><th>02-Feb-2019</th><th>Reference&#xA0;Range</th><th>Unit</th></tr><tr><td>Cholesterol in LDL [Mass/volume] in Serum or Plasma by Direct assay</td><td>157.1</td><td>0 - 130</td><td>H</td><td>mg/dL</td></tr></table></div>"
        },
        "status": "final",
        "subject": {
          "reference": "urn:uuid:ed5ef9fc-721f-4c91-a41b-9da132b354c9",
          "display": "Lydia Ward"
        },
        "effectiveDateTime": "2019-02-01T23:08:09Z",
        "specimen": {
          "reference": "urn:uuid:654d3ab2-c853-4e24-b2ff-081be8476f4a"
        }
      }
    },
    {
      "fullUrl": "urn:uuid:065c6160-21e8-44d0-b56a-704e75c7def7",
      "resource": {
        "resourceType": "Observation",
        "id": "065c6160-21e8-44d0-b56a-704e75c7def7",
        "meta": {
          "profile": [
            "http://hl7.eu/fhir/laboratory/StructureDefinition/Observation-resultslab-eu-lab"
          ]
        },
        "performer": [
          {
            "display": "The Central European Lab"
          }
        ],
        "category": [
          {
            "coding": [
              {
                "system": "http://terminology.hl7.org/CodeSystem/observation-category",
                "code": "laboratory"
              }
            ]
          }
        ],
        "code": {
          "coding": [
            {
              "code": "2085-9",
              "system": "http://loinc.org",
              "display": "Cholesterol in HDL [Mass/volume] in Serum or Plasma"
            }
          ],
          "text": "Cholesterol in HDL [Mass/volume] in Serum or Plasma"
        },
        "valueQuantity": {
          "system": "http://unitsofmeasure.org",
          "value": 45.6,
          "unit": "mg/dL",
          "code": "mg/dL"
        },
        "referenceRange": [
          {
            "low": {
              "value": 40,
              "code": "mg/dL",
              "system": "http://unitsofmeasure.org"
            }
          },
          {
            "high": {
              "value": 60,
              "code": "mg/dL",
              "system": "http://unitsofmeasure.org"
            }
          }
        ],
        "text": {
          "status": "generated",
          "div": "<div xmlns=\"http://www.w3.org/1999/xhtml\"><table class=\"hl7__eu__lab__report\"><tr><th>Test</th><th>02-Feb-2019</th><th>Reference&#xA0;Range</th><th>Unit</th></tr><tr><td>Cholesterol in HDL [Mass/volume] in Serum or Plasma</td><td>45.6</td><td>40 - 60</td><td></td><td>mg/dL</td></tr></table></div>"
        },
        "status": "final",
        "subject": {
          "reference": "urn:uuid:ed5ef9fc-721f-4c91-a41b-9da132b354c9",
          "display": "Lydia Ward"
        },
        "effectiveDateTime": "2019-02-01T23:08:09Z",
        "specimen": {
          "reference": "urn:uuid:654d3ab2-c853-4e24-b2ff-081be8476f4a"
        }
      }
    },
    {
      "fullUrl": "urn:uuid:7939ba53-10cd-4493-af54-abb30870bcb0",
      "resource": {
        "resourceType": "Device",
        "id": "7939ba53-10cd-4493-af54-abb30870bcb0",
        "deviceName": [
          {
            "name": "SYNDERAI Synthetic Generator",
            "type": "manufacturer-name"
          }
        ],
        "version": [
          {
            "value": "5.0"
          }
        ],
        "text": {
          "status": "generated",
          "div": "<div xmlns=\"http://www.w3.org/1999/xhtml\">SYNDERAI Synthetic Generator v5.0</div>"
        },
        "status": "active\"",
        "distinctIdentifier": "synderai-generator-50",
        "manufacturer": "SYNDERAI Project"
      }
    },
    {
      "fullUrl": "urn:uuid:e0c9eff9-df3a-4787-a682-869b3baa7f7d",
      "resource": {
        "resourceType": "Provenance",
        "id": "e0c9eff9-df3a-4787-a682-869b3baa7f7d",
        "target": [
          {
            "reference": "Patient/ed5ef9fc-721f-4c91-a41b-9da132b354c9"
          },
          {
            "reference": "Bundle/176c2c96-acd6-4b8c-a256-40a8e0ce29f8"
          },
          {
            "reference": "Composition/7069b633-ad28-49e1-8493-48207af30491"
          },
          {
            "reference": "PractitionerRole/112ecffa-0e90-4442-9299-b252046fd958"
          },
          {
            "reference": "Practitioner/657c7d02-1102-4edd-91df-893d76855c70"
          },
          {
            "reference": "PractitionerRole/d4e69c2a-70b6-4377-b511-52cd1bfeb027"
          },
          {
            "reference": "Organization/5db142c7-d5d1-42b1-bb32-01c57a025779"
          }
        ],
        "activity": {
          "text": "Synthetic Example Data Generation"
        },
        "policy": [
          "https://synderai.net/synderai-synthetic-data-policy"
        ],
        "agent": [
          {
            "type": {
              "text": "author"
            },
            "who": {
              "reference": "Device/7939ba53-10cd-4493-af54-abb30870bcb0"
            }
          }
        ],
        "reason": [
          {
            "text": "Interoperability Testing and Training (non-clinical use)"
          }
        ],
        "text": {
          "status": "generated",
          "div": "<div xmlns=\"http://www.w3.org/1999/xhtml\">Provenance for SYNDERAI Synthetic Example Data Resource</div>"
        },
        "recorded": "2019-02-02T00:08:09Z"
      }
    },
    {
      "fullUrl": "urn:uuid:112ecffa-0e90-4442-9299-b252046fd958",
      "resource": {
        "resourceType": "PractitionerRole",
        "id": "112ecffa-0e90-4442-9299-b252046fd958",
        "meta": {
          "profile": [
            "http://hl7.eu/fhir/base/StructureDefinition/practitionerRole-eu"
          ]
        },
        "text": {
          "status": "generated",
          "div": "<div xmlns=\"http://www.w3.org/1999/xhtml\">Laboratory Role Id: 112ecffa-0e90-4442-9299-b252046fd958</div>"
        },
        "practitioner": {
          "reference": "urn:uuid:657c7d02-1102-4edd-91df-893d76855c70"
        }
      }
    },
    {
      "fullUrl": "urn:uuid:657c7d02-1102-4edd-91df-893d76855c70",
      "resource": {
        "resourceType": "Practitioner",
        "id": "657c7d02-1102-4edd-91df-893d76855c70",
        "meta": {
          "profile": [
            "http://hl7.eu/fhir/base/StructureDefinition/practitioner-eu"
          ]
        },
        "identifier": [
          {
            "assigner": {
              "display": "HL7 Europe"
            },
            "system": "urn:oid:2.16.840.1.113883.2.51.999",
            "value": "3f057f25-f44b-405e-a2d5-630a2e1e5adf"
          }
        ],
        "name": [
          {
            "prefix": [
              "dr"
            ],
            "given": [
              "Ex"
            ],
            "family": "Ample"
          }
        ],
        "address": [
          {
            "line": [
              "Laboratoire Central Europenne",
              "Boulevard du Jardin Botanique 32"
            ],
            "postalCode": "1000",
            "city": "Brussels",
            "country": "Belgium"
          }
        ],
        "text": {
          "status": "generated",
          "div": "<div xmlns=\"http://www.w3.org/1999/xhtml\">Laboratory: Laboratoire Central Europenne, 1000 Brussels, Belgium</div>"
        }
      }
    }
  ],
  "type": "document",
  "timestamp": "2019-02-02T00:08:09Z"
}
