{
  "resourceType": "Bundle",
  "id": "44d234f9-0f5b-4f06-bde3-b4548cf7dd7f",
  "meta": {
    "profile": [
      "http://hl7.eu/fhir/laboratory/StructureDefinition/Bundle-eu-lab"
    ]
  },
  "identifier": {
    "assigner": {
      "display": "HL7 Europe"
    },
    "system": "urn:oid:2.16.840.1.113883.2.51.999",
    "value": "457f3f7a-cd22-4532-abf0-a1b917ff92cc"
  },
  "entry": [
    {
      "fullUrl": "urn:uuid:f8d355a6-dd07-4f93-a8a1-8962815c41c1",
      "resource": {
        "resourceType": "Composition",
        "id": "f8d355a6-dd07-4f93-a8a1-8962815c41c1",
        "meta": {
          "profile": [
            "http://hl7.eu/fhir/laboratory/StructureDefinition/Composition-eu-lab"
          ]
        },
        "identifier": {
          "assigner": {
            "display": "HL7 Europe"
          },
          "system": "urn:oid:2.16.840.1.113883.2.51.999",
          "value": "d7697c1a-3c15-408c-b22a-21ca7737654b"
        },
        "author": [
          {
            "reference": "urn:uuid:ce60a507-1f0f-4392-97a8-b4d392a8ad68"
          }
        ],
        "category": [
          {
            "coding": [
              {
                "code": "26436-6",
                "system": "http://loinc.org",
                "display": "Laboratory studies (set)"
              }
            ]
          }
        ],
        "type": {
          "coding": [
            {
              "code": "11502-2",
              "system": "http://loinc.org",
              "display": "Laboratory report"
            }
          ],
          "text": "Laboratory Report"
        },
        "section": [
          {
            "code": {
              "coding": [
                {
                  "code": "26436-6",
                  "system": "http://loinc.org",
                  "display": "Laboratory studies (set)"
                }
              ],
              "text": "Laboratory studies"
            },
            "section": [
              {
                "code": {
                  "coding": [
                    {
                      "code": "$18719-5",
                      "system": "http://loinc.org",
                      "display": "Chemistry studies (set)"
                    }
                  ],
                  "text": "Chemistry"
                },
                "entry": [
                  {
                    "reference": "urn:uuid:fcf4453d-ec1a-4ac7-9232-1ae1118043e7"
                  },
                  {
                    "reference": "urn:uuid:07f51563-6db5-441b-a3c5-d5e46d627f33"
                  },
                  {
                    "reference": "urn:uuid:db83b92b-a562-41a8-b86e-40747c024a9b"
                  },
                  {
                    "reference": "urn:uuid:0989c637-ad5a-4cc1-bbda-8be3aa5555ee"
                  },
                  {
                    "reference": "urn:uuid:cb7ed25a-89c2-4712-8a59-dd2469dcc843"
                  },
                  {
                    "reference": "urn:uuid:42bcfbbf-ce1d-480b-be3f-44fb22430f70"
                  },
                  {
                    "reference": "urn:uuid:52f2f844-118b-4cd4-b4e4-60952788068e"
                  },
                  {
                    "reference": "urn:uuid:2f4359e4-b9e1-46a4-a4ed-86aaaa0061ec"
                  },
                  {
                    "reference": "urn:uuid:c59f7fd7-4541-45b2-876f-12e578c3bc54"
                  },
                  {
                    "reference": "urn:uuid:d986355b-3185-4f50-a0f0-bd18c948035d"
                  },
                  {
                    "reference": "urn:uuid:4a3561ab-cdcb-4135-8bac-470ce332d9e8"
                  },
                  {
                    "reference": "urn:uuid:0fa1371c-8b95-4979-92e6-24b8dc524f57"
                  },
                  {
                    "reference": "urn:uuid:d25819d2-2b2c-48d8-be8f-c6221e6841d0"
                  },
                  {
                    "reference": "urn:uuid:40a702cc-eea7-4986-a471-89c60ce513d1"
                  },
                  {
                    "reference": "urn:uuid:ee23229a-727b-451c-9541-0dc95583a53d"
                  },
                  {
                    "reference": "urn:uuid:5b053946-ab30-4ea5-a0fb-41edfa5c4bb8"
                  },
                  {
                    "reference": "urn:uuid:fc023a70-9f35-4136-b1b3-077e44f7c60f"
                  },
                  {
                    "reference": "urn:uuid:5f3ee61d-e69a-45ee-862e-a38c911cc38f"
                  }
                ],
                "text": {
                  "status": "generated",
                  "div": "<div xmlns=\"http://www.w3.org/1999/xhtml\"><h3>Chemistry</h3><table class=\"hl7__eu__lab__report\"><thead><tr><th>Test</th><th>07-OCT-2021</th><th>Reference&#xA0;Range</th><th>Unit</th></tr></thead><tbody><tr><td>Glucose [Mass/volume] in Serum or Plasma</td><td>95.4</td><td>70 - 140</td><td>mg/dL</td></tr><tr><td>Urea nitrogen [Mass/volume] in Serum or Plasma</td><td>13.7</td><td>7 - 25</td><td>mg/dL</td></tr><tr><td>Creatinine [Mass/volume] in Serum or Plasma</td><td><strong>2.0 H</strong></td><td>0.9 - 1.3</td><td>mg/dL</td></tr><tr><td>Calcium [Mass/volume] in Serum or Plasma</td><td>9.9</td><td>8.5 - 10.5</td><td>mg/dL</td></tr><tr><td>Sodium [Moles/volume] in Serum or Plasma</td><td>142.3</td><td>135 - 145</td><td>mmol/L</td></tr><tr><td>Potassium [Moles/volume] in Serum or Plasma</td><td>4.5</td><td>3.5 - 5.3</td><td>mmol/L</td></tr><tr><td>Chloride [Moles/volume] in Serum or Plasma</td><td>101.6</td><td>98 - 107</td><td>mmol/L</td></tr><tr><td>Carbon dioxide, total [Moles/volume] in Serum or Plasma</td><td>25.5</td><td>22 - 29</td><td>mmol/L</td></tr><tr><td>Ketones [Presence] in Urine by Test strip</td><td>Urine ketone test = +</td><td></td><td></td></tr><tr><td>Hemoglobin A1c/Hemoglobin.total in Blood</td><td><strong>3.3 L</strong></td><td>4.5 - 6.4</td><td>%</td></tr><tr><td>Glucose [Mass/volume] in Blood</td><td>95.4</td><td>70 - 140</td><td>mg/dL</td></tr><tr><td>Urea nitrogen [Mass/volume] in Blood</td><td>13.7</td><td>7 - 25</td><td>mg/dL</td></tr><tr><td>Creatinine [Mass/volume] in Blood</td><td><strong>1.5 H</strong></td><td>0.9 - 1.3</td><td>mg/dL</td></tr><tr><td>Calcium [Mass/volume] in Blood</td><td>9.9</td><td>8.6 - 10.2</td><td>mg/dL</td></tr><tr><td>Sodium [Moles/volume] in Blood</td><td>142.3</td><td>135 - 145</td><td>mmol/L</td></tr><tr><td>Potassium [Moles/volume] in Blood</td><td>4.5</td><td>3.5 - 5.1</td><td>mmol/L</td></tr><tr><td>Chloride [Moles/volume] in Blood</td><td>101.6</td><td>98 - 108</td><td>mmol/L</td></tr><tr><td>Carbon dioxide, total [Moles/volume] in Blood</td><td>25.5</td><td>22 - 32</td><td>mmol/L</td></tr></tbody></table></div>"
                },
                "title": "Chemistry"
              },
              {
                "code": {
                  "coding": [
                    {
                      "code": "$18729-4",
                      "system": "http://loinc.org",
                      "display": "Urinalysis studies (set)"
                    }
                  ],
                  "text": "Urinalysis"
                },
                "entry": [
                  {
                    "reference": "urn:uuid:f11cc73c-8656-48a3-8799-aeebcb86160e"
                  },
                  {
                    "reference": "urn:uuid:e55d665e-d338-4b25-9a95-d7d26000d8a4"
                  },
                  {
                    "reference": "urn:uuid:1553fa84-7efc-4bc8-9395-9216210a5f7c"
                  },
                  {
                    "reference": "urn:uuid:5eba961b-e957-42e4-bbab-202f64353af0"
                  },
                  {
                    "reference": "urn:uuid:36e7ed16-5a00-4fd1-bba0-66e27565e680"
                  },
                  {
                    "reference": "urn:uuid:153e00be-b540-4c6d-aa9d-d43da510ead4"
                  },
                  {
                    "reference": "urn:uuid:534c6420-276b-48b3-a03a-85be6836addb"
                  },
                  {
                    "reference": "urn:uuid:61a69ef0-7f2e-4f7b-b289-2b441ba20077"
                  },
                  {
                    "reference": "urn:uuid:c69e5456-fa83-40a4-aea2-a6af73df0130"
                  },
                  {
                    "reference": "urn:uuid:679ca886-1d9c-4212-a35a-3c409a242fcb"
                  },
                  {
                    "reference": "urn:uuid:5c25defa-f0c5-4398-b7fa-535a08d77853"
                  },
                  {
                    "reference": "urn:uuid:a005650c-3915-49f3-8bb2-e3dc5845283e"
                  }
                ],
                "text": {
                  "status": "generated",
                  "div": "<div xmlns=\"http://www.w3.org/1999/xhtml\"><h3>Urinalysis</h3><table class=\"hl7__eu__lab__report\"><thead><tr><th>Test</th><th>07-OCT-2021</th><th>Reference&#xA0;Range</th><th>Unit</th></tr></thead><tbody><tr><td>Glucose [Mass/volume] in Urine by Test strip</td><td><strong>1.3 H</strong></td><td>0.8 - 0</td><td>mg/dL</td></tr><tr><td>Glucose [Presence] in Urine by Test strip</td><td>++</td><td></td><td></td></tr><tr><td>Bilirubin.total [Mass/volume] in Urine by Test strip</td><td>1.2</td><td>0.2 - 1.5</td><td>mg/dL</td></tr><tr><td>Bilirubin.total [Presence] in Urine by Test strip</td><td>Finding of bilirubin in urine</td><td></td><td></td></tr><tr><td>Ketones [Mass/volume] in Urine by Test strip</td><td><strong>4.1 H</strong></td><td>0 - 4</td><td>mg/dL</td></tr><tr><td>Specific gravity of Urine by Test strip</td><td><strong>1.0 L</strong></td><td>1.01 - 1.03</td><td>{nominal}</td></tr><tr><td>pH of Urine by Test strip</td><td>6.3</td><td>4.5 - 7.5</td><td>pH</td></tr><tr><td>Protein [Mass/volume] in Urine by Test strip</td><td><strong>306.8 H</strong></td><td>0 - 150</td><td>mg/dL</td></tr><tr><td>Protein [Presence] in Urine by Test strip</td><td>Urine protein test = ++</td><td></td><td></td></tr><tr><td>Nitrite [Presence] in Urine by Test strip</td><td>Urine nitrite negative</td><td></td><td></td></tr><tr><td>Hemoglobin [Presence] in Urine by Test strip</td><td>Urine blood test = negative</td><td></td><td></td></tr><tr><td>Leukocyte esterase [Presence] in Urine by Test strip</td><td>Urine leukocyte test negative</td><td></td><td></td></tr></tbody></table></div>"
                },
                "title": "Urinalysis"
              },
              {
                "code": {
                  "coding": [
                    {
                      "code": "$LP7846-1",
                      "system": "http://loinc.org",
                      "display": "Specimen information"
                    }
                  ],
                  "text": "Specimen information"
                },
                "entry": [
                  {
                    "reference": "urn:uuid:f7da8300-ded6-47ef-8a56-fb6c33c229df"
                  },
                  {
                    "reference": "urn:uuid:eb86702c-bb2f-4624-b235-3a1b502dc034"
                  },
                  {
                    "reference": "urn:uuid:92d4c1d7-522b-4377-8bf0-64ea4e69190b"
                  },
                  {
                    "reference": "urn:uuid:840f667a-f814-4d7b-8dc1-9fdf4592bd5e"
                  }
                ],
                "text": {
                  "status": "generated",
                  "div": "<div xmlns=\"http://www.w3.org/1999/xhtml\"><h3>Specimen information</h3><table class=\"hl7__eu__lab__report\"><thead><tr><th>Test</th><th>07-OCT-2021</th><th>Specimen</th><th></th></tr></thead><tbody><tr><td>Appearance of Urine</td><td>Cloudy urine</td><td>Urine</td><td></td></tr><tr><td>Odor of Urine</td><td>Urine smell ammoniacal</td><td>Urine</td><td></td></tr><tr><td>Clarity of Urine</td><td>Translucent</td><td>Urine</td><td></td></tr><tr><td>Color of Urine</td><td>Brown color</td><td>Urine</td><td></td></tr></tbody></table></div>"
                },
                "title": "Specimen information"
              }
            ],
            "title": "Laboratory Report"
          },
          {
            "text": {
              "status": "generated",
              "div": "<div xmlns=\"http://www.w3.org/1999/xhtml\"><h3>Annotation</h3><table class=\"hl7__eu__lab__report\"><tr><th>Conclusion and Recommendations based on this report and previous findings known to us</th></tr><tr><td>The patient shows mildly elevated creatinine, suggesting reduced renal function. Urinalysis reveals proteinuria, glucosuria, ketonuria, low specific gravity, and abnormal urine appearance (cloudy, brown, ammoniacal), indicating possible renal impairment and/or urinary tract pathology. Hemoglobin A1c is low, which may reflect anemia or altered red cell turnover rather than glycemic control. No evidence of infection (negative nitrites/leukocytes). Recommend further renal evaluation and clinical correlation for possible nephropathy and underlying causes.</td></tr></table></div>"
            },
            "code": {
              "coding": [
                {
                  "system": "http://loinc.org",
                  "code": "48767-8",
                  "display": "Annotation comment"
                }
              ]
            },
            "title": "Annotation comment"
          }
        ],
        "status": "final",
        "subject": {
          "reference": "urn:uuid:860b6c00-125b-493a-a6fd-a7a4feef1ee9",
          "display": "Pelayo Casal"
        },
        "date": "2021-10-07T07:38:59Z",
        "title": "Laboratory Report",
        "confidentiality": "N"
      }
    },
    {
      "fullUrl": "urn:uuid:30d3847b-fbf4-4747-a058-af56594a45f1",
      "resource": {
        "resourceType": "DiagnosticReport",
        "id": "30d3847b-fbf4-4747-a058-af56594a45f1",
        "meta": {
          "profile": [
            "http://hl7.eu/fhir/laboratory/StructureDefinition/DiagnosticReport-eu-lab"
          ]
        },
        "identifier": [
          {
            "assigner": {
              "display": "HL7 Europe"
            },
            "system": "urn:oid:2.16.840.1.113883.2.51.999",
            "value": "9adf5daf-d1d5-4f8e-bbf3-e2db3e49f118"
          }
        ],
        "extension": [
          {
            "url": "http://hl7.org/fhir/5.0/StructureDefinition/extension-DiagnosticReport.composition",
            "valueReference": {
              "reference": "urn:uuid:d7697c1a-3c15-408c-b22a-21ca7737654b"
            }
          }
        ],
        "category": [
          {
            "coding": [
              {
                "code": "26436-6",
                "system": "http://loinc.org",
                "display": "Laboratory studies (set)"
              }
            ]
          }
        ],
        "specimen": [
          {
            "reference": "urn:uuid:df2bb2f9-d6f7-46e4-9184-3f9b2bdb3fe2"
          },
          {
            "reference": "urn:uuid:06316dfe-ecbd-4de9-a019-f304488c2c09"
          },
          {
            "reference": "urn:uuid:265b796a-9431-4984-88af-7d4ad5bc48e8"
          }
        ],
        "result": [
          {
            "reference": "urn:uuid:fcf4453d-ec1a-4ac7-9232-1ae1118043e7"
          },
          {
            "reference": "urn:uuid:07f51563-6db5-441b-a3c5-d5e46d627f33"
          },
          {
            "reference": "urn:uuid:db83b92b-a562-41a8-b86e-40747c024a9b"
          },
          {
            "reference": "urn:uuid:0989c637-ad5a-4cc1-bbda-8be3aa5555ee"
          },
          {
            "reference": "urn:uuid:cb7ed25a-89c2-4712-8a59-dd2469dcc843"
          },
          {
            "reference": "urn:uuid:42bcfbbf-ce1d-480b-be3f-44fb22430f70"
          },
          {
            "reference": "urn:uuid:52f2f844-118b-4cd4-b4e4-60952788068e"
          },
          {
            "reference": "urn:uuid:2f4359e4-b9e1-46a4-a4ed-86aaaa0061ec"
          },
          {
            "reference": "urn:uuid:f7da8300-ded6-47ef-8a56-fb6c33c229df"
          },
          {
            "reference": "urn:uuid:eb86702c-bb2f-4624-b235-3a1b502dc034"
          },
          {
            "reference": "urn:uuid:92d4c1d7-522b-4377-8bf0-64ea4e69190b"
          },
          {
            "reference": "urn:uuid:840f667a-f814-4d7b-8dc1-9fdf4592bd5e"
          },
          {
            "reference": "urn:uuid:f11cc73c-8656-48a3-8799-aeebcb86160e"
          },
          {
            "reference": "urn:uuid:e55d665e-d338-4b25-9a95-d7d26000d8a4"
          },
          {
            "reference": "urn:uuid:1553fa84-7efc-4bc8-9395-9216210a5f7c"
          },
          {
            "reference": "urn:uuid:5eba961b-e957-42e4-bbab-202f64353af0"
          },
          {
            "reference": "urn:uuid:36e7ed16-5a00-4fd1-bba0-66e27565e680"
          },
          {
            "reference": "urn:uuid:c59f7fd7-4541-45b2-876f-12e578c3bc54"
          },
          {
            "reference": "urn:uuid:153e00be-b540-4c6d-aa9d-d43da510ead4"
          },
          {
            "reference": "urn:uuid:534c6420-276b-48b3-a03a-85be6836addb"
          },
          {
            "reference": "urn:uuid:61a69ef0-7f2e-4f7b-b289-2b441ba20077"
          },
          {
            "reference": "urn:uuid:c69e5456-fa83-40a4-aea2-a6af73df0130"
          },
          {
            "reference": "urn:uuid:679ca886-1d9c-4212-a35a-3c409a242fcb"
          },
          {
            "reference": "urn:uuid:5c25defa-f0c5-4398-b7fa-535a08d77853"
          },
          {
            "reference": "urn:uuid:a005650c-3915-49f3-8bb2-e3dc5845283e"
          },
          {
            "reference": "urn:uuid:d986355b-3185-4f50-a0f0-bd18c948035d"
          },
          {
            "reference": "urn:uuid:4a3561ab-cdcb-4135-8bac-470ce332d9e8"
          },
          {
            "reference": "urn:uuid:0fa1371c-8b95-4979-92e6-24b8dc524f57"
          },
          {
            "reference": "urn:uuid:d25819d2-2b2c-48d8-be8f-c6221e6841d0"
          },
          {
            "reference": "urn:uuid:40a702cc-eea7-4986-a471-89c60ce513d1"
          },
          {
            "reference": "urn:uuid:ee23229a-727b-451c-9541-0dc95583a53d"
          },
          {
            "reference": "urn:uuid:5b053946-ab30-4ea5-a0fb-41edfa5c4bb8"
          },
          {
            "reference": "urn:uuid:fc023a70-9f35-4136-b1b3-077e44f7c60f"
          },
          {
            "reference": "urn:uuid:5f3ee61d-e69a-45ee-862e-a38c911cc38f"
          }
        ],
        "status": "registered",
        "code": {
          "coding": [
            {
              "code": "11502-2",
              "system": "http://loinc.org",
              "display": "Laboratory report"
            }
          ]
        },
        "subject": {
          "reference": "urn:uuid:860b6c00-125b-493a-a6fd-a7a4feef1ee9",
          "display": "Pelayo Casal"
        }
      }
    },
    {
      "fullUrl": "urn:uuid:860b6c00-125b-493a-a6fd-a7a4feef1ee9",
      "resource": {
        "resourceType": "Patient",
        "id": "860b6c00-125b-493a-a6fd-a7a4feef1ee9",
        "meta": {
          "security": [
            {
              "system": "http://terminology.hl7.org/CodeSystem/v3-ActReason",
              "code": "HTEST"
            },
            {
              "system": "http://terminology.hl7.org/CodeSystem/v3-ActReason",
              "code": "TRAIN"
            }
          ],
          "tag": [
            {
              "system": "https://synderai.net/fhir/CodeSystem/tags",
              "code": "synthetic",
              "display": "SYNDERAI Synthetic data"
            }
          ],
          "profile": [
            "http://hl7.eu/fhir/base/StructureDefinition/patient-eu-core"
          ]
        },
        "identifier": [
          {
            "type": {
              "coding": [
                {
                  "code": "PT",
                  "system": "http://terminology.hl7.org/CodeSystem/v2-0203"
                }
              ]
            },
            "system": "http://ec.europa.eu/identifier/eci",
            "value": "7707-510028-7"
          },
          {
            "type": {
              "coding": [
                {
                  "code": "MR",
                  "system": "http://terminology.hl7.org/CodeSystem/v2-0203"
                }
              ]
            },
            "system": "http://local.setting.eu/identifier",
            "value": "d88e82c6-df33-82d2-8538-f8b57da06491"
          }
        ],
        "name": [
          {
            "family": "Casal"
          },
          {
            "given": [
              "Pelayo"
            ]
          },
          {
            "text": "Pelayo Casal"
          }
        ],
        "address": [
          {
            "line": [
              "Callejón de Ignacio Pedrosa 67 Apt. 68 "
            ],
            "use": "home",
            "type": "physical",
            "postalCode": "35001",
            "city": "Las Palmas",
            "country": "Spain"
          }
        ],
        "telecom": [
          {
            "system": "phone",
            "value": "+34 875724898"
          }
        ],
        "extension": [
          {
            "url": "http://hl7.org/fhir/StructureDefinition/patient-nationality",
            "valueCodeableConcept": {
              "coding": [
                {
                  "code": "ES",
                  "system": "http://hl7.org/fhir/ValueSet/country"
                }
              ]
            }
          }
        ],
        "text": {
          "status": "generated",
          "div": "<div xmlns=\"http://www.w3.org/1999/xhtml\"><table class=\"hl7__ips\"><tr><td>Pelayo Casal</td><td>male</td><td>19-Apr-1940</td></tr></table></div>"
        },
        "gender": "male",
        "birthDate": "1940-04-19"
      }
    },
    {
      "fullUrl": "urn:uuid:f53ad46a-da4c-4386-87e3-01923454ac40",
      "resource": {
        "resourceType": "ServiceRequest",
        "id": "f53ad46a-da4c-4386-87e3-01923454ac40",
        "meta": {
          "profile": [
            "http://hl7.eu/fhir/laboratory/StructureDefinition/ServiceRequest-eu-lab"
          ]
        },
        "identifier": [
          {
            "system": "http://example.org",
            "value": "90aaf4a9-0bd4-4539-bd50-1afc05cbf9f2"
          }
        ],
        "specimen": [
          {
            "reference": "urn:uuid:df2bb2f9-d6f7-46e4-9184-3f9b2bdb3fe2"
          },
          {
            "reference": "urn:uuid:06316dfe-ecbd-4de9-a019-f304488c2c09"
          },
          {
            "reference": "urn:uuid:265b796a-9431-4984-88af-7d4ad5bc48e8"
          }
        ],
        "reasonCode": [
          {
            "coding": [
              {
                "code": "431856006",
                "system": "http://snomed.info/sct",
                "display": "Chronic kidney disease stage 2"
              }
            ]
          },
          {
            "coding": [
              {
                "code": "90781000119102",
                "system": "http://snomed.info/sct",
                "display": "Microalbuminuria due to type 2 diabetes mellitus"
              }
            ]
          },
          {
            "coding": [
              {
                "code": "127013003",
                "system": "http://snomed.info/sct",
                "display": "Disorder of kidney due to diabetes mellitus"
              }
            ]
          },
          {
            "coding": [
              {
                "code": "431855005",
                "system": "http://snomed.info/sct",
                "display": "Chronic kidney disease stage 1"
              }
            ]
          },
          {
            "coding": [
              {
                "code": "64859006",
                "system": "http://snomed.info/sct",
                "display": "Osteoporosis"
              }
            ]
          },
          {
            "coding": [
              {
                "code": "414545008",
                "system": "http://snomed.info/sct",
                "display": "Ischemic heart disease"
              }
            ]
          },
          {
            "coding": [
              {
                "code": "237602007",
                "system": "http://snomed.info/sct",
                "display": "Metabolic syndrome X"
              }
            ]
          },
          {
            "coding": [
              {
                "code": "59621000",
                "system": "http://snomed.info/sct",
                "display": "Essential hypertension"
              }
            ]
          },
          {
            "coding": [
              {
                "code": "271737000",
                "system": "http://snomed.info/sct",
                "display": "Anemia"
              }
            ]
          },
          {
            "coding": [
              {
                "code": "15777000",
                "system": "http://snomed.info/sct",
                "display": "Prediabetes"
              }
            ]
          }
        ],
        "status": "active",
        "intent": "order",
        "code": {
          "coding": [
            {
              "code": "108252007",
              "system": "http://snomed.info/sct",
              "display": "Laboratory procedure"
            }
          ]
        },
        "subject": {
          "reference": "urn:uuid:860b6c00-125b-493a-a6fd-a7a4feef1ee9",
          "display": "Pelayo Casal"
        },
        "requester": {
          "reference": "urn:uuid:44894c5c-d1ca-4348-8169-85c912a61fe9"
        }
      }
    },
    {
      "fullUrl": "urn:uuid:44894c5c-d1ca-4348-8169-85c912a61fe9",
      "resource": {
        "resourceType": "PractitionerRole",
        "id": "44894c5c-d1ca-4348-8169-85c912a61fe9",
        "meta": {
          "profile": [
            "http://hl7.eu/fhir/base/StructureDefinition/practitionerRole-eu"
          ]
        },
        "text": {
          "status": "generated",
          "div": "<div xmlns=\"http://www.w3.org/1999/xhtml\">Provider Role Id: 44894c5c-d1ca-4348-8169-85c912a61fe9</div>"
        },
        "organization": {
          "reference": "urn:uuid:384d442f-8e43-4f26-8c2b-57c48ab17375"
        }
      }
    },
    {
      "fullUrl": "urn:uuid:384d442f-8e43-4f26-8c2b-57c48ab17375",
      "resource": {
        "resourceType": "Organization",
        "id": "384d442f-8e43-4f26-8c2b-57c48ab17375",
        "meta": {
          "profile": [
            "http://hl7.eu/fhir/base/StructureDefinition/organization-eu"
          ]
        },
        "identifier": [
          {
            "assigner": {
              "display": "HL7 Europe"
            },
            "system": "urn:oid:2.16.840.1.113883.2.51.999",
            "value": "a3b4e93f-9490-4eb9-866e-8adab936910f"
          }
        ],
        "address": [
          {
            "country": "Spain"
          }
        ],
        "text": {
          "status": "generated",
          "div": "<div xmlns=\"http://www.w3.org/1999/xhtml\">Provider Organization: Centro de Salud de Guanarteme</div>"
        },
        "name": "Centro de Salud de Guanarteme"
      }
    },
    {
      "fullUrl": "urn:uuid:df2bb2f9-d6f7-46e4-9184-3f9b2bdb3fe2",
      "resource": {
        "resourceType": "Specimen",
        "id": "df2bb2f9-d6f7-46e4-9184-3f9b2bdb3fe2",
        "meta": {
          "profile": [
            "http://hl7.eu/fhir/laboratory/StructureDefinition/Specimen-eu-lab"
          ]
        },
        "collection": {
          "collectedDateTime": "2021-10-07"
        },
        "text": {
          "status": "generated",
          "div": "<div xmlns=\"http://www.w3.org/1999/xhtml\"><table class=\"hl7__eu__lab__report\"><tr><th>Specimen</th><th>Collection Date</th></tr><tr><td>Acellular blood (serum or plasma) specimen</td><td><span class=\"nb\">07-Oct-2021</span></td></tr></table></div>"
        },
        "type": {
          "coding": [
            {
              "code": "122592007",
              "system": "http://snomed.info/sct",
              "display": "Acellular blood (serum or plasma) specimen"
            }
          ]
        }
      }
    },
    {
      "fullUrl": "urn:uuid:06316dfe-ecbd-4de9-a019-f304488c2c09",
      "resource": {
        "resourceType": "Specimen",
        "id": "06316dfe-ecbd-4de9-a019-f304488c2c09",
        "meta": {
          "profile": [
            "http://hl7.eu/fhir/laboratory/StructureDefinition/Specimen-eu-lab"
          ]
        },
        "collection": {
          "collectedDateTime": "2021-10-07"
        },
        "text": {
          "status": "generated",
          "div": "<div xmlns=\"http://www.w3.org/1999/xhtml\"><table class=\"hl7__eu__lab__report\"><tr><th>Specimen</th><th>Collection Date</th></tr><tr><td>Urine specimen</td><td><span class=\"nb\">07-Oct-2021</span></td></tr></table></div>"
        },
        "type": {
          "coding": [
            {
              "code": "122575003",
              "system": "http://snomed.info/sct",
              "display": "Urine specimen"
            }
          ]
        }
      }
    },
    {
      "fullUrl": "urn:uuid:265b796a-9431-4984-88af-7d4ad5bc48e8",
      "resource": {
        "resourceType": "Specimen",
        "id": "265b796a-9431-4984-88af-7d4ad5bc48e8",
        "meta": {
          "profile": [
            "http://hl7.eu/fhir/laboratory/StructureDefinition/Specimen-eu-lab"
          ]
        },
        "collection": {
          "collectedDateTime": "2021-10-07"
        },
        "text": {
          "status": "generated",
          "div": "<div xmlns=\"http://www.w3.org/1999/xhtml\"><table class=\"hl7__eu__lab__report\"><tr><th>Specimen</th><th>Collection Date</th></tr><tr><td>Whole blood specimen (specimen)</td><td><span class=\"nb\">07-Oct-2021</span></td></tr></table></div>"
        },
        "type": {
          "coding": [
            {
              "code": "258580003",
              "system": "http://snomed.info/sct",
              "display": "Whole blood specimen (specimen)"
            }
          ]
        }
      }
    },
    {
      "fullUrl": "urn:uuid:fcf4453d-ec1a-4ac7-9232-1ae1118043e7",
      "resource": {
        "resourceType": "Observation",
        "id": "fcf4453d-ec1a-4ac7-9232-1ae1118043e7",
        "meta": {
          "profile": [
            "http://hl7.eu/fhir/laboratory/StructureDefinition/Observation-resultslab-eu-lab"
          ]
        },
        "performer": [
          {
            "display": "The Central European Lab"
          }
        ],
        "category": [
          {
            "coding": [
              {
                "system": "http://terminology.hl7.org/CodeSystem/observation-category",
                "code": "laboratory"
              }
            ]
          }
        ],
        "code": {
          "coding": [
            {
              "code": "2345-7",
              "system": "http://loinc.org",
              "display": "Glucose [Mass/volume] in Serum or Plasma"
            }
          ],
          "text": "Glucose [Mass/volume] in Serum or Plasma"
        },
        "valueQuantity": {
          "system": "http://unitsofmeasure.org",
          "value": 95.4,
          "unit": "mg/dL",
          "code": "mg/dL"
        },
        "referenceRange": [
          {
            "low": {
              "value": 70,
              "code": "mg/dL",
              "system": "http://unitsofmeasure.org"
            }
          },
          {
            "high": {
              "value": 140,
              "code": "mg/dL",
              "system": "http://unitsofmeasure.org"
            }
          }
        ],
        "text": {
          "status": "generated",
          "div": "<div xmlns=\"http://www.w3.org/1999/xhtml\"><table class=\"hl7__eu__lab__report\"><tr><th>Test</th><th>07-Oct-2021</th><th>Reference&#xA0;Range</th><th>Unit</th></tr><tr><td>Glucose [Mass/volume] in Serum or Plasma</td><td>95.4</td><td>70 - 140</td><td></td><td>mg/dL</td></tr></table></div>"
        },
        "status": "final",
        "subject": {
          "reference": "urn:uuid:860b6c00-125b-493a-a6fd-a7a4feef1ee9",
          "display": "Pelayo Casal"
        },
        "effectiveDateTime": "2021-10-07T05:38:59Z",
        "specimen": {
          "reference": "urn:uuid:df2bb2f9-d6f7-46e4-9184-3f9b2bdb3fe2"
        }
      }
    },
    {
      "fullUrl": "urn:uuid:07f51563-6db5-441b-a3c5-d5e46d627f33",
      "resource": {
        "resourceType": "Observation",
        "id": "07f51563-6db5-441b-a3c5-d5e46d627f33",
        "meta": {
          "profile": [
            "http://hl7.eu/fhir/laboratory/StructureDefinition/Observation-resultslab-eu-lab"
          ]
        },
        "performer": [
          {
            "display": "The Central European Lab"
          }
        ],
        "category": [
          {
            "coding": [
              {
                "system": "http://terminology.hl7.org/CodeSystem/observation-category",
                "code": "laboratory"
              }
            ]
          }
        ],
        "code": {
          "coding": [
            {
              "code": "3094-0",
              "system": "http://loinc.org",
              "display": "Urea nitrogen [Mass/volume] in Serum or Plasma"
            }
          ],
          "text": "Urea nitrogen [Mass/volume] in Serum or Plasma"
        },
        "valueQuantity": {
          "system": "http://unitsofmeasure.org",
          "value": 13.7,
          "unit": "mg/dL",
          "code": "mg/dL"
        },
        "referenceRange": [
          {
            "low": {
              "value": 7,
              "code": "mg/dL",
              "system": "http://unitsofmeasure.org"
            }
          },
          {
            "high": {
              "value": 25,
              "code": "mg/dL",
              "system": "http://unitsofmeasure.org"
            }
          }
        ],
        "text": {
          "status": "generated",
          "div": "<div xmlns=\"http://www.w3.org/1999/xhtml\"><table class=\"hl7__eu__lab__report\"><tr><th>Test</th><th>07-Oct-2021</th><th>Reference&#xA0;Range</th><th>Unit</th></tr><tr><td>Urea nitrogen [Mass/volume] in Serum or Plasma</td><td>13.7</td><td>7 - 25</td><td></td><td>mg/dL</td></tr></table></div>"
        },
        "status": "final",
        "subject": {
          "reference": "urn:uuid:860b6c00-125b-493a-a6fd-a7a4feef1ee9",
          "display": "Pelayo Casal"
        },
        "effectiveDateTime": "2021-10-07T05:38:59Z",
        "specimen": {
          "reference": "urn:uuid:df2bb2f9-d6f7-46e4-9184-3f9b2bdb3fe2"
        }
      }
    },
    {
      "fullUrl": "urn:uuid:db83b92b-a562-41a8-b86e-40747c024a9b",
      "resource": {
        "resourceType": "Observation",
        "id": "db83b92b-a562-41a8-b86e-40747c024a9b",
        "meta": {
          "profile": [
            "http://hl7.eu/fhir/laboratory/StructureDefinition/Observation-resultslab-eu-lab"
          ]
        },
        "performer": [
          {
            "display": "The Central European Lab"
          }
        ],
        "category": [
          {
            "coding": [
              {
                "system": "http://terminology.hl7.org/CodeSystem/observation-category",
                "code": "laboratory"
              }
            ]
          }
        ],
        "code": {
          "coding": [
            {
              "code": "2160-0",
              "system": "http://loinc.org",
              "display": "Creatinine [Mass/volume] in Serum or Plasma"
            }
          ],
          "text": "Creatinine [Mass/volume] in Serum or Plasma"
        },
        "valueQuantity": {
          "system": "http://unitsofmeasure.org",
          "value": 2,
          "unit": "mg/dL",
          "code": "mg/dL"
        },
        "referenceRange": [
          {
            "low": {
              "value": 0.9,
              "code": "mg/dL",
              "system": "http://unitsofmeasure.org"
            }
          },
          {
            "high": {
              "value": 1.3,
              "code": "mg/dL",
              "system": "http://unitsofmeasure.org"
            }
          }
        ],
        "interpretation": [
          {
            "coding": [
              {
                "code": "H",
                "system": "http://terminology.hl7.org/CodeSystem/v3-ObservationInterpretation",
                "display": "High"
              }
            ]
          }
        ],
        "text": {
          "status": "generated",
          "div": "<div xmlns=\"http://www.w3.org/1999/xhtml\"><table class=\"hl7__eu__lab__report\"><tr><th>Test</th><th>07-Oct-2021</th><th>Reference&#xA0;Range</th><th>Unit</th></tr><tr><td>Creatinine [Mass/volume] in Serum or Plasma</td><td>2.0</td><td>0.9 - 1.3</td><td>H</td><td>mg/dL</td></tr></table></div>"
        },
        "status": "final",
        "subject": {
          "reference": "urn:uuid:860b6c00-125b-493a-a6fd-a7a4feef1ee9",
          "display": "Pelayo Casal"
        },
        "effectiveDateTime": "2021-10-07T05:38:59Z",
        "specimen": {
          "reference": "urn:uuid:df2bb2f9-d6f7-46e4-9184-3f9b2bdb3fe2"
        }
      }
    },
    {
      "fullUrl": "urn:uuid:0989c637-ad5a-4cc1-bbda-8be3aa5555ee",
      "resource": {
        "resourceType": "Observation",
        "id": "0989c637-ad5a-4cc1-bbda-8be3aa5555ee",
        "meta": {
          "profile": [
            "http://hl7.eu/fhir/laboratory/StructureDefinition/Observation-resultslab-eu-lab"
          ]
        },
        "performer": [
          {
            "display": "The Central European Lab"
          }
        ],
        "category": [
          {
            "coding": [
              {
                "system": "http://terminology.hl7.org/CodeSystem/observation-category",
                "code": "laboratory"
              }
            ]
          }
        ],
        "code": {
          "coding": [
            {
              "code": "17861-6",
              "system": "http://loinc.org",
              "display": "Calcium [Mass/volume] in Serum or Plasma"
            }
          ],
          "text": "Calcium [Mass/volume] in Serum or Plasma"
        },
        "valueQuantity": {
          "system": "http://unitsofmeasure.org",
          "value": 9.9,
          "unit": "mg/dL",
          "code": "mg/dL"
        },
        "referenceRange": [
          {
            "low": {
              "value": 8.5,
              "code": "mg/dL",
              "system": "http://unitsofmeasure.org"
            }
          },
          {
            "high": {
              "value": 10.5,
              "code": "mg/dL",
              "system": "http://unitsofmeasure.org"
            }
          }
        ],
        "text": {
          "status": "generated",
          "div": "<div xmlns=\"http://www.w3.org/1999/xhtml\"><table class=\"hl7__eu__lab__report\"><tr><th>Test</th><th>07-Oct-2021</th><th>Reference&#xA0;Range</th><th>Unit</th></tr><tr><td>Calcium [Mass/volume] in Serum or Plasma</td><td>9.9</td><td>8.5 - 10.5</td><td></td><td>mg/dL</td></tr></table></div>"
        },
        "status": "final",
        "subject": {
          "reference": "urn:uuid:860b6c00-125b-493a-a6fd-a7a4feef1ee9",
          "display": "Pelayo Casal"
        },
        "effectiveDateTime": "2021-10-07T05:38:59Z",
        "specimen": {
          "reference": "urn:uuid:df2bb2f9-d6f7-46e4-9184-3f9b2bdb3fe2"
        }
      }
    },
    {
      "fullUrl": "urn:uuid:cb7ed25a-89c2-4712-8a59-dd2469dcc843",
      "resource": {
        "resourceType": "Observation",
        "id": "cb7ed25a-89c2-4712-8a59-dd2469dcc843",
        "meta": {
          "profile": [
            "http://hl7.eu/fhir/laboratory/StructureDefinition/Observation-resultslab-eu-lab"
          ]
        },
        "performer": [
          {
            "display": "The Central European Lab"
          }
        ],
        "category": [
          {
            "coding": [
              {
                "system": "http://terminology.hl7.org/CodeSystem/observation-category",
                "code": "laboratory"
              }
            ]
          }
        ],
        "code": {
          "coding": [
            {
              "code": "2951-2",
              "system": "http://loinc.org",
              "display": "Sodium [Moles/volume] in Serum or Plasma"
            }
          ],
          "text": "Sodium [Moles/volume] in Serum or Plasma"
        },
        "valueQuantity": {
          "system": "http://unitsofmeasure.org",
          "value": 142.3,
          "unit": "mmol/L",
          "code": "mmol/L"
        },
        "referenceRange": [
          {
            "low": {
              "value": 135,
              "code": "mmol/L",
              "system": "http://unitsofmeasure.org"
            }
          },
          {
            "high": {
              "value": 145,
              "code": "mmol/L",
              "system": "http://unitsofmeasure.org"
            }
          }
        ],
        "text": {
          "status": "generated",
          "div": "<div xmlns=\"http://www.w3.org/1999/xhtml\"><table class=\"hl7__eu__lab__report\"><tr><th>Test</th><th>07-Oct-2021</th><th>Reference&#xA0;Range</th><th>Unit</th></tr><tr><td>Sodium [Moles/volume] in Serum or Plasma</td><td>142.3</td><td>135 - 145</td><td></td><td>mmol/L</td></tr></table></div>"
        },
        "status": "final",
        "subject": {
          "reference": "urn:uuid:860b6c00-125b-493a-a6fd-a7a4feef1ee9",
          "display": "Pelayo Casal"
        },
        "effectiveDateTime": "2021-10-07T05:38:59Z",
        "specimen": {
          "reference": "urn:uuid:df2bb2f9-d6f7-46e4-9184-3f9b2bdb3fe2"
        }
      }
    },
    {
      "fullUrl": "urn:uuid:42bcfbbf-ce1d-480b-be3f-44fb22430f70",
      "resource": {
        "resourceType": "Observation",
        "id": "42bcfbbf-ce1d-480b-be3f-44fb22430f70",
        "meta": {
          "profile": [
            "http://hl7.eu/fhir/laboratory/StructureDefinition/Observation-resultslab-eu-lab"
          ]
        },
        "performer": [
          {
            "display": "The Central European Lab"
          }
        ],
        "category": [
          {
            "coding": [
              {
                "system": "http://terminology.hl7.org/CodeSystem/observation-category",
                "code": "laboratory"
              }
            ]
          }
        ],
        "code": {
          "coding": [
            {
              "code": "2823-3",
              "system": "http://loinc.org",
              "display": "Potassium [Moles/volume] in Serum or Plasma"
            }
          ],
          "text": "Potassium [Moles/volume] in Serum or Plasma"
        },
        "valueQuantity": {
          "system": "http://unitsofmeasure.org",
          "value": 4.5,
          "unit": "mmol/L",
          "code": "mmol/L"
        },
        "referenceRange": [
          {
            "low": {
              "value": 3.5,
              "code": "mmol/L",
              "system": "http://unitsofmeasure.org"
            }
          },
          {
            "high": {
              "value": 5.3,
              "code": "mmol/L",
              "system": "http://unitsofmeasure.org"
            }
          }
        ],
        "text": {
          "status": "generated",
          "div": "<div xmlns=\"http://www.w3.org/1999/xhtml\"><table class=\"hl7__eu__lab__report\"><tr><th>Test</th><th>07-Oct-2021</th><th>Reference&#xA0;Range</th><th>Unit</th></tr><tr><td>Potassium [Moles/volume] in Serum or Plasma</td><td>4.5</td><td>3.5 - 5.3</td><td></td><td>mmol/L</td></tr></table></div>"
        },
        "status": "final",
        "subject": {
          "reference": "urn:uuid:860b6c00-125b-493a-a6fd-a7a4feef1ee9",
          "display": "Pelayo Casal"
        },
        "effectiveDateTime": "2021-10-07T05:38:59Z",
        "specimen": {
          "reference": "urn:uuid:df2bb2f9-d6f7-46e4-9184-3f9b2bdb3fe2"
        }
      }
    },
    {
      "fullUrl": "urn:uuid:52f2f844-118b-4cd4-b4e4-60952788068e",
      "resource": {
        "resourceType": "Observation",
        "id": "52f2f844-118b-4cd4-b4e4-60952788068e",
        "meta": {
          "profile": [
            "http://hl7.eu/fhir/laboratory/StructureDefinition/Observation-resultslab-eu-lab"
          ]
        },
        "performer": [
          {
            "display": "The Central European Lab"
          }
        ],
        "category": [
          {
            "coding": [
              {
                "system": "http://terminology.hl7.org/CodeSystem/observation-category",
                "code": "laboratory"
              }
            ]
          }
        ],
        "code": {
          "coding": [
            {
              "code": "2075-0",
              "system": "http://loinc.org",
              "display": "Chloride [Moles/volume] in Serum or Plasma"
            }
          ],
          "text": "Chloride [Moles/volume] in Serum or Plasma"
        },
        "valueQuantity": {
          "system": "http://unitsofmeasure.org",
          "value": 101.6,
          "unit": "mmol/L",
          "code": "mmol/L"
        },
        "referenceRange": [
          {
            "low": {
              "value": 98,
              "code": "mmol/L",
              "system": "http://unitsofmeasure.org"
            }
          },
          {
            "high": {
              "value": 107,
              "code": "mmol/L",
              "system": "http://unitsofmeasure.org"
            }
          }
        ],
        "text": {
          "status": "generated",
          "div": "<div xmlns=\"http://www.w3.org/1999/xhtml\"><table class=\"hl7__eu__lab__report\"><tr><th>Test</th><th>07-Oct-2021</th><th>Reference&#xA0;Range</th><th>Unit</th></tr><tr><td>Chloride [Moles/volume] in Serum or Plasma</td><td>101.6</td><td>98 - 107</td><td></td><td>mmol/L</td></tr></table></div>"
        },
        "status": "final",
        "subject": {
          "reference": "urn:uuid:860b6c00-125b-493a-a6fd-a7a4feef1ee9",
          "display": "Pelayo Casal"
        },
        "effectiveDateTime": "2021-10-07T05:38:59Z",
        "specimen": {
          "reference": "urn:uuid:df2bb2f9-d6f7-46e4-9184-3f9b2bdb3fe2"
        }
      }
    },
    {
      "fullUrl": "urn:uuid:2f4359e4-b9e1-46a4-a4ed-86aaaa0061ec",
      "resource": {
        "resourceType": "Observation",
        "id": "2f4359e4-b9e1-46a4-a4ed-86aaaa0061ec",
        "meta": {
          "profile": [
            "http://hl7.eu/fhir/laboratory/StructureDefinition/Observation-resultslab-eu-lab"
          ]
        },
        "performer": [
          {
            "display": "The Central European Lab"
          }
        ],
        "category": [
          {
            "coding": [
              {
                "system": "http://terminology.hl7.org/CodeSystem/observation-category",
                "code": "laboratory"
              }
            ]
          }
        ],
        "code": {
          "coding": [
            {
              "code": "2028-9",
              "system": "http://loinc.org",
              "display": "Carbon dioxide, total [Moles/volume] in Serum or Plasma"
            }
          ],
          "text": "Carbon dioxide, total [Moles/volume] in Serum or Plasma"
        },
        "valueQuantity": {
          "system": "http://unitsofmeasure.org",
          "value": 25.5,
          "unit": "mmol/L",
          "code": "mmol/L"
        },
        "referenceRange": [
          {
            "low": {
              "value": 22,
              "code": "mmol/L",
              "system": "http://unitsofmeasure.org"
            }
          },
          {
            "high": {
              "value": 29,
              "code": "mmol/L",
              "system": "http://unitsofmeasure.org"
            }
          }
        ],
        "text": {
          "status": "generated",
          "div": "<div xmlns=\"http://www.w3.org/1999/xhtml\"><table class=\"hl7__eu__lab__report\"><tr><th>Test</th><th>07-Oct-2021</th><th>Reference&#xA0;Range</th><th>Unit</th></tr><tr><td>Carbon dioxide, total [Moles/volume] in Serum or Plasma</td><td>25.5</td><td>22 - 29</td><td></td><td>mmol/L</td></tr></table></div>"
        },
        "status": "final",
        "subject": {
          "reference": "urn:uuid:860b6c00-125b-493a-a6fd-a7a4feef1ee9",
          "display": "Pelayo Casal"
        },
        "effectiveDateTime": "2021-10-07T05:38:59Z",
        "specimen": {
          "reference": "urn:uuid:df2bb2f9-d6f7-46e4-9184-3f9b2bdb3fe2"
        }
      }
    },
    {
      "fullUrl": "urn:uuid:f7da8300-ded6-47ef-8a56-fb6c33c229df",
      "resource": {
        "resourceType": "Observation",
        "id": "f7da8300-ded6-47ef-8a56-fb6c33c229df",
        "meta": {
          "profile": [
            "http://hl7.eu/fhir/laboratory/StructureDefinition/Observation-resultslab-eu-lab"
          ]
        },
        "performer": [
          {
            "display": "The Central European Lab"
          }
        ],
        "category": [
          {
            "coding": [
              {
                "system": "http://terminology.hl7.org/CodeSystem/observation-category",
                "code": "laboratory"
              }
            ]
          }
        ],
        "code": {
          "coding": [
            {
              "code": "5767-9",
              "system": "http://loinc.org",
              "display": "Appearance of Urine"
            }
          ],
          "text": "Appearance of Urine"
        },
        "text": {
          "status": "generated",
          "div": "<div xmlns=\"http://www.w3.org/1999/xhtml\"><table class=\"hl7__eu__lab__report\"><tr><th>Test</th><th>07-Oct-2021</th><th>Reference&#xA0;Range</th><th>Unit</th></tr><tr><td>Appearance of Urine</td></tr></table></div>"
        },
        "status": "final",
        "subject": {
          "reference": "urn:uuid:860b6c00-125b-493a-a6fd-a7a4feef1ee9",
          "display": "Pelayo Casal"
        },
        "effectiveDateTime": "2021-10-07T05:38:59Z",
        "specimen": {
          "reference": "urn:uuid:06316dfe-ecbd-4de9-a019-f304488c2c09"
        }
      }
    },
    {
      "fullUrl": "urn:uuid:eb86702c-bb2f-4624-b235-3a1b502dc034",
      "resource": {
        "resourceType": "Observation",
        "id": "eb86702c-bb2f-4624-b235-3a1b502dc034",
        "meta": {
          "profile": [
            "http://hl7.eu/fhir/laboratory/StructureDefinition/Observation-resultslab-eu-lab"
          ]
        },
        "performer": [
          {
            "display": "The Central European Lab"
          }
        ],
        "category": [
          {
            "coding": [
              {
                "system": "http://terminology.hl7.org/CodeSystem/observation-category",
                "code": "laboratory"
              }
            ]
          }
        ],
        "code": {
          "coding": [
            {
              "code": "34533-0",
              "system": "http://loinc.org",
              "display": "Odor of Urine"
            }
          ],
          "text": "Odor of Urine"
        },
        "text": {
          "status": "generated",
          "div": "<div xmlns=\"http://www.w3.org/1999/xhtml\"><table class=\"hl7__eu__lab__report\"><tr><th>Test</th><th>07-Oct-2021</th><th>Reference&#xA0;Range</th><th>Unit</th></tr><tr><td>Odor of Urine</td></tr></table></div>"
        },
        "status": "final",
        "subject": {
          "reference": "urn:uuid:860b6c00-125b-493a-a6fd-a7a4feef1ee9",
          "display": "Pelayo Casal"
        },
        "effectiveDateTime": "2021-10-07T05:38:59Z",
        "specimen": {
          "reference": "urn:uuid:06316dfe-ecbd-4de9-a019-f304488c2c09"
        }
      }
    },
    {
      "fullUrl": "urn:uuid:92d4c1d7-522b-4377-8bf0-64ea4e69190b",
      "resource": {
        "resourceType": "Observation",
        "id": "92d4c1d7-522b-4377-8bf0-64ea4e69190b",
        "meta": {
          "profile": [
            "http://hl7.eu/fhir/laboratory/StructureDefinition/Observation-resultslab-eu-lab"
          ]
        },
        "performer": [
          {
            "display": "The Central European Lab"
          }
        ],
        "category": [
          {
            "coding": [
              {
                "system": "http://terminology.hl7.org/CodeSystem/observation-category",
                "code": "laboratory"
              }
            ]
          }
        ],
        "code": {
          "coding": [
            {
              "code": "32167-9",
              "system": "http://loinc.org",
              "display": "Clarity of Urine"
            }
          ],
          "text": "Clarity of Urine"
        },
        "text": {
          "status": "generated",
          "div": "<div xmlns=\"http://www.w3.org/1999/xhtml\"><table class=\"hl7__eu__lab__report\"><tr><th>Test</th><th>07-Oct-2021</th><th>Reference&#xA0;Range</th><th>Unit</th></tr><tr><td>Clarity of Urine</td></tr></table></div>"
        },
        "status": "final",
        "subject": {
          "reference": "urn:uuid:860b6c00-125b-493a-a6fd-a7a4feef1ee9",
          "display": "Pelayo Casal"
        },
        "effectiveDateTime": "2021-10-07T05:38:59Z",
        "specimen": {
          "reference": "urn:uuid:06316dfe-ecbd-4de9-a019-f304488c2c09"
        }
      }
    },
    {
      "fullUrl": "urn:uuid:840f667a-f814-4d7b-8dc1-9fdf4592bd5e",
      "resource": {
        "resourceType": "Observation",
        "id": "840f667a-f814-4d7b-8dc1-9fdf4592bd5e",
        "meta": {
          "profile": [
            "http://hl7.eu/fhir/laboratory/StructureDefinition/Observation-resultslab-eu-lab"
          ]
        },
        "performer": [
          {
            "display": "The Central European Lab"
          }
        ],
        "category": [
          {
            "coding": [
              {
                "system": "http://terminology.hl7.org/CodeSystem/observation-category",
                "code": "laboratory"
              }
            ]
          }
        ],
        "code": {
          "coding": [
            {
              "code": "5778-6",
              "system": "http://loinc.org",
              "display": "Color of Urine"
            }
          ],
          "text": "Color of Urine"
        },
        "text": {
          "status": "generated",
          "div": "<div xmlns=\"http://www.w3.org/1999/xhtml\"><table class=\"hl7__eu__lab__report\"><tr><th>Test</th><th>07-Oct-2021</th><th>Reference&#xA0;Range</th><th>Unit</th></tr><tr><td>Color of Urine</td></tr></table></div>"
        },
        "status": "final",
        "subject": {
          "reference": "urn:uuid:860b6c00-125b-493a-a6fd-a7a4feef1ee9",
          "display": "Pelayo Casal"
        },
        "effectiveDateTime": "2021-10-07T05:38:59Z",
        "specimen": {
          "reference": "urn:uuid:06316dfe-ecbd-4de9-a019-f304488c2c09"
        }
      }
    },
    {
      "fullUrl": "urn:uuid:f11cc73c-8656-48a3-8799-aeebcb86160e",
      "resource": {
        "resourceType": "Observation",
        "id": "f11cc73c-8656-48a3-8799-aeebcb86160e",
        "meta": {
          "profile": [
            "http://hl7.eu/fhir/laboratory/StructureDefinition/Observation-resultslab-eu-lab"
          ]
        },
        "performer": [
          {
            "display": "The Central European Lab"
          }
        ],
        "category": [
          {
            "coding": [
              {
                "system": "http://terminology.hl7.org/CodeSystem/observation-category",
                "code": "laboratory"
              }
            ]
          }
        ],
        "code": {
          "coding": [
            {
              "code": "5792-7",
              "system": "http://loinc.org",
              "display": "Glucose [Mass/volume] in Urine by Test strip"
            }
          ],
          "text": "Glucose [Mass/volume] in Urine by Test strip"
        },
        "valueQuantity": {
          "system": "http://unitsofmeasure.org",
          "value": 1.3,
          "unit": "mg/dL",
          "code": "mg/dL"
        },
        "referenceRange": [
          {
            "low": {
              "value": 0.8,
              "code": "mg/dL",
              "system": "http://unitsofmeasure.org"
            }
          },
          {
            "high": {
              "value": 0,
              "code": "mg/dL",
              "system": "http://unitsofmeasure.org"
            }
          }
        ],
        "interpretation": [
          {
            "coding": [
              {
                "code": "H",
                "system": "http://terminology.hl7.org/CodeSystem/v3-ObservationInterpretation",
                "display": "High"
              }
            ]
          }
        ],
        "text": {
          "status": "generated",
          "div": "<div xmlns=\"http://www.w3.org/1999/xhtml\"><table class=\"hl7__eu__lab__report\"><tr><th>Test</th><th>07-Oct-2021</th><th>Reference&#xA0;Range</th><th>Unit</th></tr><tr><td>Glucose [Mass/volume] in Urine by Test strip</td><td>1.3</td><td>0.8 - 0</td><td>H</td><td>mg/dL</td></tr></table></div>"
        },
        "status": "final",
        "subject": {
          "reference": "urn:uuid:860b6c00-125b-493a-a6fd-a7a4feef1ee9",
          "display": "Pelayo Casal"
        },
        "effectiveDateTime": "2021-10-07T05:38:59Z",
        "specimen": {
          "reference": "urn:uuid:06316dfe-ecbd-4de9-a019-f304488c2c09"
        }
      }
    },
    {
      "fullUrl": "urn:uuid:e55d665e-d338-4b25-9a95-d7d26000d8a4",
      "resource": {
        "resourceType": "Observation",
        "id": "e55d665e-d338-4b25-9a95-d7d26000d8a4",
        "meta": {
          "profile": [
            "http://hl7.eu/fhir/laboratory/StructureDefinition/Observation-resultslab-eu-lab"
          ]
        },
        "performer": [
          {
            "display": "The Central European Lab"
          }
        ],
        "category": [
          {
            "coding": [
              {
                "system": "http://terminology.hl7.org/CodeSystem/observation-category",
                "code": "laboratory"
              }
            ]
          }
        ],
        "code": {
          "coding": [
            {
              "code": "25428-4",
              "system": "http://loinc.org",
              "display": "Glucose [Presence] in Urine by Test strip"
            }
          ],
          "text": "Glucose [Presence] in Urine by Test strip"
        },
        "text": {
          "status": "generated",
          "div": "<div xmlns=\"http://www.w3.org/1999/xhtml\"><table class=\"hl7__eu__lab__report\"><tr><th>Test</th><th>07-Oct-2021</th><th>Reference&#xA0;Range</th><th>Unit</th></tr><tr><td>Glucose [Presence] in Urine by Test strip</td></tr></table></div>"
        },
        "status": "final",
        "subject": {
          "reference": "urn:uuid:860b6c00-125b-493a-a6fd-a7a4feef1ee9",
          "display": "Pelayo Casal"
        },
        "effectiveDateTime": "2021-10-07T05:38:59Z",
        "specimen": {
          "reference": "urn:uuid:06316dfe-ecbd-4de9-a019-f304488c2c09"
        }
      }
    },
    {
      "fullUrl": "urn:uuid:1553fa84-7efc-4bc8-9395-9216210a5f7c",
      "resource": {
        "resourceType": "Observation",
        "id": "1553fa84-7efc-4bc8-9395-9216210a5f7c",
        "meta": {
          "profile": [
            "http://hl7.eu/fhir/laboratory/StructureDefinition/Observation-resultslab-eu-lab"
          ]
        },
        "performer": [
          {
            "display": "The Central European Lab"
          }
        ],
        "category": [
          {
            "coding": [
              {
                "system": "http://terminology.hl7.org/CodeSystem/observation-category",
                "code": "laboratory"
              }
            ]
          }
        ],
        "code": {
          "coding": [
            {
              "code": "20505-4",
              "system": "http://loinc.org",
              "display": "Bilirubin.total [Mass/volume] in Urine by Test strip"
            }
          ],
          "text": "Bilirubin.total [Mass/volume] in Urine by Test strip"
        },
        "valueQuantity": {
          "system": "http://unitsofmeasure.org",
          "value": 1.2,
          "unit": "mg/dL",
          "code": "mg/dL"
        },
        "referenceRange": [
          {
            "low": {
              "value": 0.2,
              "code": "mg/dL",
              "system": "http://unitsofmeasure.org"
            }
          },
          {
            "high": {
              "value": 1.5,
              "code": "mg/dL",
              "system": "http://unitsofmeasure.org"
            }
          }
        ],
        "text": {
          "status": "generated",
          "div": "<div xmlns=\"http://www.w3.org/1999/xhtml\"><table class=\"hl7__eu__lab__report\"><tr><th>Test</th><th>07-Oct-2021</th><th>Reference&#xA0;Range</th><th>Unit</th></tr><tr><td>Bilirubin.total [Mass/volume] in Urine by Test strip</td><td>1.2</td><td>0.2 - 1.5</td><td></td><td>mg/dL</td></tr></table></div>"
        },
        "status": "final",
        "subject": {
          "reference": "urn:uuid:860b6c00-125b-493a-a6fd-a7a4feef1ee9",
          "display": "Pelayo Casal"
        },
        "effectiveDateTime": "2021-10-07T05:38:59Z",
        "specimen": {
          "reference": "urn:uuid:06316dfe-ecbd-4de9-a019-f304488c2c09"
        }
      }
    },
    {
      "fullUrl": "urn:uuid:5eba961b-e957-42e4-bbab-202f64353af0",
      "resource": {
        "resourceType": "Observation",
        "id": "5eba961b-e957-42e4-bbab-202f64353af0",
        "meta": {
          "profile": [
            "http://hl7.eu/fhir/laboratory/StructureDefinition/Observation-resultslab-eu-lab"
          ]
        },
        "performer": [
          {
            "display": "The Central European Lab"
          }
        ],
        "category": [
          {
            "coding": [
              {
                "system": "http://terminology.hl7.org/CodeSystem/observation-category",
                "code": "laboratory"
              }
            ]
          }
        ],
        "code": {
          "coding": [
            {
              "code": "5770-3",
              "system": "http://loinc.org",
              "display": "Bilirubin.total [Presence] in Urine by Test strip"
            }
          ],
          "text": "Bilirubin.total [Presence] in Urine by Test strip"
        },
        "text": {
          "status": "generated",
          "div": "<div xmlns=\"http://www.w3.org/1999/xhtml\"><table class=\"hl7__eu__lab__report\"><tr><th>Test</th><th>07-Oct-2021</th><th>Reference&#xA0;Range</th><th>Unit</th></tr><tr><td>Bilirubin.total [Presence] in Urine by Test strip</td></tr></table></div>"
        },
        "status": "final",
        "subject": {
          "reference": "urn:uuid:860b6c00-125b-493a-a6fd-a7a4feef1ee9",
          "display": "Pelayo Casal"
        },
        "effectiveDateTime": "2021-10-07T05:38:59Z",
        "specimen": {
          "reference": "urn:uuid:06316dfe-ecbd-4de9-a019-f304488c2c09"
        }
      }
    },
    {
      "fullUrl": "urn:uuid:36e7ed16-5a00-4fd1-bba0-66e27565e680",
      "resource": {
        "resourceType": "Observation",
        "id": "36e7ed16-5a00-4fd1-bba0-66e27565e680",
        "meta": {
          "profile": [
            "http://hl7.eu/fhir/laboratory/StructureDefinition/Observation-resultslab-eu-lab"
          ]
        },
        "performer": [
          {
            "display": "The Central European Lab"
          }
        ],
        "category": [
          {
            "coding": [
              {
                "system": "http://terminology.hl7.org/CodeSystem/observation-category",
                "code": "laboratory"
              }
            ]
          }
        ],
        "code": {
          "coding": [
            {
              "code": "5797-6",
              "system": "http://loinc.org",
              "display": "Ketones [Mass/volume] in Urine by Test strip"
            }
          ],
          "text": "Ketones [Mass/volume] in Urine by Test strip"
        },
        "valueQuantity": {
          "system": "http://unitsofmeasure.org",
          "value": 4.1,
          "unit": "mg/dL",
          "code": "mg/dL"
        },
        "referenceRange": [
          {
            "low": {
              "value": 0,
              "code": "mg/dL",
              "system": "http://unitsofmeasure.org"
            }
          },
          {
            "high": {
              "value": 4,
              "code": "mg/dL",
              "system": "http://unitsofmeasure.org"
            }
          }
        ],
        "interpretation": [
          {
            "coding": [
              {
                "code": "H",
                "system": "http://terminology.hl7.org/CodeSystem/v3-ObservationInterpretation",
                "display": "High"
              }
            ]
          }
        ],
        "text": {
          "status": "generated",
          "div": "<div xmlns=\"http://www.w3.org/1999/xhtml\"><table class=\"hl7__eu__lab__report\"><tr><th>Test</th><th>07-Oct-2021</th><th>Reference&#xA0;Range</th><th>Unit</th></tr><tr><td>Ketones [Mass/volume] in Urine by Test strip</td><td>4.1</td><td>0 - 4</td><td>H</td><td>mg/dL</td></tr></table></div>"
        },
        "status": "final",
        "subject": {
          "reference": "urn:uuid:860b6c00-125b-493a-a6fd-a7a4feef1ee9",
          "display": "Pelayo Casal"
        },
        "effectiveDateTime": "2021-10-07T05:38:59Z",
        "specimen": {
          "reference": "urn:uuid:06316dfe-ecbd-4de9-a019-f304488c2c09"
        }
      }
    },
    {
      "fullUrl": "urn:uuid:c59f7fd7-4541-45b2-876f-12e578c3bc54",
      "resource": {
        "resourceType": "Observation",
        "id": "c59f7fd7-4541-45b2-876f-12e578c3bc54",
        "meta": {
          "profile": [
            "http://hl7.eu/fhir/laboratory/StructureDefinition/Observation-resultslab-eu-lab"
          ]
        },
        "performer": [
          {
            "display": "The Central European Lab"
          }
        ],
        "category": [
          {
            "coding": [
              {
                "system": "http://terminology.hl7.org/CodeSystem/observation-category",
                "code": "laboratory"
              }
            ]
          }
        ],
        "code": {
          "coding": [
            {
              "code": "2514-8",
              "system": "http://loinc.org",
              "display": "Ketones [Presence] in Urine by Test strip"
            }
          ],
          "text": "Ketones [Presence] in Urine by Test strip"
        },
        "text": {
          "status": "generated",
          "div": "<div xmlns=\"http://www.w3.org/1999/xhtml\"><table class=\"hl7__eu__lab__report\"><tr><th>Test</th><th>07-Oct-2021</th><th>Reference&#xA0;Range</th><th>Unit</th></tr><tr><td>Ketones [Presence] in Urine by Test strip</td></tr></table></div>"
        },
        "status": "final",
        "subject": {
          "reference": "urn:uuid:860b6c00-125b-493a-a6fd-a7a4feef1ee9",
          "display": "Pelayo Casal"
        },
        "effectiveDateTime": "2021-10-07T05:38:59Z",
        "specimen": {
          "reference": "urn:uuid:06316dfe-ecbd-4de9-a019-f304488c2c09"
        }
      }
    },
    {
      "fullUrl": "urn:uuid:153e00be-b540-4c6d-aa9d-d43da510ead4",
      "resource": {
        "resourceType": "Observation",
        "id": "153e00be-b540-4c6d-aa9d-d43da510ead4",
        "meta": {
          "profile": [
            "http://hl7.eu/fhir/laboratory/StructureDefinition/Observation-resultslab-eu-lab"
          ]
        },
        "performer": [
          {
            "display": "The Central European Lab"
          }
        ],
        "category": [
          {
            "coding": [
              {
                "system": "http://terminology.hl7.org/CodeSystem/observation-category",
                "code": "laboratory"
              }
            ]
          }
        ],
        "code": {
          "coding": [
            {
              "code": "5811-5",
              "system": "http://loinc.org",
              "display": "Specific gravity of Urine by Test strip"
            }
          ],
          "text": "Specific gravity of Urine by Test strip"
        },
        "valueQuantity": {
          "system": "http://unitsofmeasure.org",
          "value": 1,
          "unit": "{nominal}",
          "code": "{nominal}"
        },
        "referenceRange": [
          {
            "low": {
              "value": 1.01,
              "code": "g/mL",
              "system": "http://unitsofmeasure.org"
            }
          },
          {
            "high": {
              "value": 1.03,
              "code": "g/mL",
              "system": "http://unitsofmeasure.org"
            }
          }
        ],
        "interpretation": [
          {
            "coding": [
              {
                "code": "L",
                "system": "http://terminology.hl7.org/CodeSystem/v3-ObservationInterpretation",
                "display": "Low"
              }
            ]
          }
        ],
        "text": {
          "status": "generated",
          "div": "<div xmlns=\"http://www.w3.org/1999/xhtml\"><table class=\"hl7__eu__lab__report\"><tr><th>Test</th><th>07-Oct-2021</th><th>Reference&#xA0;Range</th><th>Unit</th></tr><tr><td>Specific gravity of Urine by Test strip</td><td>1.0</td><td>1.01 - 1.03</td><td>L</td><td>{nominal}</td></tr></table></div>"
        },
        "status": "final",
        "subject": {
          "reference": "urn:uuid:860b6c00-125b-493a-a6fd-a7a4feef1ee9",
          "display": "Pelayo Casal"
        },
        "effectiveDateTime": "2021-10-07T05:38:59Z",
        "specimen": {
          "reference": "urn:uuid:06316dfe-ecbd-4de9-a019-f304488c2c09"
        }
      }
    },
    {
      "fullUrl": "urn:uuid:534c6420-276b-48b3-a03a-85be6836addb",
      "resource": {
        "resourceType": "Observation",
        "id": "534c6420-276b-48b3-a03a-85be6836addb",
        "meta": {
          "profile": [
            "http://hl7.eu/fhir/laboratory/StructureDefinition/Observation-resultslab-eu-lab"
          ]
        },
        "performer": [
          {
            "display": "The Central European Lab"
          }
        ],
        "category": [
          {
            "coding": [
              {
                "system": "http://terminology.hl7.org/CodeSystem/observation-category",
                "code": "laboratory"
              }
            ]
          }
        ],
        "code": {
          "coding": [
            {
              "code": "5803-2",
              "system": "http://loinc.org",
              "display": "pH of Urine by Test strip"
            }
          ],
          "text": "pH of Urine by Test strip"
        },
        "valueQuantity": {
          "system": "http://unitsofmeasure.org",
          "value": 6.3,
          "unit": "pH",
          "code": "pH"
        },
        "referenceRange": [
          {
            "low": {
              "value": 4.5,
              "code": "pH",
              "system": "http://unitsofmeasure.org"
            }
          },
          {
            "high": {
              "value": 7.5,
              "code": "pH",
              "system": "http://unitsofmeasure.org"
            }
          }
        ],
        "text": {
          "status": "generated",
          "div": "<div xmlns=\"http://www.w3.org/1999/xhtml\"><table class=\"hl7__eu__lab__report\"><tr><th>Test</th><th>07-Oct-2021</th><th>Reference&#xA0;Range</th><th>Unit</th></tr><tr><td>pH of Urine by Test strip</td><td>6.3</td><td>4.5 - 7.5</td><td></td><td>pH</td></tr></table></div>"
        },
        "status": "final",
        "subject": {
          "reference": "urn:uuid:860b6c00-125b-493a-a6fd-a7a4feef1ee9",
          "display": "Pelayo Casal"
        },
        "effectiveDateTime": "2021-10-07T05:38:59Z",
        "specimen": {
          "reference": "urn:uuid:06316dfe-ecbd-4de9-a019-f304488c2c09"
        }
      }
    },
    {
      "fullUrl": "urn:uuid:61a69ef0-7f2e-4f7b-b289-2b441ba20077",
      "resource": {
        "resourceType": "Observation",
        "id": "61a69ef0-7f2e-4f7b-b289-2b441ba20077",
        "meta": {
          "profile": [
            "http://hl7.eu/fhir/laboratory/StructureDefinition/Observation-resultslab-eu-lab"
          ]
        },
        "performer": [
          {
            "display": "The Central European Lab"
          }
        ],
        "category": [
          {
            "coding": [
              {
                "system": "http://terminology.hl7.org/CodeSystem/observation-category",
                "code": "laboratory"
              }
            ]
          }
        ],
        "code": {
          "coding": [
            {
              "code": "5804-0",
              "system": "http://loinc.org",
              "display": "Protein [Mass/volume] in Urine by Test strip"
            }
          ],
          "text": "Protein [Mass/volume] in Urine by Test strip"
        },
        "valueQuantity": {
          "system": "http://unitsofmeasure.org",
          "value": 306.8,
          "unit": "mg/dL",
          "code": "mg/dL"
        },
        "referenceRange": [
          {
            "low": {
              "value": 0,
              "code": "mg/dL",
              "system": "http://unitsofmeasure.org"
            }
          },
          {
            "high": {
              "value": 150,
              "code": "mg/dL",
              "system": "http://unitsofmeasure.org"
            }
          }
        ],
        "interpretation": [
          {
            "coding": [
              {
                "code": "H",
                "system": "http://terminology.hl7.org/CodeSystem/v3-ObservationInterpretation",
                "display": "High"
              }
            ]
          }
        ],
        "text": {
          "status": "generated",
          "div": "<div xmlns=\"http://www.w3.org/1999/xhtml\"><table class=\"hl7__eu__lab__report\"><tr><th>Test</th><th>07-Oct-2021</th><th>Reference&#xA0;Range</th><th>Unit</th></tr><tr><td>Protein [Mass/volume] in Urine by Test strip</td><td>306.8</td><td>0 - 150</td><td>H</td><td>mg/dL</td></tr></table></div>"
        },
        "status": "final",
        "subject": {
          "reference": "urn:uuid:860b6c00-125b-493a-a6fd-a7a4feef1ee9",
          "display": "Pelayo Casal"
        },
        "effectiveDateTime": "2021-10-07T05:38:59Z",
        "specimen": {
          "reference": "urn:uuid:06316dfe-ecbd-4de9-a019-f304488c2c09"
        }
      }
    },
    {
      "fullUrl": "urn:uuid:c69e5456-fa83-40a4-aea2-a6af73df0130",
      "resource": {
        "resourceType": "Observation",
        "id": "c69e5456-fa83-40a4-aea2-a6af73df0130",
        "meta": {
          "profile": [
            "http://hl7.eu/fhir/laboratory/StructureDefinition/Observation-resultslab-eu-lab"
          ]
        },
        "performer": [
          {
            "display": "The Central European Lab"
          }
        ],
        "category": [
          {
            "coding": [
              {
                "system": "http://terminology.hl7.org/CodeSystem/observation-category",
                "code": "laboratory"
              }
            ]
          }
        ],
        "code": {
          "coding": [
            {
              "code": "20454-5",
              "system": "http://loinc.org",
              "display": "Protein [Presence] in Urine by Test strip"
            }
          ],
          "text": "Protein [Presence] in Urine by Test strip"
        },
        "text": {
          "status": "generated",
          "div": "<div xmlns=\"http://www.w3.org/1999/xhtml\"><table class=\"hl7__eu__lab__report\"><tr><th>Test</th><th>07-Oct-2021</th><th>Reference&#xA0;Range</th><th>Unit</th></tr><tr><td>Protein [Presence] in Urine by Test strip</td></tr></table></div>"
        },
        "status": "final",
        "subject": {
          "reference": "urn:uuid:860b6c00-125b-493a-a6fd-a7a4feef1ee9",
          "display": "Pelayo Casal"
        },
        "effectiveDateTime": "2021-10-07T05:38:59Z",
        "specimen": {
          "reference": "urn:uuid:06316dfe-ecbd-4de9-a019-f304488c2c09"
        }
      }
    },
    {
      "fullUrl": "urn:uuid:679ca886-1d9c-4212-a35a-3c409a242fcb",
      "resource": {
        "resourceType": "Observation",
        "id": "679ca886-1d9c-4212-a35a-3c409a242fcb",
        "meta": {
          "profile": [
            "http://hl7.eu/fhir/laboratory/StructureDefinition/Observation-resultslab-eu-lab"
          ]
        },
        "performer": [
          {
            "display": "The Central European Lab"
          }
        ],
        "category": [
          {
            "coding": [
              {
                "system": "http://terminology.hl7.org/CodeSystem/observation-category",
                "code": "laboratory"
              }
            ]
          }
        ],
        "code": {
          "coding": [
            {
              "code": "5802-4",
              "system": "http://loinc.org",
              "display": "Nitrite [Presence] in Urine by Test strip"
            }
          ],
          "text": "Nitrite [Presence] in Urine by Test strip"
        },
        "text": {
          "status": "generated",
          "div": "<div xmlns=\"http://www.w3.org/1999/xhtml\"><table class=\"hl7__eu__lab__report\"><tr><th>Test</th><th>07-Oct-2021</th><th>Reference&#xA0;Range</th><th>Unit</th></tr><tr><td>Nitrite [Presence] in Urine by Test strip</td></tr></table></div>"
        },
        "status": "final",
        "subject": {
          "reference": "urn:uuid:860b6c00-125b-493a-a6fd-a7a4feef1ee9",
          "display": "Pelayo Casal"
        },
        "effectiveDateTime": "2021-10-07T05:38:59Z",
        "specimen": {
          "reference": "urn:uuid:06316dfe-ecbd-4de9-a019-f304488c2c09"
        }
      }
    },
    {
      "fullUrl": "urn:uuid:5c25defa-f0c5-4398-b7fa-535a08d77853",
      "resource": {
        "resourceType": "Observation",
        "id": "5c25defa-f0c5-4398-b7fa-535a08d77853",
        "meta": {
          "profile": [
            "http://hl7.eu/fhir/laboratory/StructureDefinition/Observation-resultslab-eu-lab"
          ]
        },
        "performer": [
          {
            "display": "The Central European Lab"
          }
        ],
        "category": [
          {
            "coding": [
              {
                "system": "http://terminology.hl7.org/CodeSystem/observation-category",
                "code": "laboratory"
              }
            ]
          }
        ],
        "code": {
          "coding": [
            {
              "code": "5794-3",
              "system": "http://loinc.org",
              "display": "Hemoglobin [Presence] in Urine by Test strip"
            }
          ],
          "text": "Hemoglobin [Presence] in Urine by Test strip"
        },
        "text": {
          "status": "generated",
          "div": "<div xmlns=\"http://www.w3.org/1999/xhtml\"><table class=\"hl7__eu__lab__report\"><tr><th>Test</th><th>07-Oct-2021</th><th>Reference&#xA0;Range</th><th>Unit</th></tr><tr><td>Hemoglobin [Presence] in Urine by Test strip</td></tr></table></div>"
        },
        "status": "final",
        "subject": {
          "reference": "urn:uuid:860b6c00-125b-493a-a6fd-a7a4feef1ee9",
          "display": "Pelayo Casal"
        },
        "effectiveDateTime": "2021-10-07T05:38:59Z",
        "specimen": {
          "reference": "urn:uuid:06316dfe-ecbd-4de9-a019-f304488c2c09"
        }
      }
    },
    {
      "fullUrl": "urn:uuid:a005650c-3915-49f3-8bb2-e3dc5845283e",
      "resource": {
        "resourceType": "Observation",
        "id": "a005650c-3915-49f3-8bb2-e3dc5845283e",
        "meta": {
          "profile": [
            "http://hl7.eu/fhir/laboratory/StructureDefinition/Observation-resultslab-eu-lab"
          ]
        },
        "performer": [
          {
            "display": "The Central European Lab"
          }
        ],
        "category": [
          {
            "coding": [
              {
                "system": "http://terminology.hl7.org/CodeSystem/observation-category",
                "code": "laboratory"
              }
            ]
          }
        ],
        "code": {
          "coding": [
            {
              "code": "5799-2",
              "system": "http://loinc.org",
              "display": "Leukocyte esterase [Presence] in Urine by Test strip"
            }
          ],
          "text": "Leukocyte esterase [Presence] in Urine by Test strip"
        },
        "text": {
          "status": "generated",
          "div": "<div xmlns=\"http://www.w3.org/1999/xhtml\"><table class=\"hl7__eu__lab__report\"><tr><th>Test</th><th>07-Oct-2021</th><th>Reference&#xA0;Range</th><th>Unit</th></tr><tr><td>Leukocyte esterase [Presence] in Urine by Test strip</td></tr></table></div>"
        },
        "status": "final",
        "subject": {
          "reference": "urn:uuid:860b6c00-125b-493a-a6fd-a7a4feef1ee9",
          "display": "Pelayo Casal"
        },
        "effectiveDateTime": "2021-10-07T05:38:59Z",
        "specimen": {
          "reference": "urn:uuid:06316dfe-ecbd-4de9-a019-f304488c2c09"
        }
      }
    },
    {
      "fullUrl": "urn:uuid:d986355b-3185-4f50-a0f0-bd18c948035d",
      "resource": {
        "resourceType": "Observation",
        "id": "d986355b-3185-4f50-a0f0-bd18c948035d",
        "meta": {
          "profile": [
            "http://hl7.eu/fhir/laboratory/StructureDefinition/Observation-resultslab-eu-lab"
          ]
        },
        "performer": [
          {
            "display": "The Central European Lab"
          }
        ],
        "category": [
          {
            "coding": [
              {
                "system": "http://terminology.hl7.org/CodeSystem/observation-category",
                "code": "laboratory"
              }
            ]
          }
        ],
        "code": {
          "coding": [
            {
              "code": "4548-4",
              "system": "http://loinc.org",
              "display": "Hemoglobin A1c/Hemoglobin.total in Blood"
            }
          ],
          "text": "Hemoglobin A1c/Hemoglobin.total in Blood"
        },
        "valueQuantity": {
          "system": "http://unitsofmeasure.org",
          "value": 3.3,
          "unit": "%",
          "code": "%"
        },
        "referenceRange": [
          {
            "low": {
              "value": 4.5,
              "code": "%",
              "system": "http://unitsofmeasure.org"
            }
          },
          {
            "high": {
              "value": 6.4,
              "code": "%",
              "system": "http://unitsofmeasure.org"
            }
          }
        ],
        "interpretation": [
          {
            "coding": [
              {
                "code": "L",
                "system": "http://terminology.hl7.org/CodeSystem/v3-ObservationInterpretation",
                "display": "Low"
              }
            ]
          }
        ],
        "text": {
          "status": "generated",
          "div": "<div xmlns=\"http://www.w3.org/1999/xhtml\"><table class=\"hl7__eu__lab__report\"><tr><th>Test</th><th>07-Oct-2021</th><th>Reference&#xA0;Range</th><th>Unit</th></tr><tr><td>Hemoglobin A1c/Hemoglobin.total in Blood</td><td>3.3</td><td>4.5 - 6.4</td><td>L</td><td>%</td></tr></table></div>"
        },
        "status": "final",
        "subject": {
          "reference": "urn:uuid:860b6c00-125b-493a-a6fd-a7a4feef1ee9",
          "display": "Pelayo Casal"
        },
        "effectiveDateTime": "2021-10-07T05:38:59Z",
        "specimen": {
          "reference": "urn:uuid:265b796a-9431-4984-88af-7d4ad5bc48e8"
        }
      }
    },
    {
      "fullUrl": "urn:uuid:4a3561ab-cdcb-4135-8bac-470ce332d9e8",
      "resource": {
        "resourceType": "Observation",
        "id": "4a3561ab-cdcb-4135-8bac-470ce332d9e8",
        "meta": {
          "profile": [
            "http://hl7.eu/fhir/laboratory/StructureDefinition/Observation-resultslab-eu-lab"
          ]
        },
        "performer": [
          {
            "display": "The Central European Lab"
          }
        ],
        "category": [
          {
            "coding": [
              {
                "system": "http://terminology.hl7.org/CodeSystem/observation-category",
                "code": "laboratory"
              }
            ]
          }
        ],
        "code": {
          "coding": [
            {
              "code": "2339-0",
              "system": "http://loinc.org",
              "display": "Glucose [Mass/volume] in Blood"
            }
          ],
          "text": "Glucose [Mass/volume] in Blood"
        },
        "valueQuantity": {
          "system": "http://unitsofmeasure.org",
          "value": 95.4,
          "unit": "mg/dL",
          "code": "mg/dL"
        },
        "referenceRange": [
          {
            "low": {
              "value": 70,
              "code": "mg/dL",
              "system": "http://unitsofmeasure.org"
            }
          },
          {
            "high": {
              "value": 140,
              "code": "mg/dL",
              "system": "http://unitsofmeasure.org"
            }
          }
        ],
        "text": {
          "status": "generated",
          "div": "<div xmlns=\"http://www.w3.org/1999/xhtml\"><table class=\"hl7__eu__lab__report\"><tr><th>Test</th><th>07-Oct-2021</th><th>Reference&#xA0;Range</th><th>Unit</th></tr><tr><td>Glucose [Mass/volume] in Blood</td><td>95.4</td><td>70 - 140</td><td></td><td>mg/dL</td></tr></table></div>"
        },
        "status": "final",
        "subject": {
          "reference": "urn:uuid:860b6c00-125b-493a-a6fd-a7a4feef1ee9",
          "display": "Pelayo Casal"
        },
        "effectiveDateTime": "2021-10-07T05:38:59Z",
        "specimen": {
          "reference": "urn:uuid:265b796a-9431-4984-88af-7d4ad5bc48e8"
        }
      }
    },
    {
      "fullUrl": "urn:uuid:0fa1371c-8b95-4979-92e6-24b8dc524f57",
      "resource": {
        "resourceType": "Observation",
        "id": "0fa1371c-8b95-4979-92e6-24b8dc524f57",
        "meta": {
          "profile": [
            "http://hl7.eu/fhir/laboratory/StructureDefinition/Observation-resultslab-eu-lab"
          ]
        },
        "performer": [
          {
            "display": "The Central European Lab"
          }
        ],
        "category": [
          {
            "coding": [
              {
                "system": "http://terminology.hl7.org/CodeSystem/observation-category",
                "code": "laboratory"
              }
            ]
          }
        ],
        "code": {
          "coding": [
            {
              "code": "6299-2",
              "system": "http://loinc.org",
              "display": "Urea nitrogen [Mass/volume] in Blood"
            }
          ],
          "text": "Urea nitrogen [Mass/volume] in Blood"
        },
        "valueQuantity": {
          "system": "http://unitsofmeasure.org",
          "value": 13.7,
          "unit": "mg/dL",
          "code": "mg/dL"
        },
        "referenceRange": [
          {
            "low": {
              "value": 7,
              "code": "mg/dL",
              "system": "http://unitsofmeasure.org"
            }
          },
          {
            "high": {
              "value": 25,
              "code": "mg/dL",
              "system": "http://unitsofmeasure.org"
            }
          }
        ],
        "text": {
          "status": "generated",
          "div": "<div xmlns=\"http://www.w3.org/1999/xhtml\"><table class=\"hl7__eu__lab__report\"><tr><th>Test</th><th>07-Oct-2021</th><th>Reference&#xA0;Range</th><th>Unit</th></tr><tr><td>Urea nitrogen [Mass/volume] in Blood</td><td>13.7</td><td>7 - 25</td><td></td><td>mg/dL</td></tr></table></div>"
        },
        "status": "final",
        "subject": {
          "reference": "urn:uuid:860b6c00-125b-493a-a6fd-a7a4feef1ee9",
          "display": "Pelayo Casal"
        },
        "effectiveDateTime": "2021-10-07T05:38:59Z",
        "specimen": {
          "reference": "urn:uuid:265b796a-9431-4984-88af-7d4ad5bc48e8"
        }
      }
    },
    {
      "fullUrl": "urn:uuid:d25819d2-2b2c-48d8-be8f-c6221e6841d0",
      "resource": {
        "resourceType": "Observation",
        "id": "d25819d2-2b2c-48d8-be8f-c6221e6841d0",
        "meta": {
          "profile": [
            "http://hl7.eu/fhir/laboratory/StructureDefinition/Observation-resultslab-eu-lab"
          ]
        },
        "performer": [
          {
            "display": "The Central European Lab"
          }
        ],
        "category": [
          {
            "coding": [
              {
                "system": "http://terminology.hl7.org/CodeSystem/observation-category",
                "code": "laboratory"
              }
            ]
          }
        ],
        "code": {
          "coding": [
            {
              "code": "38483-4",
              "system": "http://loinc.org",
              "display": "Creatinine [Mass/volume] in Blood"
            }
          ],
          "text": "Creatinine [Mass/volume] in Blood"
        },
        "valueQuantity": {
          "system": "http://unitsofmeasure.org",
          "value": 1.5,
          "unit": "mg/dL",
          "code": "mg/dL"
        },
        "referenceRange": [
          {
            "low": {
              "value": 0.9,
              "code": "mg/dL",
              "system": "http://unitsofmeasure.org"
            }
          },
          {
            "high": {
              "value": 1.3,
              "code": "mg/dL",
              "system": "http://unitsofmeasure.org"
            }
          }
        ],
        "interpretation": [
          {
            "coding": [
              {
                "code": "H",
                "system": "http://terminology.hl7.org/CodeSystem/v3-ObservationInterpretation",
                "display": "High"
              }
            ]
          }
        ],
        "text": {
          "status": "generated",
          "div": "<div xmlns=\"http://www.w3.org/1999/xhtml\"><table class=\"hl7__eu__lab__report\"><tr><th>Test</th><th>07-Oct-2021</th><th>Reference&#xA0;Range</th><th>Unit</th></tr><tr><td>Creatinine [Mass/volume] in Blood</td><td>1.5</td><td>0.9 - 1.3</td><td>H</td><td>mg/dL</td></tr></table></div>"
        },
        "status": "final",
        "subject": {
          "reference": "urn:uuid:860b6c00-125b-493a-a6fd-a7a4feef1ee9",
          "display": "Pelayo Casal"
        },
        "effectiveDateTime": "2021-10-07T05:38:59Z",
        "specimen": {
          "reference": "urn:uuid:265b796a-9431-4984-88af-7d4ad5bc48e8"
        }
      }
    },
    {
      "fullUrl": "urn:uuid:40a702cc-eea7-4986-a471-89c60ce513d1",
      "resource": {
        "resourceType": "Observation",
        "id": "40a702cc-eea7-4986-a471-89c60ce513d1",
        "meta": {
          "profile": [
            "http://hl7.eu/fhir/laboratory/StructureDefinition/Observation-resultslab-eu-lab"
          ]
        },
        "performer": [
          {
            "display": "The Central European Lab"
          }
        ],
        "category": [
          {
            "coding": [
              {
                "system": "http://terminology.hl7.org/CodeSystem/observation-category",
                "code": "laboratory"
              }
            ]
          }
        ],
        "code": {
          "coding": [
            {
              "code": "49765-1",
              "system": "http://loinc.org",
              "display": "Calcium [Mass/volume] in Blood"
            }
          ],
          "text": "Calcium [Mass/volume] in Blood"
        },
        "valueQuantity": {
          "system": "http://unitsofmeasure.org",
          "value": 9.9,
          "unit": "mg/dL",
          "code": "mg/dL"
        },
        "referenceRange": [
          {
            "low": {
              "value": 8.6,
              "code": "mg/dL",
              "system": "http://unitsofmeasure.org"
            }
          },
          {
            "high": {
              "value": 10.2,
              "code": "mg/dL",
              "system": "http://unitsofmeasure.org"
            }
          }
        ],
        "text": {
          "status": "generated",
          "div": "<div xmlns=\"http://www.w3.org/1999/xhtml\"><table class=\"hl7__eu__lab__report\"><tr><th>Test</th><th>07-Oct-2021</th><th>Reference&#xA0;Range</th><th>Unit</th></tr><tr><td>Calcium [Mass/volume] in Blood</td><td>9.9</td><td>8.6 - 10.2</td><td></td><td>mg/dL</td></tr></table></div>"
        },
        "status": "final",
        "subject": {
          "reference": "urn:uuid:860b6c00-125b-493a-a6fd-a7a4feef1ee9",
          "display": "Pelayo Casal"
        },
        "effectiveDateTime": "2021-10-07T05:38:59Z",
        "specimen": {
          "reference": "urn:uuid:265b796a-9431-4984-88af-7d4ad5bc48e8"
        }
      }
    },
    {
      "fullUrl": "urn:uuid:ee23229a-727b-451c-9541-0dc95583a53d",
      "resource": {
        "resourceType": "Observation",
        "id": "ee23229a-727b-451c-9541-0dc95583a53d",
        "meta": {
          "profile": [
            "http://hl7.eu/fhir/laboratory/StructureDefinition/Observation-resultslab-eu-lab"
          ]
        },
        "performer": [
          {
            "display": "The Central European Lab"
          }
        ],
        "category": [
          {
            "coding": [
              {
                "system": "http://terminology.hl7.org/CodeSystem/observation-category",
                "code": "laboratory"
              }
            ]
          }
        ],
        "code": {
          "coding": [
            {
              "code": "2947-0",
              "system": "http://loinc.org",
              "display": "Sodium [Moles/volume] in Blood"
            }
          ],
          "text": "Sodium [Moles/volume] in Blood"
        },
        "valueQuantity": {
          "system": "http://unitsofmeasure.org",
          "value": 142.3,
          "unit": "mmol/L",
          "code": "mmol/L"
        },
        "referenceRange": [
          {
            "low": {
              "value": 135,
              "code": "mmol/L",
              "system": "http://unitsofmeasure.org"
            }
          },
          {
            "high": {
              "value": 145,
              "code": "mmol/L",
              "system": "http://unitsofmeasure.org"
            }
          }
        ],
        "text": {
          "status": "generated",
          "div": "<div xmlns=\"http://www.w3.org/1999/xhtml\"><table class=\"hl7__eu__lab__report\"><tr><th>Test</th><th>07-Oct-2021</th><th>Reference&#xA0;Range</th><th>Unit</th></tr><tr><td>Sodium [Moles/volume] in Blood</td><td>142.3</td><td>135 - 145</td><td></td><td>mmol/L</td></tr></table></div>"
        },
        "status": "final",
        "subject": {
          "reference": "urn:uuid:860b6c00-125b-493a-a6fd-a7a4feef1ee9",
          "display": "Pelayo Casal"
        },
        "effectiveDateTime": "2021-10-07T05:38:59Z",
        "specimen": {
          "reference": "urn:uuid:265b796a-9431-4984-88af-7d4ad5bc48e8"
        }
      }
    },
    {
      "fullUrl": "urn:uuid:5b053946-ab30-4ea5-a0fb-41edfa5c4bb8",
      "resource": {
        "resourceType": "Observation",
        "id": "5b053946-ab30-4ea5-a0fb-41edfa5c4bb8",
        "meta": {
          "profile": [
            "http://hl7.eu/fhir/laboratory/StructureDefinition/Observation-resultslab-eu-lab"
          ]
        },
        "performer": [
          {
            "display": "The Central European Lab"
          }
        ],
        "category": [
          {
            "coding": [
              {
                "system": "http://terminology.hl7.org/CodeSystem/observation-category",
                "code": "laboratory"
              }
            ]
          }
        ],
        "code": {
          "coding": [
            {
              "code": "6298-4",
              "system": "http://loinc.org",
              "display": "Potassium [Moles/volume] in Blood"
            }
          ],
          "text": "Potassium [Moles/volume] in Blood"
        },
        "valueQuantity": {
          "system": "http://unitsofmeasure.org",
          "value": 4.5,
          "unit": "mmol/L",
          "code": "mmol/L"
        },
        "referenceRange": [
          {
            "low": {
              "value": 3.5,
              "code": "mmol/L",
              "system": "http://unitsofmeasure.org"
            }
          },
          {
            "high": {
              "value": 5.1,
              "code": "mmol/L",
              "system": "http://unitsofmeasure.org"
            }
          }
        ],
        "text": {
          "status": "generated",
          "div": "<div xmlns=\"http://www.w3.org/1999/xhtml\"><table class=\"hl7__eu__lab__report\"><tr><th>Test</th><th>07-Oct-2021</th><th>Reference&#xA0;Range</th><th>Unit</th></tr><tr><td>Potassium [Moles/volume] in Blood</td><td>4.5</td><td>3.5 - 5.1</td><td></td><td>mmol/L</td></tr></table></div>"
        },
        "status": "final",
        "subject": {
          "reference": "urn:uuid:860b6c00-125b-493a-a6fd-a7a4feef1ee9",
          "display": "Pelayo Casal"
        },
        "effectiveDateTime": "2021-10-07T05:38:59Z",
        "specimen": {
          "reference": "urn:uuid:265b796a-9431-4984-88af-7d4ad5bc48e8"
        }
      }
    },
    {
      "fullUrl": "urn:uuid:fc023a70-9f35-4136-b1b3-077e44f7c60f",
      "resource": {
        "resourceType": "Observation",
        "id": "fc023a70-9f35-4136-b1b3-077e44f7c60f",
        "meta": {
          "profile": [
            "http://hl7.eu/fhir/laboratory/StructureDefinition/Observation-resultslab-eu-lab"
          ]
        },
        "performer": [
          {
            "display": "The Central European Lab"
          }
        ],
        "category": [
          {
            "coding": [
              {
                "system": "http://terminology.hl7.org/CodeSystem/observation-category",
                "code": "laboratory"
              }
            ]
          }
        ],
        "code": {
          "coding": [
            {
              "code": "2069-3",
              "system": "http://loinc.org",
              "display": "Chloride [Moles/volume] in Blood"
            }
          ],
          "text": "Chloride [Moles/volume] in Blood"
        },
        "valueQuantity": {
          "system": "http://unitsofmeasure.org",
          "value": 101.6,
          "unit": "mmol/L",
          "code": "mmol/L"
        },
        "referenceRange": [
          {
            "low": {
              "value": 98,
              "code": "mmol/L",
              "system": "http://unitsofmeasure.org"
            }
          },
          {
            "high": {
              "value": 108,
              "code": "mmol/L",
              "system": "http://unitsofmeasure.org"
            }
          }
        ],
        "text": {
          "status": "generated",
          "div": "<div xmlns=\"http://www.w3.org/1999/xhtml\"><table class=\"hl7__eu__lab__report\"><tr><th>Test</th><th>07-Oct-2021</th><th>Reference&#xA0;Range</th><th>Unit</th></tr><tr><td>Chloride [Moles/volume] in Blood</td><td>101.6</td><td>98 - 108</td><td></td><td>mmol/L</td></tr></table></div>"
        },
        "status": "final",
        "subject": {
          "reference": "urn:uuid:860b6c00-125b-493a-a6fd-a7a4feef1ee9",
          "display": "Pelayo Casal"
        },
        "effectiveDateTime": "2021-10-07T05:38:59Z",
        "specimen": {
          "reference": "urn:uuid:265b796a-9431-4984-88af-7d4ad5bc48e8"
        }
      }
    },
    {
      "fullUrl": "urn:uuid:5f3ee61d-e69a-45ee-862e-a38c911cc38f",
      "resource": {
        "resourceType": "Observation",
        "id": "5f3ee61d-e69a-45ee-862e-a38c911cc38f",
        "meta": {
          "profile": [
            "http://hl7.eu/fhir/laboratory/StructureDefinition/Observation-resultslab-eu-lab"
          ]
        },
        "performer": [
          {
            "display": "The Central European Lab"
          }
        ],
        "category": [
          {
            "coding": [
              {
                "system": "http://terminology.hl7.org/CodeSystem/observation-category",
                "code": "laboratory"
              }
            ]
          }
        ],
        "code": {
          "coding": [
            {
              "code": "20565-8",
              "system": "http://loinc.org",
              "display": "Carbon dioxide, total [Moles/volume] in Blood"
            }
          ],
          "text": "Carbon dioxide, total [Moles/volume] in Blood"
        },
        "valueQuantity": {
          "system": "http://unitsofmeasure.org",
          "value": 25.5,
          "unit": "mmol/L",
          "code": "mmol/L"
        },
        "referenceRange": [
          {
            "low": {
              "value": 22,
              "code": "mmol/L",
              "system": "http://unitsofmeasure.org"
            }
          },
          {
            "high": {
              "value": 32,
              "code": "mmol/L",
              "system": "http://unitsofmeasure.org"
            }
          }
        ],
        "text": {
          "status": "generated",
          "div": "<div xmlns=\"http://www.w3.org/1999/xhtml\"><table class=\"hl7__eu__lab__report\"><tr><th>Test</th><th>07-Oct-2021</th><th>Reference&#xA0;Range</th><th>Unit</th></tr><tr><td>Carbon dioxide, total [Moles/volume] in Blood</td><td>25.5</td><td>22 - 32</td><td></td><td>mmol/L</td></tr></table></div>"
        },
        "status": "final",
        "subject": {
          "reference": "urn:uuid:860b6c00-125b-493a-a6fd-a7a4feef1ee9",
          "display": "Pelayo Casal"
        },
        "effectiveDateTime": "2021-10-07T05:38:59Z",
        "specimen": {
          "reference": "urn:uuid:265b796a-9431-4984-88af-7d4ad5bc48e8"
        }
      }
    },
    {
      "fullUrl": "urn:uuid:6e42a5ec-44d9-462f-87a2-68eca006f12b",
      "resource": {
        "resourceType": "Device",
        "id": "6e42a5ec-44d9-462f-87a2-68eca006f12b",
        "deviceName": [
          {
            "name": "SYNDERAI Synthetic Generator",
            "type": "manufacturer-name"
          }
        ],
        "version": [
          {
            "value": "5.0"
          }
        ],
        "text": {
          "status": "generated",
          "div": "<div xmlns=\"http://www.w3.org/1999/xhtml\">SYNDERAI Synthetic Generator v5.0</div>"
        },
        "status": "active\"",
        "distinctIdentifier": "synderai-generator-50",
        "manufacturer": "SYNDERAI Project"
      }
    },
    {
      "fullUrl": "urn:uuid:ba068726-0288-4c81-a721-255428a80d5c",
      "resource": {
        "resourceType": "Provenance",
        "id": "ba068726-0288-4c81-a721-255428a80d5c",
        "target": [
          {
            "reference": "Patient/860b6c00-125b-493a-a6fd-a7a4feef1ee9"
          },
          {
            "reference": "Bundle/44d234f9-0f5b-4f06-bde3-b4548cf7dd7f"
          },
          {
            "reference": "Composition/f8d355a6-dd07-4f93-a8a1-8962815c41c1"
          },
          {
            "reference": "PractitionerRole/ce60a507-1f0f-4392-97a8-b4d392a8ad68"
          },
          {
            "reference": "Practitioner/c0a37432-11b8-4b1e-9457-08c49daf34d4"
          },
          {
            "reference": "PractitionerRole/44894c5c-d1ca-4348-8169-85c912a61fe9"
          },
          {
            "reference": "Organization/384d442f-8e43-4f26-8c2b-57c48ab17375"
          }
        ],
        "activity": {
          "text": "Synthetic Example Data Generation"
        },
        "policy": [
          "https://synderai.net/synderai-synthetic-data-policy"
        ],
        "agent": [
          {
            "type": {
              "text": "author"
            },
            "who": {
              "reference": "Device/6e42a5ec-44d9-462f-87a2-68eca006f12b"
            }
          }
        ],
        "reason": [
          {
            "text": "Interoperability Testing and Training (non-clinical use)"
          }
        ],
        "text": {
          "status": "generated",
          "div": "<div xmlns=\"http://www.w3.org/1999/xhtml\">Provenance for SYNDERAI Synthetic Example Data Resource</div>"
        },
        "recorded": "2021-10-07T07:38:59Z"
      }
    },
    {
      "fullUrl": "urn:uuid:ce60a507-1f0f-4392-97a8-b4d392a8ad68",
      "resource": {
        "resourceType": "PractitionerRole",
        "id": "ce60a507-1f0f-4392-97a8-b4d392a8ad68",
        "meta": {
          "profile": [
            "http://hl7.eu/fhir/base/StructureDefinition/practitionerRole-eu"
          ]
        },
        "text": {
          "status": "generated",
          "div": "<div xmlns=\"http://www.w3.org/1999/xhtml\">Laboratory Role Id: ce60a507-1f0f-4392-97a8-b4d392a8ad68</div>"
        },
        "practitioner": {
          "reference": "urn:uuid:c0a37432-11b8-4b1e-9457-08c49daf34d4"
        }
      }
    },
    {
      "fullUrl": "urn:uuid:c0a37432-11b8-4b1e-9457-08c49daf34d4",
      "resource": {
        "resourceType": "Practitioner",
        "id": "c0a37432-11b8-4b1e-9457-08c49daf34d4",
        "meta": {
          "profile": [
            "http://hl7.eu/fhir/base/StructureDefinition/practitioner-eu"
          ]
        },
        "identifier": [
          {
            "assigner": {
              "display": "HL7 Europe"
            },
            "system": "urn:oid:2.16.840.1.113883.2.51.999",
            "value": "870d67f1-88cf-40a6-8cb3-362ffa29aebf"
          }
        ],
        "name": [
          {
            "prefix": [
              "dr"
            ],
            "given": [
              "Ex"
            ],
            "family": "Ample"
          }
        ],
        "address": [
          {
            "line": [
              "Laboratoire Central Européenne",
              "Boulevard du Jardin Botanique 32"
            ],
            "postalCode": "1000",
            "city": "Brussels",
            "country": "Belgium"
          }
        ],
        "text": {
          "status": "generated",
          "div": "<div xmlns=\"http://www.w3.org/1999/xhtml\">Laboratory: Laboratoire Central Européenne, 1000 Brussels, Belgium</div>"
        }
      }
    }
  ],
  "type": "document",
  "timestamp": "2021-10-07T07:38:59Z"
}
