{
  "resourceType": "Bundle",
  "id": "565a413f-f90d-48d4-8ae9-8d8c1ff500e6",
  "meta": {
    "profile": [
      "http://hl7.eu/fhir/laboratory/StructureDefinition/Bundle-eu-lab"
    ]
  },
  "identifier": {
    "assigner": {
      "display": "HL7 Europe"
    },
    "system": "urn:oid:2.16.840.1.113883.2.51.999",
    "value": "bb96254f-4778-4302-9310-867795925fb6"
  },
  "entry": [
    {
      "fullUrl": "urn:uuid:61c3ddd4-7a54-4652-a939-1b9076852af8",
      "resource": {
        "resourceType": "Composition",
        "id": "61c3ddd4-7a54-4652-a939-1b9076852af8",
        "meta": {
          "profile": [
            "http://hl7.eu/fhir/laboratory/StructureDefinition/Composition-eu-lab"
          ]
        },
        "identifier": {
          "assigner": {
            "display": "HL7 Europe"
          },
          "system": "urn:oid:2.16.840.1.113883.2.51.999",
          "value": "bd343b20-dabc-4007-b4b4-7ab8e0e1d6b9"
        },
        "author": [
          {
            "reference": "urn:uuid:29f885c7-efb7-498c-a96b-a735975a94de"
          }
        ],
        "category": [
          {
            "coding": [
              {
                "code": "26436-6",
                "system": "http://loinc.org",
                "display": "Laboratory studies (set)"
              }
            ]
          }
        ],
        "type": {
          "coding": [
            {
              "code": "11502-2",
              "system": "http://loinc.org",
              "display": "Laboratory report"
            }
          ],
          "text": "Laboratory Report"
        },
        "section": [
          {
            "code": {
              "coding": [
                {
                  "code": "26436-6",
                  "system": "http://loinc.org",
                  "display": "Laboratory studies (set)"
                }
              ],
              "text": "Laboratory studies"
            },
            "section": [
              {
                "code": {
                  "coding": [
                    {
                      "code": "$18719-5",
                      "system": "http://loinc.org",
                      "display": "Chemistry studies (set)"
                    }
                  ],
                  "text": "Chemistry"
                },
                "entry": [
                  {
                    "reference": "urn:uuid:a02b03e4-8202-489a-9efa-847835e92d64"
                  },
                  {
                    "reference": "urn:uuid:be9a53fc-d759-4bd5-bdf4-992ecee54a40"
                  },
                  {
                    "reference": "urn:uuid:00c37850-7559-4c4e-98f6-f4b0eecd0bf1"
                  },
                  {
                    "reference": "urn:uuid:7f939575-5a3c-438b-8ab6-8cc859d4d86d"
                  },
                  {
                    "reference": "urn:uuid:6ebe66b9-308f-4cfe-b3ab-244707c92c97"
                  },
                  {
                    "reference": "urn:uuid:1c4f5750-d6a5-4c56-9e0a-f63dbcf50fa4"
                  },
                  {
                    "reference": "urn:uuid:68e3586a-be88-4285-b2ca-18efd1a27eab"
                  },
                  {
                    "reference": "urn:uuid:c0b26845-8942-4205-a974-937c5d8f8a66"
                  },
                  {
                    "reference": "urn:uuid:b48fdf61-ee70-47fe-9df1-25ad2376c00a"
                  },
                  {
                    "reference": "urn:uuid:4fa508ec-e0dc-47fc-970c-8cce8cc30378"
                  },
                  {
                    "reference": "urn:uuid:f0e665cb-36e1-4b70-bc14-70b08ed0b969"
                  }
                ],
                "text": {
                  "status": "generated",
                  "div": "<div xmlns=\"http://www.w3.org/1999/xhtml\"><h3>Chemistry</h3><table class=\"hl7__eu__lab__report\"><thead><tr><th>Test</th><th>08-NOV-2016</th><th>Reference&#xA0;Range</th><th>Unit</th></tr></thead><tbody><tr><td>pH of Arterial blood</td><td><strong>7.2 L</strong></td><td>7.35 - 7.45</td><td>[pH]</td></tr><tr><td>Carbon dioxide [Partial pressure] in Arterial blood</td><td>36.3</td><td>35 - 45</td><td>mm[Hg]</td></tr><tr><td>Oxygen [Partial pressure] in Arterial blood</td><td>95.3</td><td>75 - 100</td><td>mm[Hg]</td></tr><tr><td>Bicarbonate [Moles/volume] in Arterial blood</td><td>24.2</td><td>22 - 32</td><td>mmol/L</td></tr><tr><td>Oxygen saturation in Arterial blood</td><td><strong>91.0 L</strong></td><td>95 - 100</td><td>%</td></tr><tr><td>pH of Venous blood</td><td>7.4</td><td>7.35 - 7.45</td><td>[pH]</td></tr><tr><td>Carbon dioxide [Partial pressure] in Venous blood</td><td><strong>49.1 H</strong></td><td>42 - 48</td><td>mm[Hg]</td></tr><tr><td>Oxygen [Partial pressure] in Venous blood</td><td>45.9</td><td>35 - 85</td><td>mm[Hg]</td></tr><tr><td>Bicarbonate [Moles/volume] in Venous blood</td><td>26.0</td><td>22 - 31</td><td>mmol/L</td></tr><tr><td>Carbon dioxide, total [Moles/volume] in Venous blood</td><td>0.9</td><td>0.8 - 1.3</td><td>mmol/L</td></tr><tr><td>Magnesium [Mass/volume] in Serum or Plasma</td><td>2.3</td><td>1.8 - 2.3</td><td>mg/dL</td></tr></tbody></table></div>"
                },
                "title": "Chemistry"
              },
              {
                "code": {
                  "coding": [
                    {
                      "code": "$18720-3",
                      "system": "http://loinc.org",
                      "display": "Coagulation studies (set)"
                    }
                  ],
                  "text": "Coagulation"
                },
                "entry": [
                  {
                    "reference": "urn:uuid:1ee03e6a-2a10-4f60-a569-f6ecaa4171b5"
                  }
                ],
                "text": {
                  "status": "generated",
                  "div": "<div xmlns=\"http://www.w3.org/1999/xhtml\"><h3>Coagulation</h3><table class=\"hl7__eu__lab__report\"><thead><tr><th>Test</th><th>08-NOV-2016</th><th>Reference&#xA0;Range</th><th>Unit</th></tr></thead><tbody><tr><td>Activated clotting time (ACT) of Blood by Coagulation assay</td><td><strong>116.5 L</strong></td><td>120 - 180</td><td>s</td></tr></tbody></table></div>"
                },
                "title": "Coagulation"
              }
            ],
            "title": "Laboratory Report"
          },
          {
            "text": {
              "status": "generated",
              "div": "<div xmlns=\"http://www.w3.org/1999/xhtml\"><h3>Annotation</h3><table class=\"hl7__eu__lab__report\"><tr><th>Conclusion and Recommendations based on this report and previous findings known to us</th></tr><tr><td>The results indicate mild arterial acidemia (low arterial pH) with low oxygen saturation, suggesting possible respiratory compromise or hypoxemia. Venous pCO₂ is slightly elevated, which may reflect hypoventilation or impaired gas exchange. Activated clotting time is mildly decreased. Other parameters are within normal limits. Clinical correlation and further evaluation of respiratory and coagulation status are recommended.</td></tr></table></div>"
            },
            "code": {
              "coding": [
                {
                  "system": "http://loinc.org",
                  "code": "48767-8",
                  "display": "Annotation comment"
                }
              ]
            },
            "title": "Annotation comment"
          }
        ],
        "status": "final",
        "subject": {
          "reference": "urn:uuid:e8192b89-58b1-4e68-ab4d-d42e2f3c351c",
          "display": "Ludmila Vávrová"
        },
        "date": "2016-11-08T09:40:59Z",
        "title": "Laboratory Report",
        "confidentiality": "N"
      }
    },
    {
      "fullUrl": "urn:uuid:22679e3d-40fa-481f-8a31-98a2557c1056",
      "resource": {
        "resourceType": "DiagnosticReport",
        "id": "22679e3d-40fa-481f-8a31-98a2557c1056",
        "meta": {
          "profile": [
            "http://hl7.eu/fhir/laboratory/StructureDefinition/DiagnosticReport-eu-lab"
          ]
        },
        "identifier": [
          {
            "assigner": {
              "display": "HL7 Europe"
            },
            "system": "urn:oid:2.16.840.1.113883.2.51.999",
            "value": "bb74a01c-398c-4ab5-b069-d548490ba36d"
          }
        ],
        "extension": [
          {
            "url": "http://hl7.org/fhir/5.0/StructureDefinition/extension-DiagnosticReport.composition",
            "valueReference": {
              "reference": "urn:uuid:bd343b20-dabc-4007-b4b4-7ab8e0e1d6b9"
            }
          }
        ],
        "category": [
          {
            "coding": [
              {
                "code": "26436-6",
                "system": "http://loinc.org",
                "display": "Laboratory studies (set)"
              }
            ]
          }
        ],
        "specimen": [
          {
            "reference": "urn:uuid:0046ac8a-6d7d-4653-aab4-c9684f2ab58c"
          },
          {
            "reference": "urn:uuid:1059c57c-efc3-4144-bb10-a5a2ed20d759"
          },
          {
            "reference": "urn:uuid:f23b19ee-e206-4011-8af2-616e7e46b998"
          },
          {
            "reference": "urn:uuid:69a0c0c2-9da2-4351-92d7-809da7af1766"
          }
        ],
        "result": [
          {
            "reference": "urn:uuid:1ee03e6a-2a10-4f60-a569-f6ecaa4171b5"
          },
          {
            "reference": "urn:uuid:a02b03e4-8202-489a-9efa-847835e92d64"
          },
          {
            "reference": "urn:uuid:be9a53fc-d759-4bd5-bdf4-992ecee54a40"
          },
          {
            "reference": "urn:uuid:00c37850-7559-4c4e-98f6-f4b0eecd0bf1"
          },
          {
            "reference": "urn:uuid:7f939575-5a3c-438b-8ab6-8cc859d4d86d"
          },
          {
            "reference": "urn:uuid:6ebe66b9-308f-4cfe-b3ab-244707c92c97"
          },
          {
            "reference": "urn:uuid:1c4f5750-d6a5-4c56-9e0a-f63dbcf50fa4"
          },
          {
            "reference": "urn:uuid:68e3586a-be88-4285-b2ca-18efd1a27eab"
          },
          {
            "reference": "urn:uuid:c0b26845-8942-4205-a974-937c5d8f8a66"
          },
          {
            "reference": "urn:uuid:b48fdf61-ee70-47fe-9df1-25ad2376c00a"
          },
          {
            "reference": "urn:uuid:4fa508ec-e0dc-47fc-970c-8cce8cc30378"
          },
          {
            "reference": "urn:uuid:f0e665cb-36e1-4b70-bc14-70b08ed0b969"
          }
        ],
        "status": "registered",
        "code": {
          "coding": [
            {
              "code": "11502-2",
              "system": "http://loinc.org",
              "display": "Laboratory report"
            }
          ]
        },
        "subject": {
          "reference": "urn:uuid:e8192b89-58b1-4e68-ab4d-d42e2f3c351c",
          "display": "Ludmila Vávrová"
        }
      }
    },
    {
      "fullUrl": "urn:uuid:e8192b89-58b1-4e68-ab4d-d42e2f3c351c",
      "resource": {
        "resourceType": "Patient",
        "id": "e8192b89-58b1-4e68-ab4d-d42e2f3c351c",
        "meta": {
          "security": [
            {
              "system": "http://terminology.hl7.org/CodeSystem/v3-ActReason",
              "code": "HTEST"
            },
            {
              "system": "http://terminology.hl7.org/CodeSystem/v3-ActReason",
              "code": "TRAIN"
            }
          ],
          "tag": [
            {
              "system": "https://synderai.net/fhir/CodeSystem/tags",
              "code": "synthetic",
              "display": "SYNDERAI Synthetic data"
            }
          ],
          "profile": [
            "http://hl7.eu/fhir/base/StructureDefinition/patient-eu-core"
          ]
        },
        "identifier": [
          {
            "type": {
              "coding": [
                {
                  "code": "PT",
                  "system": "http://terminology.hl7.org/CodeSystem/v2-0203"
                }
              ]
            },
            "system": "http://ec.europa.eu/identifier/eci",
            "value": "1992-540676-1"
          },
          {
            "type": {
              "coding": [
                {
                  "code": "MR",
                  "system": "http://terminology.hl7.org/CodeSystem/v2-0203"
                }
              ]
            },
            "system": "http://local.setting.eu/identifier",
            "value": "7c533aae-6e7f-89aa-dfdc-8ff900a5990b"
          }
        ],
        "name": [
          {
            "family": "Vávrová"
          },
          {
            "given": [
              "Ludmila"
            ]
          },
          {
            "text": "Ludmila Vávrová"
          }
        ],
        "address": [
          {
            "line": [
              "Šárovo Kolo 116"
            ],
            "use": "home",
            "type": "physical",
            "postalCode": "29471",
            "city": "Bakov nad Jizerou",
            "country": "Czechia"
          }
        ],
        "telecom": [
          {
            "system": "phone",
            "value": "00420 607 610 889"
          }
        ],
        "extension": [
          {
            "url": "http://hl7.org/fhir/StructureDefinition/patient-nationality",
            "valueCodeableConcept": {
              "coding": [
                {
                  "code": "CZ",
                  "system": "http://hl7.org/fhir/ValueSet/country"
                }
              ]
            }
          }
        ],
        "text": {
          "status": "generated",
          "div": "<div xmlns=\"http://www.w3.org/1999/xhtml\"><table class=\"hl7__ips\"><tr><td>Ludmila Vávrová</td><td>female</td><td>08-Aug-1940</td></tr></table></div>"
        },
        "gender": "female",
        "birthDate": "1940-08-08"
      }
    },
    {
      "fullUrl": "urn:uuid:571159de-6f20-4cf4-9c10-fc32884d3afc",
      "resource": {
        "resourceType": "ServiceRequest",
        "id": "571159de-6f20-4cf4-9c10-fc32884d3afc",
        "meta": {
          "profile": [
            "http://hl7.eu/fhir/laboratory/StructureDefinition/ServiceRequest-eu-lab"
          ]
        },
        "identifier": [
          {
            "system": "http://example.org",
            "value": "231c2b74-7951-4aac-b147-9097bee3a1f8"
          }
        ],
        "specimen": [
          {
            "reference": "urn:uuid:0046ac8a-6d7d-4653-aab4-c9684f2ab58c"
          },
          {
            "reference": "urn:uuid:1059c57c-efc3-4144-bb10-a5a2ed20d759"
          },
          {
            "reference": "urn:uuid:f23b19ee-e206-4011-8af2-616e7e46b998"
          },
          {
            "reference": "urn:uuid:69a0c0c2-9da2-4351-92d7-809da7af1766"
          }
        ],
        "reasonCode": [
          {
            "coding": [
              {
                "code": "414545008",
                "system": "http://snomed.info/sct",
                "display": "Ischemic heart disease"
              }
            ]
          },
          {
            "coding": [
              {
                "code": "64859006",
                "system": "http://snomed.info/sct",
                "display": "Osteoporosis"
              }
            ]
          },
          {
            "coding": [
              {
                "code": "6525002",
                "system": "http://snomed.info/sct",
                "display": "Dependent drug abuse"
              }
            ]
          },
          {
            "coding": [
              {
                "code": "55822004",
                "system": "http://snomed.info/sct",
                "display": "Hyperlipidemia"
              }
            ]
          },
          {
            "coding": [
              {
                "code": "124171000119105",
                "system": "http://snomed.info/sct",
                "display": "Chronic intractable migraine without aura"
              }
            ]
          },
          {
            "coding": [
              {
                "code": "196416002",
                "system": "http://snomed.info/sct",
                "display": "Impacted molars"
              }
            ]
          },
          {
            "coding": [
              {
                "code": "239872002",
                "system": "http://snomed.info/sct",
                "display": "Osteoarthritis of hip"
              }
            ]
          },
          {
            "coding": [
              {
                "code": "40055000",
                "system": "http://snomed.info/sct",
                "display": "Chronic sinusitis"
              }
            ]
          }
        ],
        "status": "active",
        "intent": "order",
        "code": {
          "coding": [
            {
              "code": "108252007",
              "system": "http://snomed.info/sct",
              "display": "Laboratory procedure"
            }
          ]
        },
        "subject": {
          "reference": "urn:uuid:e8192b89-58b1-4e68-ab4d-d42e2f3c351c",
          "display": "Ludmila Vávrová"
        },
        "requester": {
          "reference": "urn:uuid:f8bce962-1b8d-402f-9200-6c15f53a3b6c"
        }
      }
    },
    {
      "fullUrl": "urn:uuid:f8bce962-1b8d-402f-9200-6c15f53a3b6c",
      "resource": {
        "resourceType": "PractitionerRole",
        "id": "f8bce962-1b8d-402f-9200-6c15f53a3b6c",
        "meta": {
          "profile": [
            "http://hl7.eu/fhir/base/StructureDefinition/practitionerRole-eu"
          ]
        },
        "text": {
          "status": "generated",
          "div": "<div xmlns=\"http://www.w3.org/1999/xhtml\">Provider Role Id: f8bce962-1b8d-402f-9200-6c15f53a3b6c</div>"
        },
        "organization": {
          "reference": "urn:uuid:78be54f0-645a-48b1-9dec-42f3edd62351"
        }
      }
    },
    {
      "fullUrl": "urn:uuid:78be54f0-645a-48b1-9dec-42f3edd62351",
      "resource": {
        "resourceType": "Organization",
        "id": "78be54f0-645a-48b1-9dec-42f3edd62351",
        "meta": {
          "profile": [
            "http://hl7.eu/fhir/base/StructureDefinition/organization-eu"
          ]
        },
        "identifier": [
          {
            "assigner": {
              "display": "HL7 Europe"
            },
            "system": "urn:oid:2.16.840.1.113883.2.51.999",
            "value": "d7a3d4d9-7c60-4d04-a79b-568069123c59"
          }
        ],
        "address": [
          {
            "city": "Kosmonosy",
            "postalCode": "293 06",
            "country": "Czechia"
          }
        ],
        "text": {
          "status": "generated",
          "div": "<div xmlns=\"http://www.w3.org/1999/xhtml\">Provider Organization: Psychiatrická nemocnice Kosmonosy</div>"
        },
        "name": "Psychiatrická nemocnice Kosmonosy"
      }
    },
    {
      "fullUrl": "urn:uuid:0046ac8a-6d7d-4653-aab4-c9684f2ab58c",
      "resource": {
        "resourceType": "Specimen",
        "id": "0046ac8a-6d7d-4653-aab4-c9684f2ab58c",
        "meta": {
          "profile": [
            "http://hl7.eu/fhir/laboratory/StructureDefinition/Specimen-eu-lab"
          ]
        },
        "collection": {
          "collectedDateTime": "2016-11-08"
        },
        "text": {
          "status": "generated",
          "div": "<div xmlns=\"http://www.w3.org/1999/xhtml\"><table class=\"hl7__eu__lab__report\"><tr><th>Specimen</th><th>Collection Date</th></tr><tr><td>Whole blood specimen (specimen)</td><td><span class=\"nb\">08-Nov-2016</span></td></tr></table></div>"
        },
        "type": {
          "coding": [
            {
              "code": "258580003",
              "system": "http://snomed.info/sct",
              "display": "Whole blood specimen (specimen)"
            }
          ]
        }
      }
    },
    {
      "fullUrl": "urn:uuid:1059c57c-efc3-4144-bb10-a5a2ed20d759",
      "resource": {
        "resourceType": "Specimen",
        "id": "1059c57c-efc3-4144-bb10-a5a2ed20d759",
        "meta": {
          "profile": [
            "http://hl7.eu/fhir/laboratory/StructureDefinition/Specimen-eu-lab"
          ]
        },
        "collection": {
          "collectedDateTime": "2016-11-08"
        },
        "text": {
          "status": "generated",
          "div": "<div xmlns=\"http://www.w3.org/1999/xhtml\"><table class=\"hl7__eu__lab__report\"><tr><th>Specimen</th><th>Collection Date</th></tr><tr><td>Arterial blood specimen</td><td><span class=\"nb\">08-Nov-2016</span></td></tr></table></div>"
        },
        "type": {
          "coding": [
            {
              "code": "122552005",
              "system": "http://snomed.info/sct",
              "display": "Arterial blood specimen"
            }
          ]
        }
      }
    },
    {
      "fullUrl": "urn:uuid:f23b19ee-e206-4011-8af2-616e7e46b998",
      "resource": {
        "resourceType": "Specimen",
        "id": "f23b19ee-e206-4011-8af2-616e7e46b998",
        "meta": {
          "profile": [
            "http://hl7.eu/fhir/laboratory/StructureDefinition/Specimen-eu-lab"
          ]
        },
        "collection": {
          "collectedDateTime": "2016-11-08"
        },
        "text": {
          "status": "generated",
          "div": "<div xmlns=\"http://www.w3.org/1999/xhtml\"><table class=\"hl7__eu__lab__report\"><tr><th>Specimen</th><th>Collection Date</th></tr><tr><td>Venous blood specimen</td><td><span class=\"nb\">08-Nov-2016</span></td></tr></table></div>"
        },
        "type": {
          "coding": [
            {
              "code": "122555007",
              "system": "http://snomed.info/sct",
              "display": "Venous blood specimen"
            }
          ]
        }
      }
    },
    {
      "fullUrl": "urn:uuid:69a0c0c2-9da2-4351-92d7-809da7af1766",
      "resource": {
        "resourceType": "Specimen",
        "id": "69a0c0c2-9da2-4351-92d7-809da7af1766",
        "meta": {
          "profile": [
            "http://hl7.eu/fhir/laboratory/StructureDefinition/Specimen-eu-lab"
          ]
        },
        "collection": {
          "collectedDateTime": "2016-11-08"
        },
        "text": {
          "status": "generated",
          "div": "<div xmlns=\"http://www.w3.org/1999/xhtml\"><table class=\"hl7__eu__lab__report\"><tr><th>Specimen</th><th>Collection Date</th></tr><tr><td>Acellular blood (serum or plasma) specimen</td><td><span class=\"nb\">08-Nov-2016</span></td></tr></table></div>"
        },
        "type": {
          "coding": [
            {
              "code": "122592007",
              "system": "http://snomed.info/sct",
              "display": "Acellular blood (serum or plasma) specimen"
            }
          ]
        }
      }
    },
    {
      "fullUrl": "urn:uuid:1ee03e6a-2a10-4f60-a569-f6ecaa4171b5",
      "resource": {
        "resourceType": "Observation",
        "id": "1ee03e6a-2a10-4f60-a569-f6ecaa4171b5",
        "meta": {
          "profile": [
            "http://hl7.eu/fhir/laboratory/StructureDefinition/Observation-resultslab-eu-lab"
          ]
        },
        "performer": [
          {
            "display": "The Central European Lab"
          }
        ],
        "category": [
          {
            "coding": [
              {
                "system": "http://terminology.hl7.org/CodeSystem/observation-category",
                "code": "laboratory"
              }
            ]
          }
        ],
        "code": {
          "coding": [
            {
              "code": "3184-9",
              "system": "http://loinc.org",
              "display": "Activated clotting time (ACT) of Blood by Coagulation assay"
            }
          ],
          "text": "Activated clotting time (ACT) of Blood by Coagulation assay"
        },
        "valueQuantity": {
          "system": "http://unitsofmeasure.org",
          "value": 116.5,
          "unit": "s",
          "code": "s"
        },
        "referenceRange": [
          {
            "low": {
              "value": 120,
              "code": "s",
              "system": "http://unitsofmeasure.org"
            }
          },
          {
            "high": {
              "value": 180,
              "code": "s",
              "system": "http://unitsofmeasure.org"
            }
          }
        ],
        "interpretation": [
          {
            "coding": [
              {
                "code": "L",
                "system": "http://terminology.hl7.org/CodeSystem/v3-ObservationInterpretation",
                "display": "Low"
              }
            ]
          }
        ],
        "text": {
          "status": "generated",
          "div": "<div xmlns=\"http://www.w3.org/1999/xhtml\"><table class=\"hl7__eu__lab__report\"><tr><th>Test</th><th>08-Nov-2016</th><th>Reference&#xA0;Range</th><th>Unit</th></tr><tr><td>Activated clotting time (ACT) of Blood by Coagulation assay</td><td>116.5</td><td>120 - 180</td><td>L</td><td>s</td></tr></table></div>"
        },
        "status": "final",
        "subject": {
          "reference": "urn:uuid:e8192b89-58b1-4e68-ab4d-d42e2f3c351c",
          "display": "Ludmila Vávrová"
        },
        "effectiveDateTime": "2016-11-08T08:40:59Z",
        "specimen": {
          "reference": "urn:uuid:0046ac8a-6d7d-4653-aab4-c9684f2ab58c"
        }
      }
    },
    {
      "fullUrl": "urn:uuid:a02b03e4-8202-489a-9efa-847835e92d64",
      "resource": {
        "resourceType": "Observation",
        "id": "a02b03e4-8202-489a-9efa-847835e92d64",
        "meta": {
          "profile": [
            "http://hl7.eu/fhir/laboratory/StructureDefinition/Observation-resultslab-eu-lab"
          ]
        },
        "performer": [
          {
            "display": "The Central European Lab"
          }
        ],
        "category": [
          {
            "coding": [
              {
                "system": "http://terminology.hl7.org/CodeSystem/observation-category",
                "code": "laboratory"
              }
            ]
          }
        ],
        "code": {
          "coding": [
            {
              "code": "2744-1",
              "system": "http://loinc.org",
              "display": "pH of Arterial blood"
            }
          ],
          "text": "pH of Arterial blood"
        },
        "valueQuantity": {
          "system": "http://unitsofmeasure.org",
          "value": 7.2,
          "unit": "[pH]",
          "code": "[pH]"
        },
        "referenceRange": [
          {
            "low": {
              "value": 7.35,
              "code": "pH",
              "system": "http://unitsofmeasure.org"
            }
          },
          {
            "high": {
              "value": 7.45,
              "code": "pH",
              "system": "http://unitsofmeasure.org"
            }
          }
        ],
        "interpretation": [
          {
            "coding": [
              {
                "code": "L",
                "system": "http://terminology.hl7.org/CodeSystem/v3-ObservationInterpretation",
                "display": "Low"
              }
            ]
          }
        ],
        "text": {
          "status": "generated",
          "div": "<div xmlns=\"http://www.w3.org/1999/xhtml\"><table class=\"hl7__eu__lab__report\"><tr><th>Test</th><th>08-Nov-2016</th><th>Reference&#xA0;Range</th><th>Unit</th></tr><tr><td>pH of Arterial blood</td><td>7.2</td><td>7.35 - 7.45</td><td>L</td><td>[pH]</td></tr></table></div>"
        },
        "status": "final",
        "subject": {
          "reference": "urn:uuid:e8192b89-58b1-4e68-ab4d-d42e2f3c351c",
          "display": "Ludmila Vávrová"
        },
        "effectiveDateTime": "2016-11-08T08:40:59Z",
        "specimen": {
          "reference": "urn:uuid:1059c57c-efc3-4144-bb10-a5a2ed20d759"
        }
      }
    },
    {
      "fullUrl": "urn:uuid:be9a53fc-d759-4bd5-bdf4-992ecee54a40",
      "resource": {
        "resourceType": "Observation",
        "id": "be9a53fc-d759-4bd5-bdf4-992ecee54a40",
        "meta": {
          "profile": [
            "http://hl7.eu/fhir/laboratory/StructureDefinition/Observation-resultslab-eu-lab"
          ]
        },
        "performer": [
          {
            "display": "The Central European Lab"
          }
        ],
        "category": [
          {
            "coding": [
              {
                "system": "http://terminology.hl7.org/CodeSystem/observation-category",
                "code": "laboratory"
              }
            ]
          }
        ],
        "code": {
          "coding": [
            {
              "code": "2019-8",
              "system": "http://loinc.org",
              "display": "Carbon dioxide [Partial pressure] in Arterial blood"
            }
          ],
          "text": "Carbon dioxide [Partial pressure] in Arterial blood"
        },
        "valueQuantity": {
          "system": "http://unitsofmeasure.org",
          "value": 36.3,
          "unit": "mm[Hg]",
          "code": "mm[Hg]"
        },
        "referenceRange": [
          {
            "low": {
              "value": 35,
              "code": "mm[Hg]",
              "system": "http://unitsofmeasure.org"
            }
          },
          {
            "high": {
              "value": 45,
              "code": "mm[Hg]",
              "system": "http://unitsofmeasure.org"
            }
          }
        ],
        "text": {
          "status": "generated",
          "div": "<div xmlns=\"http://www.w3.org/1999/xhtml\"><table class=\"hl7__eu__lab__report\"><tr><th>Test</th><th>08-Nov-2016</th><th>Reference&#xA0;Range</th><th>Unit</th></tr><tr><td>Carbon dioxide [Partial pressure] in Arterial blood</td><td>36.3</td><td>35 - 45</td><td></td><td>mm[Hg]</td></tr></table></div>"
        },
        "status": "final",
        "subject": {
          "reference": "urn:uuid:e8192b89-58b1-4e68-ab4d-d42e2f3c351c",
          "display": "Ludmila Vávrová"
        },
        "effectiveDateTime": "2016-11-08T08:40:59Z",
        "specimen": {
          "reference": "urn:uuid:1059c57c-efc3-4144-bb10-a5a2ed20d759"
        }
      }
    },
    {
      "fullUrl": "urn:uuid:00c37850-7559-4c4e-98f6-f4b0eecd0bf1",
      "resource": {
        "resourceType": "Observation",
        "id": "00c37850-7559-4c4e-98f6-f4b0eecd0bf1",
        "meta": {
          "profile": [
            "http://hl7.eu/fhir/laboratory/StructureDefinition/Observation-resultslab-eu-lab"
          ]
        },
        "performer": [
          {
            "display": "The Central European Lab"
          }
        ],
        "category": [
          {
            "coding": [
              {
                "system": "http://terminology.hl7.org/CodeSystem/observation-category",
                "code": "laboratory"
              }
            ]
          }
        ],
        "code": {
          "coding": [
            {
              "code": "2703-7",
              "system": "http://loinc.org",
              "display": "Oxygen [Partial pressure] in Arterial blood"
            }
          ],
          "text": "Oxygen [Partial pressure] in Arterial blood"
        },
        "valueQuantity": {
          "system": "http://unitsofmeasure.org",
          "value": 95.3,
          "unit": "mm[Hg]",
          "code": "mm[Hg]"
        },
        "referenceRange": [
          {
            "low": {
              "value": 75,
              "code": "mm[Hg]",
              "system": "http://unitsofmeasure.org"
            }
          },
          {
            "high": {
              "value": 100,
              "code": "mm[Hg]",
              "system": "http://unitsofmeasure.org"
            }
          }
        ],
        "text": {
          "status": "generated",
          "div": "<div xmlns=\"http://www.w3.org/1999/xhtml\"><table class=\"hl7__eu__lab__report\"><tr><th>Test</th><th>08-Nov-2016</th><th>Reference&#xA0;Range</th><th>Unit</th></tr><tr><td>Oxygen [Partial pressure] in Arterial blood</td><td>95.3</td><td>75 - 100</td><td></td><td>mm[Hg]</td></tr></table></div>"
        },
        "status": "final",
        "subject": {
          "reference": "urn:uuid:e8192b89-58b1-4e68-ab4d-d42e2f3c351c",
          "display": "Ludmila Vávrová"
        },
        "effectiveDateTime": "2016-11-08T08:40:59Z",
        "specimen": {
          "reference": "urn:uuid:1059c57c-efc3-4144-bb10-a5a2ed20d759"
        }
      }
    },
    {
      "fullUrl": "urn:uuid:7f939575-5a3c-438b-8ab6-8cc859d4d86d",
      "resource": {
        "resourceType": "Observation",
        "id": "7f939575-5a3c-438b-8ab6-8cc859d4d86d",
        "meta": {
          "profile": [
            "http://hl7.eu/fhir/laboratory/StructureDefinition/Observation-resultslab-eu-lab"
          ]
        },
        "performer": [
          {
            "display": "The Central European Lab"
          }
        ],
        "category": [
          {
            "coding": [
              {
                "system": "http://terminology.hl7.org/CodeSystem/observation-category",
                "code": "laboratory"
              }
            ]
          }
        ],
        "code": {
          "coding": [
            {
              "code": "1960-4",
              "system": "http://loinc.org",
              "display": "Bicarbonate [Moles/volume] in Arterial blood"
            }
          ],
          "text": "Bicarbonate [Moles/volume] in Arterial blood"
        },
        "valueQuantity": {
          "system": "http://unitsofmeasure.org",
          "value": 24.2,
          "unit": "mmol/L",
          "code": "mmol/L"
        },
        "referenceRange": [
          {
            "low": {
              "value": 22,
              "code": "mmol/L",
              "system": "http://unitsofmeasure.org"
            }
          },
          {
            "high": {
              "value": 32,
              "code": "mmol/L",
              "system": "http://unitsofmeasure.org"
            }
          }
        ],
        "text": {
          "status": "generated",
          "div": "<div xmlns=\"http://www.w3.org/1999/xhtml\"><table class=\"hl7__eu__lab__report\"><tr><th>Test</th><th>08-Nov-2016</th><th>Reference&#xA0;Range</th><th>Unit</th></tr><tr><td>Bicarbonate [Moles/volume] in Arterial blood</td><td>24.2</td><td>22 - 32</td><td></td><td>mmol/L</td></tr></table></div>"
        },
        "status": "final",
        "subject": {
          "reference": "urn:uuid:e8192b89-58b1-4e68-ab4d-d42e2f3c351c",
          "display": "Ludmila Vávrová"
        },
        "effectiveDateTime": "2016-11-08T08:40:59Z",
        "specimen": {
          "reference": "urn:uuid:1059c57c-efc3-4144-bb10-a5a2ed20d759"
        }
      }
    },
    {
      "fullUrl": "urn:uuid:6ebe66b9-308f-4cfe-b3ab-244707c92c97",
      "resource": {
        "resourceType": "Observation",
        "id": "6ebe66b9-308f-4cfe-b3ab-244707c92c97",
        "meta": {
          "profile": [
            "http://hl7.eu/fhir/laboratory/StructureDefinition/Observation-resultslab-eu-lab"
          ]
        },
        "performer": [
          {
            "display": "The Central European Lab"
          }
        ],
        "category": [
          {
            "coding": [
              {
                "system": "http://terminology.hl7.org/CodeSystem/observation-category",
                "code": "laboratory"
              }
            ]
          }
        ],
        "code": {
          "coding": [
            {
              "code": "2708-6",
              "system": "http://loinc.org",
              "display": "Oxygen saturation in Arterial blood"
            }
          ],
          "text": "Oxygen saturation in Arterial blood"
        },
        "valueQuantity": {
          "system": "http://unitsofmeasure.org",
          "value": 91,
          "unit": "%",
          "code": "%"
        },
        "referenceRange": [
          {
            "low": {
              "value": 95,
              "code": "%",
              "system": "http://unitsofmeasure.org"
            }
          },
          {
            "high": {
              "value": 100,
              "code": "%",
              "system": "http://unitsofmeasure.org"
            }
          }
        ],
        "interpretation": [
          {
            "coding": [
              {
                "code": "L",
                "system": "http://terminology.hl7.org/CodeSystem/v3-ObservationInterpretation",
                "display": "Low"
              }
            ]
          }
        ],
        "text": {
          "status": "generated",
          "div": "<div xmlns=\"http://www.w3.org/1999/xhtml\"><table class=\"hl7__eu__lab__report\"><tr><th>Test</th><th>08-Nov-2016</th><th>Reference&#xA0;Range</th><th>Unit</th></tr><tr><td>Oxygen saturation in Arterial blood</td><td>91.0</td><td>95 - 100</td><td>L</td><td>%</td></tr></table></div>"
        },
        "status": "final",
        "subject": {
          "reference": "urn:uuid:e8192b89-58b1-4e68-ab4d-d42e2f3c351c",
          "display": "Ludmila Vávrová"
        },
        "effectiveDateTime": "2016-11-08T08:40:59Z",
        "specimen": {
          "reference": "urn:uuid:1059c57c-efc3-4144-bb10-a5a2ed20d759"
        }
      }
    },
    {
      "fullUrl": "urn:uuid:1c4f5750-d6a5-4c56-9e0a-f63dbcf50fa4",
      "resource": {
        "resourceType": "Observation",
        "id": "1c4f5750-d6a5-4c56-9e0a-f63dbcf50fa4",
        "meta": {
          "profile": [
            "http://hl7.eu/fhir/laboratory/StructureDefinition/Observation-resultslab-eu-lab"
          ]
        },
        "performer": [
          {
            "display": "The Central European Lab"
          }
        ],
        "category": [
          {
            "coding": [
              {
                "system": "http://terminology.hl7.org/CodeSystem/observation-category",
                "code": "laboratory"
              }
            ]
          }
        ],
        "code": {
          "coding": [
            {
              "code": "2746-6",
              "system": "http://loinc.org",
              "display": "pH of Venous blood"
            }
          ],
          "text": "pH of Venous blood"
        },
        "valueQuantity": {
          "system": "http://unitsofmeasure.org",
          "value": 7.4,
          "unit": "[pH]",
          "code": "[pH]"
        },
        "referenceRange": [
          {
            "low": {
              "value": 7.35,
              "code": "pH",
              "system": "http://unitsofmeasure.org"
            }
          },
          {
            "high": {
              "value": 7.45,
              "code": "pH",
              "system": "http://unitsofmeasure.org"
            }
          }
        ],
        "text": {
          "status": "generated",
          "div": "<div xmlns=\"http://www.w3.org/1999/xhtml\"><table class=\"hl7__eu__lab__report\"><tr><th>Test</th><th>08-Nov-2016</th><th>Reference&#xA0;Range</th><th>Unit</th></tr><tr><td>pH of Venous blood</td><td>7.4</td><td>7.35 - 7.45</td><td></td><td>[pH]</td></tr></table></div>"
        },
        "status": "final",
        "subject": {
          "reference": "urn:uuid:e8192b89-58b1-4e68-ab4d-d42e2f3c351c",
          "display": "Ludmila Vávrová"
        },
        "effectiveDateTime": "2016-11-08T08:40:59Z",
        "specimen": {
          "reference": "urn:uuid:f23b19ee-e206-4011-8af2-616e7e46b998"
        }
      }
    },
    {
      "fullUrl": "urn:uuid:68e3586a-be88-4285-b2ca-18efd1a27eab",
      "resource": {
        "resourceType": "Observation",
        "id": "68e3586a-be88-4285-b2ca-18efd1a27eab",
        "meta": {
          "profile": [
            "http://hl7.eu/fhir/laboratory/StructureDefinition/Observation-resultslab-eu-lab"
          ]
        },
        "performer": [
          {
            "display": "The Central European Lab"
          }
        ],
        "category": [
          {
            "coding": [
              {
                "system": "http://terminology.hl7.org/CodeSystem/observation-category",
                "code": "laboratory"
              }
            ]
          }
        ],
        "code": {
          "coding": [
            {
              "code": "2021-4",
              "system": "http://loinc.org",
              "display": "Carbon dioxide [Partial pressure] in Venous blood"
            }
          ],
          "text": "Carbon dioxide [Partial pressure] in Venous blood"
        },
        "valueQuantity": {
          "system": "http://unitsofmeasure.org",
          "value": 49.1,
          "unit": "mm[Hg]",
          "code": "mm[Hg]"
        },
        "referenceRange": [
          {
            "low": {
              "value": 42,
              "code": "mm[Hg]",
              "system": "http://unitsofmeasure.org"
            }
          },
          {
            "high": {
              "value": 48,
              "code": "mm[Hg]",
              "system": "http://unitsofmeasure.org"
            }
          }
        ],
        "interpretation": [
          {
            "coding": [
              {
                "code": "H",
                "system": "http://terminology.hl7.org/CodeSystem/v3-ObservationInterpretation",
                "display": "High"
              }
            ]
          }
        ],
        "text": {
          "status": "generated",
          "div": "<div xmlns=\"http://www.w3.org/1999/xhtml\"><table class=\"hl7__eu__lab__report\"><tr><th>Test</th><th>08-Nov-2016</th><th>Reference&#xA0;Range</th><th>Unit</th></tr><tr><td>Carbon dioxide [Partial pressure] in Venous blood</td><td>49.1</td><td>42 - 48</td><td>H</td><td>mm[Hg]</td></tr></table></div>"
        },
        "status": "final",
        "subject": {
          "reference": "urn:uuid:e8192b89-58b1-4e68-ab4d-d42e2f3c351c",
          "display": "Ludmila Vávrová"
        },
        "effectiveDateTime": "2016-11-08T08:40:59Z",
        "specimen": {
          "reference": "urn:uuid:f23b19ee-e206-4011-8af2-616e7e46b998"
        }
      }
    },
    {
      "fullUrl": "urn:uuid:c0b26845-8942-4205-a974-937c5d8f8a66",
      "resource": {
        "resourceType": "Observation",
        "id": "c0b26845-8942-4205-a974-937c5d8f8a66",
        "meta": {
          "profile": [
            "http://hl7.eu/fhir/laboratory/StructureDefinition/Observation-resultslab-eu-lab"
          ]
        },
        "performer": [
          {
            "display": "The Central European Lab"
          }
        ],
        "category": [
          {
            "coding": [
              {
                "system": "http://terminology.hl7.org/CodeSystem/observation-category",
                "code": "laboratory"
              }
            ]
          }
        ],
        "code": {
          "coding": [
            {
              "code": "2705-2",
              "system": "http://loinc.org",
              "display": "Oxygen [Partial pressure] in Venous blood"
            }
          ],
          "text": "Oxygen [Partial pressure] in Venous blood"
        },
        "valueQuantity": {
          "system": "http://unitsofmeasure.org",
          "value": 45.9,
          "unit": "mm[Hg]",
          "code": "mm[Hg]"
        },
        "referenceRange": [
          {
            "low": {
              "value": 35,
              "code": "mm[Hg]",
              "system": "http://unitsofmeasure.org"
            }
          },
          {
            "high": {
              "value": 85,
              "code": "mm[Hg]",
              "system": "http://unitsofmeasure.org"
            }
          }
        ],
        "text": {
          "status": "generated",
          "div": "<div xmlns=\"http://www.w3.org/1999/xhtml\"><table class=\"hl7__eu__lab__report\"><tr><th>Test</th><th>08-Nov-2016</th><th>Reference&#xA0;Range</th><th>Unit</th></tr><tr><td>Oxygen [Partial pressure] in Venous blood</td><td>45.9</td><td>35 - 85</td><td></td><td>mm[Hg]</td></tr></table></div>"
        },
        "status": "final",
        "subject": {
          "reference": "urn:uuid:e8192b89-58b1-4e68-ab4d-d42e2f3c351c",
          "display": "Ludmila Vávrová"
        },
        "effectiveDateTime": "2016-11-08T08:40:59Z",
        "specimen": {
          "reference": "urn:uuid:f23b19ee-e206-4011-8af2-616e7e46b998"
        }
      }
    },
    {
      "fullUrl": "urn:uuid:b48fdf61-ee70-47fe-9df1-25ad2376c00a",
      "resource": {
        "resourceType": "Observation",
        "id": "b48fdf61-ee70-47fe-9df1-25ad2376c00a",
        "meta": {
          "profile": [
            "http://hl7.eu/fhir/laboratory/StructureDefinition/Observation-resultslab-eu-lab"
          ]
        },
        "performer": [
          {
            "display": "The Central European Lab"
          }
        ],
        "category": [
          {
            "coding": [
              {
                "system": "http://terminology.hl7.org/CodeSystem/observation-category",
                "code": "laboratory"
              }
            ]
          }
        ],
        "code": {
          "coding": [
            {
              "code": "14627-4",
              "system": "http://loinc.org",
              "display": "Bicarbonate [Moles/volume] in Venous blood"
            }
          ],
          "text": "Bicarbonate [Moles/volume] in Venous blood"
        },
        "valueQuantity": {
          "system": "http://unitsofmeasure.org",
          "value": 26,
          "unit": "mmol/L",
          "code": "mmol/L"
        },
        "referenceRange": [
          {
            "low": {
              "value": 22,
              "code": "mmol/L",
              "system": "http://unitsofmeasure.org"
            }
          },
          {
            "high": {
              "value": 31,
              "code": "mmol/L",
              "system": "http://unitsofmeasure.org"
            }
          }
        ],
        "text": {
          "status": "generated",
          "div": "<div xmlns=\"http://www.w3.org/1999/xhtml\"><table class=\"hl7__eu__lab__report\"><tr><th>Test</th><th>08-Nov-2016</th><th>Reference&#xA0;Range</th><th>Unit</th></tr><tr><td>Bicarbonate [Moles/volume] in Venous blood</td><td>26.0</td><td>22 - 31</td><td></td><td>mmol/L</td></tr></table></div>"
        },
        "status": "final",
        "subject": {
          "reference": "urn:uuid:e8192b89-58b1-4e68-ab4d-d42e2f3c351c",
          "display": "Ludmila Vávrová"
        },
        "effectiveDateTime": "2016-11-08T08:40:59Z",
        "specimen": {
          "reference": "urn:uuid:f23b19ee-e206-4011-8af2-616e7e46b998"
        }
      }
    },
    {
      "fullUrl": "urn:uuid:4fa508ec-e0dc-47fc-970c-8cce8cc30378",
      "resource": {
        "resourceType": "Observation",
        "id": "4fa508ec-e0dc-47fc-970c-8cce8cc30378",
        "meta": {
          "profile": [
            "http://hl7.eu/fhir/laboratory/StructureDefinition/Observation-resultslab-eu-lab"
          ]
        },
        "performer": [
          {
            "display": "The Central European Lab"
          }
        ],
        "category": [
          {
            "coding": [
              {
                "system": "http://terminology.hl7.org/CodeSystem/observation-category",
                "code": "laboratory"
              }
            ]
          }
        ],
        "code": {
          "coding": [
            {
              "code": "2027-1",
              "system": "http://loinc.org",
              "display": "Carbon dioxide, total [Moles/volume] in Venous blood"
            }
          ],
          "text": "Carbon dioxide, total [Moles/volume] in Venous blood"
        },
        "valueQuantity": {
          "system": "http://unitsofmeasure.org",
          "value": 0.9,
          "unit": "mmol/L",
          "code": "mmol/L"
        },
        "referenceRange": [
          {
            "low": {
              "value": 0.8,
              "code": "mmol/L",
              "system": "http://unitsofmeasure.org"
            }
          },
          {
            "high": {
              "value": 1.3,
              "code": "mmol/L",
              "system": "http://unitsofmeasure.org"
            }
          }
        ],
        "text": {
          "status": "generated",
          "div": "<div xmlns=\"http://www.w3.org/1999/xhtml\"><table class=\"hl7__eu__lab__report\"><tr><th>Test</th><th>08-Nov-2016</th><th>Reference&#xA0;Range</th><th>Unit</th></tr><tr><td>Carbon dioxide, total [Moles/volume] in Venous blood</td><td>0.9</td><td>0.8 - 1.3</td><td></td><td>mmol/L</td></tr></table></div>"
        },
        "status": "final",
        "subject": {
          "reference": "urn:uuid:e8192b89-58b1-4e68-ab4d-d42e2f3c351c",
          "display": "Ludmila Vávrová"
        },
        "effectiveDateTime": "2016-11-08T08:40:59Z",
        "specimen": {
          "reference": "urn:uuid:f23b19ee-e206-4011-8af2-616e7e46b998"
        }
      }
    },
    {
      "fullUrl": "urn:uuid:f0e665cb-36e1-4b70-bc14-70b08ed0b969",
      "resource": {
        "resourceType": "Observation",
        "id": "f0e665cb-36e1-4b70-bc14-70b08ed0b969",
        "meta": {
          "profile": [
            "http://hl7.eu/fhir/laboratory/StructureDefinition/Observation-resultslab-eu-lab"
          ]
        },
        "performer": [
          {
            "display": "The Central European Lab"
          }
        ],
        "category": [
          {
            "coding": [
              {
                "system": "http://terminology.hl7.org/CodeSystem/observation-category",
                "code": "laboratory"
              }
            ]
          }
        ],
        "code": {
          "coding": [
            {
              "code": "19123-9",
              "system": "http://loinc.org",
              "display": "Magnesium [Mass/volume] in Serum or Plasma"
            }
          ],
          "text": "Magnesium [Mass/volume] in Serum or Plasma"
        },
        "valueQuantity": {
          "system": "http://unitsofmeasure.org",
          "value": 2.3,
          "unit": "mg/dL",
          "code": "mg/dL"
        },
        "referenceRange": [
          {
            "low": {
              "value": 1.8,
              "code": "mg/dL",
              "system": "http://unitsofmeasure.org"
            }
          },
          {
            "high": {
              "value": 2.3,
              "code": "mg/dL",
              "system": "http://unitsofmeasure.org"
            }
          }
        ],
        "text": {
          "status": "generated",
          "div": "<div xmlns=\"http://www.w3.org/1999/xhtml\"><table class=\"hl7__eu__lab__report\"><tr><th>Test</th><th>08-Nov-2016</th><th>Reference&#xA0;Range</th><th>Unit</th></tr><tr><td>Magnesium [Mass/volume] in Serum or Plasma</td><td>2.3</td><td>1.8 - 2.3</td><td></td><td>mg/dL</td></tr></table></div>"
        },
        "status": "final",
        "subject": {
          "reference": "urn:uuid:e8192b89-58b1-4e68-ab4d-d42e2f3c351c",
          "display": "Ludmila Vávrová"
        },
        "effectiveDateTime": "2016-11-08T08:40:59Z",
        "specimen": {
          "reference": "urn:uuid:69a0c0c2-9da2-4351-92d7-809da7af1766"
        }
      }
    },
    {
      "fullUrl": "urn:uuid:1731b08b-2143-4b69-8375-54fa0cd4541f",
      "resource": {
        "resourceType": "Device",
        "id": "1731b08b-2143-4b69-8375-54fa0cd4541f",
        "deviceName": [
          {
            "name": "SYNDERAI Synthetic Generator",
            "type": "manufacturer-name"
          }
        ],
        "version": [
          {
            "value": "5.0"
          }
        ],
        "text": {
          "status": "generated",
          "div": "<div xmlns=\"http://www.w3.org/1999/xhtml\">SYNDERAI Synthetic Generator v5.0</div>"
        },
        "status": "active\"",
        "distinctIdentifier": "synderai-generator-50",
        "manufacturer": "SYNDERAI Project"
      }
    },
    {
      "fullUrl": "urn:uuid:460bba91-1d97-40dd-a113-88ab8334e062",
      "resource": {
        "resourceType": "Provenance",
        "id": "460bba91-1d97-40dd-a113-88ab8334e062",
        "target": [
          {
            "reference": "Patient/e8192b89-58b1-4e68-ab4d-d42e2f3c351c"
          },
          {
            "reference": "Bundle/565a413f-f90d-48d4-8ae9-8d8c1ff500e6"
          },
          {
            "reference": "Composition/61c3ddd4-7a54-4652-a939-1b9076852af8"
          },
          {
            "reference": "PractitionerRole/29f885c7-efb7-498c-a96b-a735975a94de"
          },
          {
            "reference": "Practitioner/399018a9-d20a-4434-bd30-37c95459f852"
          },
          {
            "reference": "PractitionerRole/f8bce962-1b8d-402f-9200-6c15f53a3b6c"
          },
          {
            "reference": "Organization/78be54f0-645a-48b1-9dec-42f3edd62351"
          }
        ],
        "activity": {
          "text": "Synthetic Example Data Generation"
        },
        "policy": [
          "https://synderai.net/synderai-synthetic-data-policy"
        ],
        "agent": [
          {
            "type": {
              "text": "author"
            },
            "who": {
              "reference": "Device/1731b08b-2143-4b69-8375-54fa0cd4541f"
            }
          }
        ],
        "reason": [
          {
            "text": "Interoperability Testing and Training (non-clinical use)"
          }
        ],
        "text": {
          "status": "generated",
          "div": "<div xmlns=\"http://www.w3.org/1999/xhtml\">Provenance for SYNDERAI Synthetic Example Data Resource</div>"
        },
        "recorded": "2016-11-08T09:40:59Z"
      }
    },
    {
      "fullUrl": "urn:uuid:29f885c7-efb7-498c-a96b-a735975a94de",
      "resource": {
        "resourceType": "PractitionerRole",
        "id": "29f885c7-efb7-498c-a96b-a735975a94de",
        "meta": {
          "profile": [
            "http://hl7.eu/fhir/base/StructureDefinition/practitionerRole-eu"
          ]
        },
        "text": {
          "status": "generated",
          "div": "<div xmlns=\"http://www.w3.org/1999/xhtml\">Laboratory Role Id: 29f885c7-efb7-498c-a96b-a735975a94de</div>"
        },
        "practitioner": {
          "reference": "urn:uuid:399018a9-d20a-4434-bd30-37c95459f852"
        }
      }
    },
    {
      "fullUrl": "urn:uuid:399018a9-d20a-4434-bd30-37c95459f852",
      "resource": {
        "resourceType": "Practitioner",
        "id": "399018a9-d20a-4434-bd30-37c95459f852",
        "meta": {
          "profile": [
            "http://hl7.eu/fhir/base/StructureDefinition/practitioner-eu"
          ]
        },
        "identifier": [
          {
            "assigner": {
              "display": "HL7 Europe"
            },
            "system": "urn:oid:2.16.840.1.113883.2.51.999",
            "value": "d1756c9a-30b4-488d-bdd8-999d26fad634"
          }
        ],
        "name": [
          {
            "prefix": [
              "dr"
            ],
            "given": [
              "Ex"
            ],
            "family": "Ample"
          }
        ],
        "address": [
          {
            "line": [
              "Laboratoire Central Européenne",
              "Boulevard du Jardin Botanique 32"
            ],
            "postalCode": "1000",
            "city": "Brussels",
            "country": "Belgium"
          }
        ],
        "text": {
          "status": "generated",
          "div": "<div xmlns=\"http://www.w3.org/1999/xhtml\">Laboratory: Laboratoire Central Européenne, 1000 Brussels, Belgium</div>"
        }
      }
    }
  ],
  "type": "document",
  "timestamp": "2016-11-08T09:40:59Z"
}
