{
  "resourceType": "Bundle",
  "id": "27146362-36c8-40f0-b5dd-35abb4d17837",
  "meta": {
    "profile": [
      "http://hl7.eu/fhir/laboratory/StructureDefinition/Bundle-eu-lab"
    ]
  },
  "identifier": {
    "assigner": {
      "display": "HL7 Europe"
    },
    "system": "urn:oid:2.16.840.1.113883.2.51.999",
    "value": "14ea2a64-3f22-417e-9629-631377b3cd65"
  },
  "entry": [
    {
      "fullUrl": "urn:uuid:18ad166b-cf47-4bfd-8af8-26188c9ec63c",
      "resource": {
        "resourceType": "Composition",
        "id": "18ad166b-cf47-4bfd-8af8-26188c9ec63c",
        "meta": {
          "profile": [
            "http://hl7.eu/fhir/laboratory/StructureDefinition/Composition-eu-lab"
          ]
        },
        "identifier": {
          "assigner": {
            "display": "HL7 Europe"
          },
          "system": "urn:oid:2.16.840.1.113883.2.51.999",
          "value": "8178740b-124e-42ca-853f-a31c3b8797bb"
        },
        "author": [
          {
            "reference": "urn:uuid:1419f6bf-54c0-48f0-a5ce-3c6bad2bc7e5"
          }
        ],
        "category": [
          {
            "coding": [
              {
                "code": "26436-6",
                "system": "http://loinc.org",
                "display": "Laboratory studies (set)"
              }
            ]
          }
        ],
        "type": {
          "coding": [
            {
              "code": "11502-2",
              "system": "http://loinc.org",
              "display": "Laboratory report"
            }
          ],
          "text": "Laboratory Report"
        },
        "section": [
          {
            "code": {
              "coding": [
                {
                  "code": "26436-6",
                  "system": "http://loinc.org",
                  "display": "Laboratory studies (set)"
                }
              ],
              "text": "Laboratory studies"
            },
            "section": [
              {
                "code": {
                  "coding": [
                    {
                      "code": "$18719-5",
                      "system": "http://loinc.org",
                      "display": "Chemistry studies (set)"
                    }
                  ],
                  "text": "Chemistry"
                },
                "entry": [
                  {
                    "reference": "urn:uuid:98da194d-5d19-4ec8-ae53-daf79ef3c70a"
                  },
                  {
                    "reference": "urn:uuid:9bf98017-c059-4960-84c2-026abdfe6465"
                  },
                  {
                    "reference": "urn:uuid:a352454d-5f0d-4b6c-9a22-b3def927437c"
                  },
                  {
                    "reference": "urn:uuid:d717303b-206e-4653-8dba-071deb5f9a5c"
                  },
                  {
                    "reference": "urn:uuid:fbe21111-154a-4977-9a5a-a7fbc56c78c3"
                  },
                  {
                    "reference": "urn:uuid:c00113a4-99e3-4199-9126-465321215b0e"
                  },
                  {
                    "reference": "urn:uuid:c85fa7b0-2ac6-4f95-9fa1-ed13032a9ebc"
                  },
                  {
                    "reference": "urn:uuid:748e7a8f-3d0e-43cf-91e6-7731a46c8590"
                  },
                  {
                    "reference": "urn:uuid:920f78b6-b839-46c0-9c33-4d0a3897b00f"
                  }
                ],
                "text": {
                  "status": "generated",
                  "div": "<div xmlns=\"http://www.w3.org/1999/xhtml\"><h3>Chemistry</h3><table class=\"hl7__eu__lab__report\"><thead><tr><th>Test</th><th>03-APR-2022</th><th>Reference&#xA0;Range</th><th>Unit</th></tr></thead><tbody><tr><td>Hemoglobin A1c/Hemoglobin.total in Blood</td><td><strong>6.4 H</strong></td><td>4 - 6</td><td>%</td></tr><tr><td>Glucose [Mass/volume] in Blood</td><td>85.2</td><td>70 - 99</td><td>mg/dL</td></tr><tr><td>Urea nitrogen [Mass/volume] in Blood</td><td>16.8</td><td>7 - 20</td><td>mg/dL</td></tr><tr><td>Creatinine [Mass/volume] in Blood</td><td><strong>1.4 H</strong></td><td>0.6 - 1.3</td><td>mg/dL</td></tr><tr><td>Calcium [Mass/volume] in Blood</td><td>8.6</td><td>8.5 - 10.5</td><td>mg/dL</td></tr><tr><td>Sodium [Moles/volume] in Blood</td><td>141.9</td><td>135 - 145</td><td>mmol/L</td></tr><tr><td>Potassium [Moles/volume] in Blood</td><td>3.8</td><td>3.5 - 5.2</td><td>mmol/L</td></tr><tr><td>Chloride [Moles/volume] in Blood</td><td>105.3</td><td>98 - 114</td><td>mmol/L</td></tr><tr><td>Carbon dioxide, total [Moles/volume] in Blood</td><td>29.0</td><td>24 - 29</td><td>mmol/L</td></tr></tbody></table></div>"
                },
                "title": "Chemistry"
              }
            ],
            "title": "Laboratory Report"
          },
          {
            "text": {
              "status": "generated",
              "div": "<div xmlns=\"http://www.w3.org/1999/xhtml\"><h3>Annotation</h3><table class=\"hl7__eu__lab__report\"><tr><th>Conclusion and Recommendations based on this report and previous findings known to us</th></tr><tr><td>The patient shows mildly elevated HbA1c, suggesting impaired glucose metabolism or possible prediabetes, despite normal fasting glucose. Creatinine is slightly elevated, which may indicate reduced renal function and warrants further assessment. Other parameters are within normal limits. Recommend follow-up for glycemic control and renal function.</td></tr></table></div>"
            },
            "code": {
              "coding": [
                {
                  "system": "http://loinc.org",
                  "code": "48767-8",
                  "display": "Annotation comment"
                }
              ]
            },
            "title": "Annotation comment"
          }
        ],
        "status": "final",
        "subject": {
          "reference": "urn:uuid:6cb5ed81-5a26-4fc7-833f-a5135a6edffd",
          "display": "Benedetto Lombroso"
        },
        "date": "2022-04-03T09:22:02Z",
        "title": "Laboratory Report",
        "confidentiality": "N"
      }
    },
    {
      "fullUrl": "urn:uuid:957b5f6b-33df-4fab-a602-82d414e5a934",
      "resource": {
        "resourceType": "DiagnosticReport",
        "id": "957b5f6b-33df-4fab-a602-82d414e5a934",
        "meta": {
          "profile": [
            "http://hl7.eu/fhir/laboratory/StructureDefinition/DiagnosticReport-eu-lab"
          ]
        },
        "identifier": [
          {
            "assigner": {
              "display": "HL7 Europe"
            },
            "system": "urn:oid:2.16.840.1.113883.2.51.999",
            "value": "04fd635a-82b6-4259-800b-035528eca693"
          }
        ],
        "extension": [
          {
            "url": "http://hl7.org/fhir/5.0/StructureDefinition/extension-DiagnosticReport.composition",
            "valueReference": {
              "reference": "urn:uuid:8178740b-124e-42ca-853f-a31c3b8797bb"
            }
          }
        ],
        "category": [
          {
            "coding": [
              {
                "code": "26436-6",
                "system": "http://loinc.org",
                "display": "Laboratory studies (set)"
              }
            ]
          }
        ],
        "specimen": [
          {
            "reference": "urn:uuid:0a4049e6-2fe7-4c6e-ac9a-194c025ec4f0"
          }
        ],
        "result": [
          {
            "reference": "urn:uuid:98da194d-5d19-4ec8-ae53-daf79ef3c70a"
          },
          {
            "reference": "urn:uuid:9bf98017-c059-4960-84c2-026abdfe6465"
          },
          {
            "reference": "urn:uuid:a352454d-5f0d-4b6c-9a22-b3def927437c"
          },
          {
            "reference": "urn:uuid:d717303b-206e-4653-8dba-071deb5f9a5c"
          },
          {
            "reference": "urn:uuid:fbe21111-154a-4977-9a5a-a7fbc56c78c3"
          },
          {
            "reference": "urn:uuid:c00113a4-99e3-4199-9126-465321215b0e"
          },
          {
            "reference": "urn:uuid:c85fa7b0-2ac6-4f95-9fa1-ed13032a9ebc"
          },
          {
            "reference": "urn:uuid:748e7a8f-3d0e-43cf-91e6-7731a46c8590"
          },
          {
            "reference": "urn:uuid:920f78b6-b839-46c0-9c33-4d0a3897b00f"
          }
        ],
        "status": "registered",
        "code": {
          "coding": [
            {
              "code": "11502-2",
              "system": "http://loinc.org",
              "display": "Laboratory report"
            }
          ]
        },
        "subject": {
          "reference": "urn:uuid:6cb5ed81-5a26-4fc7-833f-a5135a6edffd",
          "display": "Benedetto Lombroso"
        }
      }
    },
    {
      "fullUrl": "urn:uuid:6cb5ed81-5a26-4fc7-833f-a5135a6edffd",
      "resource": {
        "resourceType": "Patient",
        "id": "6cb5ed81-5a26-4fc7-833f-a5135a6edffd",
        "meta": {
          "security": [
            {
              "system": "http://terminology.hl7.org/CodeSystem/v3-ActReason",
              "code": "HTEST"
            },
            {
              "system": "http://terminology.hl7.org/CodeSystem/v3-ActReason",
              "code": "TRAIN"
            }
          ],
          "tag": [
            {
              "system": "https://synderai.net/fhir/CodeSystem/tags",
              "code": "synthetic",
              "display": "SYNDERAI Synthetic data"
            }
          ],
          "profile": [
            "http://hl7.eu/fhir/base/StructureDefinition/patient-eu-core"
          ]
        },
        "identifier": [
          {
            "type": {
              "coding": [
                {
                  "code": "PT",
                  "system": "http://terminology.hl7.org/CodeSystem/v2-0203"
                }
              ]
            },
            "system": "http://ec.europa.eu/identifier/eci",
            "value": "9244-804304-9"
          },
          {
            "type": {
              "coding": [
                {
                  "code": "MR",
                  "system": "http://terminology.hl7.org/CodeSystem/v2-0203"
                }
              ]
            },
            "system": "http://local.setting.eu/identifier",
            "value": "320c36e6-403e-bb27-4756-8ebdd21bc0e5"
          }
        ],
        "name": [
          {
            "family": "Lombroso"
          },
          {
            "given": [
              "Benedetto"
            ]
          },
          {
            "text": "Benedetto Lombroso"
          }
        ],
        "address": [
          {
            "line": [
              "Stretto Zaccagnini, 924"
            ],
            "use": "home",
            "type": "physical",
            "postalCode": "37121",
            "city": "Verona",
            "country": "Italy"
          }
        ],
        "telecom": [
          {
            "system": "phone",
            "value": "+39 016691228"
          }
        ],
        "extension": [
          {
            "url": "http://hl7.org/fhir/StructureDefinition/patient-nationality",
            "valueCodeableConcept": {
              "coding": [
                {
                  "code": "IT",
                  "system": "http://hl7.org/fhir/ValueSet/country"
                }
              ]
            }
          }
        ],
        "text": {
          "status": "generated",
          "div": "<div xmlns=\"http://www.w3.org/1999/xhtml\"><table class=\"hl7__ips\"><tr><td>Benedetto Lombroso</td><td>male</td><td>07-May-1989</td></tr></table></div>"
        },
        "gender": "male",
        "birthDate": "1989-05-07"
      }
    },
    {
      "fullUrl": "urn:uuid:569dcbe7-4afc-4b88-8dd2-4a37a7cf3aba",
      "resource": {
        "resourceType": "ServiceRequest",
        "id": "569dcbe7-4afc-4b88-8dd2-4a37a7cf3aba",
        "meta": {
          "profile": [
            "http://hl7.eu/fhir/laboratory/StructureDefinition/ServiceRequest-eu-lab"
          ]
        },
        "identifier": [
          {
            "system": "http://example.org",
            "value": "c1c08429-fbcf-4c50-a10d-52d913f62d13"
          }
        ],
        "specimen": [
          {
            "reference": "urn:uuid:0a4049e6-2fe7-4c6e-ac9a-194c025ec4f0"
          }
        ],
        "reasonCode": [
          {
            "coding": [
              {
                "code": "15777000",
                "system": "http://snomed.info/sct",
                "display": "Prediabetes"
              }
            ]
          },
          {
            "coding": [
              {
                "code": "271737000",
                "system": "http://snomed.info/sct",
                "display": "Anemia"
              }
            ]
          }
        ],
        "status": "active",
        "intent": "order",
        "code": {
          "coding": [
            {
              "code": "108252007",
              "system": "http://snomed.info/sct",
              "display": "Laboratory procedure"
            }
          ]
        },
        "subject": {
          "reference": "urn:uuid:6cb5ed81-5a26-4fc7-833f-a5135a6edffd",
          "display": "Benedetto Lombroso"
        },
        "requester": {
          "reference": "urn:uuid:cbe8b659-d981-46e3-929e-b1668ab2ff46"
        }
      }
    },
    {
      "fullUrl": "urn:uuid:cbe8b659-d981-46e3-929e-b1668ab2ff46",
      "resource": {
        "resourceType": "PractitionerRole",
        "id": "cbe8b659-d981-46e3-929e-b1668ab2ff46",
        "meta": {
          "profile": [
            "http://hl7.eu/fhir/base/StructureDefinition/practitionerRole-eu"
          ]
        },
        "text": {
          "status": "generated",
          "div": "<div xmlns=\"http://www.w3.org/1999/xhtml\">Provider Role Id: cbe8b659-d981-46e3-929e-b1668ab2ff46</div>"
        },
        "organization": {
          "reference": "urn:uuid:b6248b96-5ac7-4023-8b7a-f02854b7bd4f"
        }
      }
    },
    {
      "fullUrl": "urn:uuid:b6248b96-5ac7-4023-8b7a-f02854b7bd4f",
      "resource": {
        "resourceType": "Organization",
        "id": "b6248b96-5ac7-4023-8b7a-f02854b7bd4f",
        "meta": {
          "profile": [
            "http://hl7.eu/fhir/base/StructureDefinition/organization-eu"
          ]
        },
        "identifier": [
          {
            "assigner": {
              "display": "HL7 Europe"
            },
            "system": "urn:oid:2.16.840.1.113883.2.51.999",
            "value": "5c19515c-848a-4b1c-bc9a-dfb92edf3d95"
          }
        ],
        "address": [
          {
            "line": [
              "Piazzale Aristide Stefani 1"
            ],
            "city": "Verona",
            "postalCode": "37124",
            "country": "Italy"
          }
        ],
        "text": {
          "status": "generated",
          "div": "<div xmlns=\"http://www.w3.org/1999/xhtml\">Provider Organization: Ospedale Civile Maggiore</div>"
        },
        "name": "Ospedale Civile Maggiore"
      }
    },
    {
      "fullUrl": "urn:uuid:0a4049e6-2fe7-4c6e-ac9a-194c025ec4f0",
      "resource": {
        "resourceType": "Specimen",
        "id": "0a4049e6-2fe7-4c6e-ac9a-194c025ec4f0",
        "meta": {
          "profile": [
            "http://hl7.eu/fhir/laboratory/StructureDefinition/Specimen-eu-lab"
          ]
        },
        "collection": {
          "collectedDateTime": "2022-04-03"
        },
        "text": {
          "status": "generated",
          "div": "<div xmlns=\"http://www.w3.org/1999/xhtml\"><table class=\"hl7__eu__lab__report\"><tr><th>Specimen</th><th>Collection Date</th></tr><tr><td>Whole blood specimen (specimen)</td><td><span class=\"nb\">03-Apr-2022</span></td></tr></table></div>"
        },
        "type": {
          "coding": [
            {
              "code": "258580003",
              "system": "http://snomed.info/sct",
              "display": "Whole blood specimen (specimen)"
            }
          ]
        }
      }
    },
    {
      "fullUrl": "urn:uuid:98da194d-5d19-4ec8-ae53-daf79ef3c70a",
      "resource": {
        "resourceType": "Observation",
        "id": "98da194d-5d19-4ec8-ae53-daf79ef3c70a",
        "meta": {
          "profile": [
            "http://hl7.eu/fhir/laboratory/StructureDefinition/Observation-resultslab-eu-lab"
          ]
        },
        "performer": [
          {
            "display": "The Central European Lab"
          }
        ],
        "category": [
          {
            "coding": [
              {
                "system": "http://terminology.hl7.org/CodeSystem/observation-category",
                "code": "laboratory"
              }
            ]
          }
        ],
        "code": {
          "coding": [
            {
              "code": "4548-4",
              "system": "http://loinc.org",
              "display": "Hemoglobin A1c/Hemoglobin.total in Blood"
            }
          ],
          "text": "Hemoglobin A1c/Hemoglobin.total in Blood"
        },
        "valueQuantity": {
          "system": "http://unitsofmeasure.org",
          "value": 6.4,
          "unit": "%",
          "code": "%"
        },
        "referenceRange": [
          {
            "low": {
              "value": 4,
              "code": "%",
              "system": "http://unitsofmeasure.org"
            }
          },
          {
            "high": {
              "value": 6,
              "code": "%",
              "system": "http://unitsofmeasure.org"
            }
          }
        ],
        "interpretation": [
          {
            "coding": [
              {
                "code": "H",
                "system": "http://terminology.hl7.org/CodeSystem/v3-ObservationInterpretation",
                "display": "High"
              }
            ]
          }
        ],
        "text": {
          "status": "generated",
          "div": "<div xmlns=\"http://www.w3.org/1999/xhtml\"><table class=\"hl7__eu__lab__report\"><tr><th>Test</th><th>03-Apr-2022</th><th>Reference&#xA0;Range</th><th>Unit</th></tr><tr><td>Hemoglobin A1c/Hemoglobin.total in Blood</td><td>6.4</td><td>4 - 6</td><td>H</td><td>%</td></tr></table></div>"
        },
        "status": "final",
        "subject": {
          "reference": "urn:uuid:6cb5ed81-5a26-4fc7-833f-a5135a6edffd",
          "display": "Benedetto Lombroso"
        },
        "effectiveDateTime": "2022-04-03T07:22:02Z",
        "specimen": {
          "reference": "urn:uuid:0a4049e6-2fe7-4c6e-ac9a-194c025ec4f0"
        }
      }
    },
    {
      "fullUrl": "urn:uuid:9bf98017-c059-4960-84c2-026abdfe6465",
      "resource": {
        "resourceType": "Observation",
        "id": "9bf98017-c059-4960-84c2-026abdfe6465",
        "meta": {
          "profile": [
            "http://hl7.eu/fhir/laboratory/StructureDefinition/Observation-resultslab-eu-lab"
          ]
        },
        "performer": [
          {
            "display": "The Central European Lab"
          }
        ],
        "category": [
          {
            "coding": [
              {
                "system": "http://terminology.hl7.org/CodeSystem/observation-category",
                "code": "laboratory"
              }
            ]
          }
        ],
        "code": {
          "coding": [
            {
              "code": "2339-0",
              "system": "http://loinc.org",
              "display": "Glucose [Mass/volume] in Blood"
            }
          ],
          "text": "Glucose [Mass/volume] in Blood"
        },
        "valueQuantity": {
          "system": "http://unitsofmeasure.org",
          "value": 85.2,
          "unit": "mg/dL",
          "code": "mg/dL"
        },
        "referenceRange": [
          {
            "low": {
              "value": 70,
              "code": "mg/dL",
              "system": "http://unitsofmeasure.org"
            }
          },
          {
            "high": {
              "value": 99,
              "code": "mg/dL",
              "system": "http://unitsofmeasure.org"
            }
          }
        ],
        "text": {
          "status": "generated",
          "div": "<div xmlns=\"http://www.w3.org/1999/xhtml\"><table class=\"hl7__eu__lab__report\"><tr><th>Test</th><th>03-Apr-2022</th><th>Reference&#xA0;Range</th><th>Unit</th></tr><tr><td>Glucose [Mass/volume] in Blood</td><td>85.2</td><td>70 - 99</td><td></td><td>mg/dL</td></tr></table></div>"
        },
        "status": "final",
        "subject": {
          "reference": "urn:uuid:6cb5ed81-5a26-4fc7-833f-a5135a6edffd",
          "display": "Benedetto Lombroso"
        },
        "effectiveDateTime": "2022-04-03T07:22:02Z",
        "specimen": {
          "reference": "urn:uuid:0a4049e6-2fe7-4c6e-ac9a-194c025ec4f0"
        }
      }
    },
    {
      "fullUrl": "urn:uuid:a352454d-5f0d-4b6c-9a22-b3def927437c",
      "resource": {
        "resourceType": "Observation",
        "id": "a352454d-5f0d-4b6c-9a22-b3def927437c",
        "meta": {
          "profile": [
            "http://hl7.eu/fhir/laboratory/StructureDefinition/Observation-resultslab-eu-lab"
          ]
        },
        "performer": [
          {
            "display": "The Central European Lab"
          }
        ],
        "category": [
          {
            "coding": [
              {
                "system": "http://terminology.hl7.org/CodeSystem/observation-category",
                "code": "laboratory"
              }
            ]
          }
        ],
        "code": {
          "coding": [
            {
              "code": "6299-2",
              "system": "http://loinc.org",
              "display": "Urea nitrogen [Mass/volume] in Blood"
            }
          ],
          "text": "Urea nitrogen [Mass/volume] in Blood"
        },
        "valueQuantity": {
          "system": "http://unitsofmeasure.org",
          "value": 16.8,
          "unit": "mg/dL",
          "code": "mg/dL"
        },
        "referenceRange": [
          {
            "low": {
              "value": 7,
              "code": "mg/dL",
              "system": "http://unitsofmeasure.org"
            }
          },
          {
            "high": {
              "value": 20,
              "code": "mg/dL",
              "system": "http://unitsofmeasure.org"
            }
          }
        ],
        "text": {
          "status": "generated",
          "div": "<div xmlns=\"http://www.w3.org/1999/xhtml\"><table class=\"hl7__eu__lab__report\"><tr><th>Test</th><th>03-Apr-2022</th><th>Reference&#xA0;Range</th><th>Unit</th></tr><tr><td>Urea nitrogen [Mass/volume] in Blood</td><td>16.8</td><td>7 - 20</td><td></td><td>mg/dL</td></tr></table></div>"
        },
        "status": "final",
        "subject": {
          "reference": "urn:uuid:6cb5ed81-5a26-4fc7-833f-a5135a6edffd",
          "display": "Benedetto Lombroso"
        },
        "effectiveDateTime": "2022-04-03T07:22:02Z",
        "specimen": {
          "reference": "urn:uuid:0a4049e6-2fe7-4c6e-ac9a-194c025ec4f0"
        }
      }
    },
    {
      "fullUrl": "urn:uuid:d717303b-206e-4653-8dba-071deb5f9a5c",
      "resource": {
        "resourceType": "Observation",
        "id": "d717303b-206e-4653-8dba-071deb5f9a5c",
        "meta": {
          "profile": [
            "http://hl7.eu/fhir/laboratory/StructureDefinition/Observation-resultslab-eu-lab"
          ]
        },
        "performer": [
          {
            "display": "The Central European Lab"
          }
        ],
        "category": [
          {
            "coding": [
              {
                "system": "http://terminology.hl7.org/CodeSystem/observation-category",
                "code": "laboratory"
              }
            ]
          }
        ],
        "code": {
          "coding": [
            {
              "code": "38483-4",
              "system": "http://loinc.org",
              "display": "Creatinine [Mass/volume] in Blood"
            }
          ],
          "text": "Creatinine [Mass/volume] in Blood"
        },
        "valueQuantity": {
          "system": "http://unitsofmeasure.org",
          "value": 1.4,
          "unit": "mg/dL",
          "code": "mg/dL"
        },
        "referenceRange": [
          {
            "low": {
              "value": 0.6,
              "code": "mg/dL",
              "system": "http://unitsofmeasure.org"
            }
          },
          {
            "high": {
              "value": 1.3,
              "code": "mg/dL",
              "system": "http://unitsofmeasure.org"
            }
          }
        ],
        "interpretation": [
          {
            "coding": [
              {
                "code": "H",
                "system": "http://terminology.hl7.org/CodeSystem/v3-ObservationInterpretation",
                "display": "High"
              }
            ]
          }
        ],
        "text": {
          "status": "generated",
          "div": "<div xmlns=\"http://www.w3.org/1999/xhtml\"><table class=\"hl7__eu__lab__report\"><tr><th>Test</th><th>03-Apr-2022</th><th>Reference&#xA0;Range</th><th>Unit</th></tr><tr><td>Creatinine [Mass/volume] in Blood</td><td>1.4</td><td>0.6 - 1.3</td><td>H</td><td>mg/dL</td></tr></table></div>"
        },
        "status": "final",
        "subject": {
          "reference": "urn:uuid:6cb5ed81-5a26-4fc7-833f-a5135a6edffd",
          "display": "Benedetto Lombroso"
        },
        "effectiveDateTime": "2022-04-03T07:22:02Z",
        "specimen": {
          "reference": "urn:uuid:0a4049e6-2fe7-4c6e-ac9a-194c025ec4f0"
        }
      }
    },
    {
      "fullUrl": "urn:uuid:fbe21111-154a-4977-9a5a-a7fbc56c78c3",
      "resource": {
        "resourceType": "Observation",
        "id": "fbe21111-154a-4977-9a5a-a7fbc56c78c3",
        "meta": {
          "profile": [
            "http://hl7.eu/fhir/laboratory/StructureDefinition/Observation-resultslab-eu-lab"
          ]
        },
        "performer": [
          {
            "display": "The Central European Lab"
          }
        ],
        "category": [
          {
            "coding": [
              {
                "system": "http://terminology.hl7.org/CodeSystem/observation-category",
                "code": "laboratory"
              }
            ]
          }
        ],
        "code": {
          "coding": [
            {
              "code": "49765-1",
              "system": "http://loinc.org",
              "display": "Calcium [Mass/volume] in Blood"
            }
          ],
          "text": "Calcium [Mass/volume] in Blood"
        },
        "valueQuantity": {
          "system": "http://unitsofmeasure.org",
          "value": 8.6,
          "unit": "mg/dL",
          "code": "mg/dL"
        },
        "referenceRange": [
          {
            "low": {
              "value": 8.5,
              "code": "mg/dL",
              "system": "http://unitsofmeasure.org"
            }
          },
          {
            "high": {
              "value": 10.5,
              "code": "mg/dL",
              "system": "http://unitsofmeasure.org"
            }
          }
        ],
        "text": {
          "status": "generated",
          "div": "<div xmlns=\"http://www.w3.org/1999/xhtml\"><table class=\"hl7__eu__lab__report\"><tr><th>Test</th><th>03-Apr-2022</th><th>Reference&#xA0;Range</th><th>Unit</th></tr><tr><td>Calcium [Mass/volume] in Blood</td><td>8.6</td><td>8.5 - 10.5</td><td></td><td>mg/dL</td></tr></table></div>"
        },
        "status": "final",
        "subject": {
          "reference": "urn:uuid:6cb5ed81-5a26-4fc7-833f-a5135a6edffd",
          "display": "Benedetto Lombroso"
        },
        "effectiveDateTime": "2022-04-03T07:22:02Z",
        "specimen": {
          "reference": "urn:uuid:0a4049e6-2fe7-4c6e-ac9a-194c025ec4f0"
        }
      }
    },
    {
      "fullUrl": "urn:uuid:c00113a4-99e3-4199-9126-465321215b0e",
      "resource": {
        "resourceType": "Observation",
        "id": "c00113a4-99e3-4199-9126-465321215b0e",
        "meta": {
          "profile": [
            "http://hl7.eu/fhir/laboratory/StructureDefinition/Observation-resultslab-eu-lab"
          ]
        },
        "performer": [
          {
            "display": "The Central European Lab"
          }
        ],
        "category": [
          {
            "coding": [
              {
                "system": "http://terminology.hl7.org/CodeSystem/observation-category",
                "code": "laboratory"
              }
            ]
          }
        ],
        "code": {
          "coding": [
            {
              "code": "2947-0",
              "system": "http://loinc.org",
              "display": "Sodium [Moles/volume] in Blood"
            }
          ],
          "text": "Sodium [Moles/volume] in Blood"
        },
        "valueQuantity": {
          "system": "http://unitsofmeasure.org",
          "value": 141.9,
          "unit": "mmol/L",
          "code": "mmol/L"
        },
        "referenceRange": [
          {
            "low": {
              "value": 135,
              "code": "mmol/L",
              "system": "http://unitsofmeasure.org"
            }
          },
          {
            "high": {
              "value": 145,
              "code": "mmol/L",
              "system": "http://unitsofmeasure.org"
            }
          }
        ],
        "text": {
          "status": "generated",
          "div": "<div xmlns=\"http://www.w3.org/1999/xhtml\"><table class=\"hl7__eu__lab__report\"><tr><th>Test</th><th>03-Apr-2022</th><th>Reference&#xA0;Range</th><th>Unit</th></tr><tr><td>Sodium [Moles/volume] in Blood</td><td>141.9</td><td>135 - 145</td><td></td><td>mmol/L</td></tr></table></div>"
        },
        "status": "final",
        "subject": {
          "reference": "urn:uuid:6cb5ed81-5a26-4fc7-833f-a5135a6edffd",
          "display": "Benedetto Lombroso"
        },
        "effectiveDateTime": "2022-04-03T07:22:02Z",
        "specimen": {
          "reference": "urn:uuid:0a4049e6-2fe7-4c6e-ac9a-194c025ec4f0"
        }
      }
    },
    {
      "fullUrl": "urn:uuid:c85fa7b0-2ac6-4f95-9fa1-ed13032a9ebc",
      "resource": {
        "resourceType": "Observation",
        "id": "c85fa7b0-2ac6-4f95-9fa1-ed13032a9ebc",
        "meta": {
          "profile": [
            "http://hl7.eu/fhir/laboratory/StructureDefinition/Observation-resultslab-eu-lab"
          ]
        },
        "performer": [
          {
            "display": "The Central European Lab"
          }
        ],
        "category": [
          {
            "coding": [
              {
                "system": "http://terminology.hl7.org/CodeSystem/observation-category",
                "code": "laboratory"
              }
            ]
          }
        ],
        "code": {
          "coding": [
            {
              "code": "6298-4",
              "system": "http://loinc.org",
              "display": "Potassium [Moles/volume] in Blood"
            }
          ],
          "text": "Potassium [Moles/volume] in Blood"
        },
        "valueQuantity": {
          "system": "http://unitsofmeasure.org",
          "value": 3.8,
          "unit": "mmol/L",
          "code": "mmol/L"
        },
        "referenceRange": [
          {
            "low": {
              "value": 3.5,
              "code": "mmol/L",
              "system": "http://unitsofmeasure.org"
            }
          },
          {
            "high": {
              "value": 5.2,
              "code": "mmol/L",
              "system": "http://unitsofmeasure.org"
            }
          }
        ],
        "text": {
          "status": "generated",
          "div": "<div xmlns=\"http://www.w3.org/1999/xhtml\"><table class=\"hl7__eu__lab__report\"><tr><th>Test</th><th>03-Apr-2022</th><th>Reference&#xA0;Range</th><th>Unit</th></tr><tr><td>Potassium [Moles/volume] in Blood</td><td>3.8</td><td>3.5 - 5.2</td><td></td><td>mmol/L</td></tr></table></div>"
        },
        "status": "final",
        "subject": {
          "reference": "urn:uuid:6cb5ed81-5a26-4fc7-833f-a5135a6edffd",
          "display": "Benedetto Lombroso"
        },
        "effectiveDateTime": "2022-04-03T07:22:02Z",
        "specimen": {
          "reference": "urn:uuid:0a4049e6-2fe7-4c6e-ac9a-194c025ec4f0"
        }
      }
    },
    {
      "fullUrl": "urn:uuid:748e7a8f-3d0e-43cf-91e6-7731a46c8590",
      "resource": {
        "resourceType": "Observation",
        "id": "748e7a8f-3d0e-43cf-91e6-7731a46c8590",
        "meta": {
          "profile": [
            "http://hl7.eu/fhir/laboratory/StructureDefinition/Observation-resultslab-eu-lab"
          ]
        },
        "performer": [
          {
            "display": "The Central European Lab"
          }
        ],
        "category": [
          {
            "coding": [
              {
                "system": "http://terminology.hl7.org/CodeSystem/observation-category",
                "code": "laboratory"
              }
            ]
          }
        ],
        "code": {
          "coding": [
            {
              "code": "2069-3",
              "system": "http://loinc.org",
              "display": "Chloride [Moles/volume] in Blood"
            }
          ],
          "text": "Chloride [Moles/volume] in Blood"
        },
        "valueQuantity": {
          "system": "http://unitsofmeasure.org",
          "value": 105.3,
          "unit": "mmol/L",
          "code": "mmol/L"
        },
        "referenceRange": [
          {
            "low": {
              "value": 98,
              "code": "mmol/L",
              "system": "http://unitsofmeasure.org"
            }
          },
          {
            "high": {
              "value": 114,
              "code": "mmol/L",
              "system": "http://unitsofmeasure.org"
            }
          }
        ],
        "text": {
          "status": "generated",
          "div": "<div xmlns=\"http://www.w3.org/1999/xhtml\"><table class=\"hl7__eu__lab__report\"><tr><th>Test</th><th>03-Apr-2022</th><th>Reference&#xA0;Range</th><th>Unit</th></tr><tr><td>Chloride [Moles/volume] in Blood</td><td>105.3</td><td>98 - 114</td><td></td><td>mmol/L</td></tr></table></div>"
        },
        "status": "final",
        "subject": {
          "reference": "urn:uuid:6cb5ed81-5a26-4fc7-833f-a5135a6edffd",
          "display": "Benedetto Lombroso"
        },
        "effectiveDateTime": "2022-04-03T07:22:02Z",
        "specimen": {
          "reference": "urn:uuid:0a4049e6-2fe7-4c6e-ac9a-194c025ec4f0"
        }
      }
    },
    {
      "fullUrl": "urn:uuid:920f78b6-b839-46c0-9c33-4d0a3897b00f",
      "resource": {
        "resourceType": "Observation",
        "id": "920f78b6-b839-46c0-9c33-4d0a3897b00f",
        "meta": {
          "profile": [
            "http://hl7.eu/fhir/laboratory/StructureDefinition/Observation-resultslab-eu-lab"
          ]
        },
        "performer": [
          {
            "display": "The Central European Lab"
          }
        ],
        "category": [
          {
            "coding": [
              {
                "system": "http://terminology.hl7.org/CodeSystem/observation-category",
                "code": "laboratory"
              }
            ]
          }
        ],
        "code": {
          "coding": [
            {
              "code": "20565-8",
              "system": "http://loinc.org",
              "display": "Carbon dioxide, total [Moles/volume] in Blood"
            }
          ],
          "text": "Carbon dioxide, total [Moles/volume] in Blood"
        },
        "valueQuantity": {
          "system": "http://unitsofmeasure.org",
          "value": 29,
          "unit": "mmol/L",
          "code": "mmol/L"
        },
        "referenceRange": [
          {
            "low": {
              "value": 24,
              "code": "mmol/L",
              "system": "http://unitsofmeasure.org"
            }
          },
          {
            "high": {
              "value": 29,
              "code": "mmol/L",
              "system": "http://unitsofmeasure.org"
            }
          }
        ],
        "text": {
          "status": "generated",
          "div": "<div xmlns=\"http://www.w3.org/1999/xhtml\"><table class=\"hl7__eu__lab__report\"><tr><th>Test</th><th>03-Apr-2022</th><th>Reference&#xA0;Range</th><th>Unit</th></tr><tr><td>Carbon dioxide, total [Moles/volume] in Blood</td><td>29.0</td><td>24 - 29</td><td></td><td>mmol/L</td></tr></table></div>"
        },
        "status": "final",
        "subject": {
          "reference": "urn:uuid:6cb5ed81-5a26-4fc7-833f-a5135a6edffd",
          "display": "Benedetto Lombroso"
        },
        "effectiveDateTime": "2022-04-03T07:22:02Z",
        "specimen": {
          "reference": "urn:uuid:0a4049e6-2fe7-4c6e-ac9a-194c025ec4f0"
        }
      }
    },
    {
      "fullUrl": "urn:uuid:0c7eb484-b32e-4db3-8375-a4c5cdda6ae0",
      "resource": {
        "resourceType": "Device",
        "id": "0c7eb484-b32e-4db3-8375-a4c5cdda6ae0",
        "deviceName": [
          {
            "name": "SYNDERAI Synthetic Generator",
            "type": "manufacturer-name"
          }
        ],
        "version": [
          {
            "value": "5.0"
          }
        ],
        "text": {
          "status": "generated",
          "div": "<div xmlns=\"http://www.w3.org/1999/xhtml\">SYNDERAI Synthetic Generator v5.0</div>"
        },
        "status": "active\"",
        "distinctIdentifier": "synderai-generator-50",
        "manufacturer": "SYNDERAI Project"
      }
    },
    {
      "fullUrl": "urn:uuid:5ddb5b4e-82bc-48e8-84d3-8d0d5ca0a5d9",
      "resource": {
        "resourceType": "Provenance",
        "id": "5ddb5b4e-82bc-48e8-84d3-8d0d5ca0a5d9",
        "target": [
          {
            "reference": "Patient/6cb5ed81-5a26-4fc7-833f-a5135a6edffd"
          },
          {
            "reference": "Bundle/27146362-36c8-40f0-b5dd-35abb4d17837"
          },
          {
            "reference": "Composition/18ad166b-cf47-4bfd-8af8-26188c9ec63c"
          },
          {
            "reference": "PractitionerRole/1419f6bf-54c0-48f0-a5ce-3c6bad2bc7e5"
          },
          {
            "reference": "Practitioner/231e6857-a21d-4075-943f-e4784dcd0e11"
          },
          {
            "reference": "PractitionerRole/cbe8b659-d981-46e3-929e-b1668ab2ff46"
          },
          {
            "reference": "Organization/b6248b96-5ac7-4023-8b7a-f02854b7bd4f"
          }
        ],
        "activity": {
          "text": "Synthetic Example Data Generation"
        },
        "policy": [
          "https://synderai.net/synderai-synthetic-data-policy"
        ],
        "agent": [
          {
            "type": {
              "text": "author"
            },
            "who": {
              "reference": "Device/0c7eb484-b32e-4db3-8375-a4c5cdda6ae0"
            }
          }
        ],
        "reason": [
          {
            "text": "Interoperability Testing and Training (non-clinical use)"
          }
        ],
        "text": {
          "status": "generated",
          "div": "<div xmlns=\"http://www.w3.org/1999/xhtml\">Provenance for SYNDERAI Synthetic Example Data Resource</div>"
        },
        "recorded": "2022-04-03T09:22:02Z"
      }
    },
    {
      "fullUrl": "urn:uuid:1419f6bf-54c0-48f0-a5ce-3c6bad2bc7e5",
      "resource": {
        "resourceType": "PractitionerRole",
        "id": "1419f6bf-54c0-48f0-a5ce-3c6bad2bc7e5",
        "meta": {
          "profile": [
            "http://hl7.eu/fhir/base/StructureDefinition/practitionerRole-eu"
          ]
        },
        "text": {
          "status": "generated",
          "div": "<div xmlns=\"http://www.w3.org/1999/xhtml\">Laboratory Role Id: 1419f6bf-54c0-48f0-a5ce-3c6bad2bc7e5</div>"
        },
        "practitioner": {
          "reference": "urn:uuid:231e6857-a21d-4075-943f-e4784dcd0e11"
        }
      }
    },
    {
      "fullUrl": "urn:uuid:231e6857-a21d-4075-943f-e4784dcd0e11",
      "resource": {
        "resourceType": "Practitioner",
        "id": "231e6857-a21d-4075-943f-e4784dcd0e11",
        "meta": {
          "profile": [
            "http://hl7.eu/fhir/base/StructureDefinition/practitioner-eu"
          ]
        },
        "identifier": [
          {
            "assigner": {
              "display": "HL7 Europe"
            },
            "system": "urn:oid:2.16.840.1.113883.2.51.999",
            "value": "8d69ac69-a372-431d-b6d8-f4e1e04234ea"
          }
        ],
        "name": [
          {
            "prefix": [
              "dr"
            ],
            "given": [
              "Ex"
            ],
            "family": "Ample"
          }
        ],
        "address": [
          {
            "line": [
              "Laboratoire Central Européenne",
              "Boulevard du Jardin Botanique 32"
            ],
            "postalCode": "1000",
            "city": "Brussels",
            "country": "Belgium"
          }
        ],
        "text": {
          "status": "generated",
          "div": "<div xmlns=\"http://www.w3.org/1999/xhtml\">Laboratory: Laboratoire Central Européenne, 1000 Brussels, Belgium</div>"
        }
      }
    }
  ],
  "type": "document",
  "timestamp": "2022-04-03T09:22:02Z"
}
