{
  "resourceType": "Bundle",
  "id": "d8acd7b5-1833-4a3b-872e-200f9c557a1c",
  "meta": {
    "profile": [
      "http://hl7.eu/fhir/laboratory/StructureDefinition/Bundle-eu-lab"
    ]
  },
  "identifier": {
    "assigner": {
      "display": "HL7 Europe"
    },
    "system": "urn:oid:2.16.840.1.113883.2.51.999",
    "value": "9de9cbee-27ed-4f71-8190-9410743baa6c"
  },
  "entry": [
    {
      "fullUrl": "urn:uuid:57c44118-245c-43c3-883e-ba09f80e0c73",
      "resource": {
        "resourceType": "Composition",
        "id": "57c44118-245c-43c3-883e-ba09f80e0c73",
        "meta": {
          "profile": [
            "http://hl7.eu/fhir/laboratory/StructureDefinition/Composition-eu-lab"
          ]
        },
        "identifier": {
          "assigner": {
            "display": "HL7 Europe"
          },
          "system": "urn:oid:2.16.840.1.113883.2.51.999",
          "value": "23da956b-468d-4a0c-aa6e-92bd56ba430e"
        },
        "author": [
          {
            "reference": "urn:uuid:747fda2c-b80b-4116-8eae-ca08b01ea517"
          }
        ],
        "category": [
          {
            "coding": [
              {
                "code": "26436-6",
                "system": "http://loinc.org",
                "display": "Laboratory studies (set)"
              }
            ]
          }
        ],
        "type": {
          "coding": [
            {
              "code": "11502-2",
              "system": "http://loinc.org",
              "display": "Laboratory report"
            }
          ],
          "text": "Laboratory Report"
        },
        "section": [
          {
            "code": {
              "coding": [
                {
                  "code": "26436-6",
                  "system": "http://loinc.org",
                  "display": "Laboratory studies (set)"
                }
              ],
              "text": "Laboratory studies"
            },
            "section": [
              {
                "code": {
                  "coding": [
                    {
                      "code": "$18723-7",
                      "system": "http://loinc.org",
                      "display": "Hematology studies (set)"
                    }
                  ],
                  "text": "Hematology"
                },
                "entry": [
                  {
                    "reference": "urn:uuid:8fb3d7ae-44fc-4982-8ad9-ae39f09a3743"
                  },
                  {
                    "reference": "urn:uuid:92cc3835-0f37-4fe5-9bcd-e806bc64f3d4"
                  },
                  {
                    "reference": "urn:uuid:c96d3011-4add-42b6-bf9a-eed906cb3a91"
                  },
                  {
                    "reference": "urn:uuid:687ef1a5-5810-4d4b-98a7-2e71717262d4"
                  },
                  {
                    "reference": "urn:uuid:34361490-9377-4363-b880-24d5f14ce622"
                  },
                  {
                    "reference": "urn:uuid:f98989c4-e063-4c00-810a-4d3ac8ba10a2"
                  },
                  {
                    "reference": "urn:uuid:8b9f1389-7293-4a4e-a8d5-69b708df041d"
                  },
                  {
                    "reference": "urn:uuid:55d3f9ae-d23f-42a5-8f31-dded3df3319e"
                  },
                  {
                    "reference": "urn:uuid:6f766bba-42ea-4046-a85c-52cb646d8ce2"
                  }
                ],
                "text": {
                  "status": "generated",
                  "div": "<div xmlns=\"http://www.w3.org/1999/xhtml\"><h3>Hematology</h3><table class=\"hl7__eu__lab__report\"><thead><tr><th>Test</th><th>10-NOV-2016</th><th>Reference&#xA0;Range</th><th>Unit</th></tr></thead><tbody><tr><td>Leukocytes [#/volume] in Blood by Automated count</td><td>10.2</td><td>3.4 - 10.6</td><td>10*3/uL</td></tr><tr><td>Erythrocytes [#/volume] in Blood by Automated count</td><td><strong>3.8 L</strong></td><td>4.7 - 5.2</td><td>10*6/uL</td></tr><tr><td>Hemoglobin [Mass/volume] in Blood</td><td><strong>16.3 H</strong></td><td>11.5 - 16</td><td>g/dL</td></tr><tr><td>Hematocrit [Volume Fraction] of Blood by Automated count</td><td>45.7</td><td>38 - 56</td><td>%</td></tr><tr><td>MCV [Entitic volume] by Automated count</td><td>80.9</td><td>78 - 98</td><td>fL</td></tr><tr><td>MCH [Entitic mass] by Automated count</td><td>30.2</td><td>27 - 34</td><td>pg</td></tr><tr><td>MCHC [Mass/volume] by Automated count</td><td>32.9</td><td>31 - 36</td><td>g/dL</td></tr><tr><td>Erythrocyte distribution width [Ratio] by Automated count</td><td>12.9</td><td>11.6 - 16.5</td><td>%</td></tr><tr><td>Platelets [#/volume] in Blood by Automated count</td><td>434.8</td><td>150 - 450</td><td>10*3/uL</td></tr></tbody></table></div>"
                },
                "title": "Hematology"
              },
              {
                "code": {
                  "coding": [
                    {
                      "code": "$18719-5",
                      "system": "http://loinc.org",
                      "display": "Chemistry studies (set)"
                    }
                  ],
                  "text": "Chemistry"
                },
                "entry": [
                  {
                    "reference": "urn:uuid:25584db9-d786-4ae9-ba81-8972372cd023"
                  },
                  {
                    "reference": "urn:uuid:2e2c5edf-d058-4de5-a41b-4e189cb74bf9"
                  },
                  {
                    "reference": "urn:uuid:6035739b-cb42-4913-a778-de7d5bb0a934"
                  },
                  {
                    "reference": "urn:uuid:ff916277-e7a8-4455-99ee-9c66309dc528"
                  },
                  {
                    "reference": "urn:uuid:590ed0b0-b65a-4bab-bcd9-33374613abee"
                  },
                  {
                    "reference": "urn:uuid:280449e9-ba07-4a23-b678-a0216e4a6534"
                  },
                  {
                    "reference": "urn:uuid:9c9ed859-0ec2-4aba-9e39-c24920ad2f4e"
                  },
                  {
                    "reference": "urn:uuid:cdea58e5-3c05-4605-9124-b80ecf09e3d5"
                  },
                  {
                    "reference": "urn:uuid:16a261e3-3f86-430e-bb9c-9a88a831b67c"
                  },
                  {
                    "reference": "urn:uuid:41771bc8-6ede-4d04-bc77-16aeff8c4b18"
                  },
                  {
                    "reference": "urn:uuid:64af4c62-20f5-4d1e-9b34-9e4b4498754a"
                  },
                  {
                    "reference": "urn:uuid:41b97f8d-518b-4eff-97a9-d0a157e652b2"
                  },
                  {
                    "reference": "urn:uuid:dbcea431-82ae-4671-aa90-b77bf397ef62"
                  },
                  {
                    "reference": "urn:uuid:bceea446-3c8f-4b7b-8304-d318730e7c56"
                  },
                  {
                    "reference": "urn:uuid:5847eefd-9f87-4afe-ace7-d9526a9e93f0"
                  },
                  {
                    "reference": "urn:uuid:a44647c3-086e-43eb-ab47-1320a16a50d2"
                  },
                  {
                    "reference": "urn:uuid:412074d0-10aa-4184-a747-271b1e76a666"
                  },
                  {
                    "reference": "urn:uuid:d6cc186d-bee8-44c0-869d-deece78f429f"
                  },
                  {
                    "reference": "urn:uuid:c23d154d-c8d6-41d0-ad9d-cfafa5ccb3dc"
                  },
                  {
                    "reference": "urn:uuid:273d500f-b305-4f5b-85e8-8a732ed0bae6"
                  },
                  {
                    "reference": "urn:uuid:92ccb51e-fbf9-4c64-b36c-0808ae084753"
                  },
                  {
                    "reference": "urn:uuid:4411a905-2b95-4702-9280-d40af0ec4611"
                  },
                  {
                    "reference": "urn:uuid:2d256f75-cf12-48db-a7ae-f9cd272a7d0b"
                  },
                  {
                    "reference": "urn:uuid:ff85fedc-dd11-4b26-b4db-ef570d374821"
                  },
                  {
                    "reference": "urn:uuid:d751afc4-f709-401a-8198-4e1af3ea94ff"
                  }
                ],
                "text": {
                  "status": "generated",
                  "div": "<div xmlns=\"http://www.w3.org/1999/xhtml\"><h3>Chemistry</h3><table class=\"hl7__eu__lab__report\"><thead><tr><th>Test</th><th>10-NOV-2016</th><th>Reference&#xA0;Range</th><th>Unit</th></tr></thead><tbody><tr><td>Glucose [Mass/volume] in Serum or Plasma</td><td>94.6</td><td>70 - 140</td><td>mg/dL</td></tr><tr><td>Urea nitrogen [Mass/volume] in Serum or Plasma</td><td>14.0</td><td>7 - 25</td><td>mg/dL</td></tr><tr><td>Creatinine [Mass/volume] in Serum or Plasma</td><td><strong>2.7 H</strong></td><td>0.6 - 1.3</td><td>mg/dL</td></tr><tr><td>Calcium [Mass/volume] in Serum or Plasma</td><td>9.4</td><td>8.6 - 10.4</td><td>mg/dL</td></tr><tr><td>Sodium [Moles/volume] in Serum or Plasma</td><td>141.6</td><td>135 - 145</td><td>mmol/L</td></tr><tr><td>Potassium [Moles/volume] in Serum or Plasma</td><td>5.0</td><td>3.5 - 5.1</td><td>mmol/L</td></tr><tr><td>Chloride [Moles/volume] in Serum or Plasma</td><td>101.8</td><td>98 - 108</td><td>mmol/L</td></tr><tr><td>Carbon dioxide, total [Moles/volume] in Serum or Plasma</td><td>24.8</td><td>22 - 29</td><td>mmol/L</td></tr><tr><td>Protein [Mass/volume] in Serum or Plasma</td><td>6.6</td><td>6.6 - 8.3</td><td>g/dL</td></tr><tr><td>Albumin [Mass/volume] in Serum or Plasma</td><td>4.1</td><td>3.5 - 5.5</td><td>g/dL</td></tr><tr><td>Bilirubin.total [Mass/volume] in Serum or Plasma</td><td><strong>11.6 H</strong></td><td>0.3 - 1.2</td><td>mg/dL</td></tr><tr><td>Alkaline phosphatase [Enzymatic activity/volume] in Serum or Plasma</td><td>75.0</td><td>40 - 130</td><td>U/L</td></tr><tr><td>Alanine aminotransferase [Enzymatic activity/volume] in Serum or Plasma</td><td>34.2</td><td>7 - 55</td><td>U/L</td></tr><tr><td>Aspartate aminotransferase [Enzymatic activity/volume] in Serum or Plasma</td><td><strong>1.9 L</strong></td><td>10 - 40</td><td>U/L</td></tr><tr><td>Magnesium [Mass/volume] in Serum or Plasma</td><td>1.8</td><td>1.8 - 2.3</td><td>mg/dL</td></tr><tr><td>Phosphate [Mass/volume] in Serum or Plasma</td><td>3.1</td><td>2.5 - 4.5</td><td>mg/dL</td></tr><tr><td>pH of Arterial blood</td><td><strong>6.8 L</strong></td><td>7.35 - 7.45</td><td>[pH]</td></tr><tr><td>Carbon dioxide [Partial pressure] in Arterial blood</td><td>39.6</td><td>35 - 45</td><td>mm[Hg]</td></tr><tr><td>Oxygen [Partial pressure] in Arterial blood</td><td>88.1</td><td>75 - 100</td><td>mm[Hg]</td></tr><tr><td>Bicarbonate [Moles/volume] in Arterial blood</td><td>22.5</td><td>22 - 32</td><td>mmol/L</td></tr><tr><td>Oxygen saturation in Arterial blood</td><td><strong>90.0 L</strong></td><td>95 - 100</td><td>%</td></tr><tr><td>Cholesterol [Mass/volume] in Serum or Plasma</td><td><strong>253.7 H</strong></td><td>125 - 200</td><td>mg/dL</td></tr><tr><td>Triglyceride [Mass/volume] in Serum or Plasma</td><td>117.8</td><td>10 - 175</td><td>mg/dL</td></tr><tr><td>Cholesterol in LDL [Mass/volume] in Serum or Plasma by Direct assay</td><td><strong>172.7 H</strong></td><td>0 - 130</td><td>mg/dL</td></tr><tr><td>Cholesterol in HDL [Mass/volume] in Serum or Plasma</td><td>57.4</td><td>50 - 100</td><td>mg/dL</td></tr></tbody></table></div>"
                },
                "title": "Chemistry"
              },
              {
                "code": {
                  "coding": [
                    {
                      "code": "$18720-3",
                      "system": "http://loinc.org",
                      "display": "Coagulation studies (set)"
                    }
                  ],
                  "text": "Coagulation"
                },
                "entry": [
                  {
                    "reference": "urn:uuid:b7a7009b-fb41-4274-8487-bdf60898b7e2"
                  },
                  {
                    "reference": "urn:uuid:dc7ca3b5-628f-41d5-b29a-8b22cd7e3945"
                  },
                  {
                    "reference": "urn:uuid:42b69227-8dc5-482c-808e-7f0e76f47cc8"
                  }
                ],
                "text": {
                  "status": "generated",
                  "div": "<div xmlns=\"http://www.w3.org/1999/xhtml\"><h3>Coagulation</h3><table class=\"hl7__eu__lab__report\"><thead><tr><th>Test</th><th>10-NOV-2016</th><th>Reference&#xA0;Range</th><th>Unit</th></tr></thead><tbody><tr><td>Prothrombin time (PT)</td><td>11.7</td><td>11 - 15</td><td>s</td></tr><tr><td>INR in Platelet poor plasma by Coagulation assay</td><td>2.1</td><td>0.9 - 3</td><td>{INR}</td></tr><tr><td>aPTT in Blood by Coagulation assay</td><td>36.5</td><td>25 - 40</td><td>s</td></tr></tbody></table></div>"
                },
                "title": "Coagulation"
              }
            ],
            "title": "Laboratory Report"
          },
          {
            "text": {
              "status": "generated",
              "div": "<div xmlns=\"http://www.w3.org/1999/xhtml\"><h3>Annotation</h3><table class=\"hl7__eu__lab__report\"><tr><th>Conclusion and Recommendations based on this report and previous findings known to us</th></tr><tr><td>The patient shows anemia (low erythrocytes), elevated hemoglobin (possibly due to dehydration), impaired renal function (high creatinine), severe hyperbilirubinemia, metabolic acidosis (very low arterial pH), and hypoxemia (low O₂ saturation). Liver enzymes are not elevated, but cholesterol and LDL are high. These findings suggest significant renal and hepatic dysfunction with metabolic derangement; urgent clinical evaluation is recommended.</td></tr></table></div>"
            },
            "code": {
              "coding": [
                {
                  "system": "http://loinc.org",
                  "code": "48767-8",
                  "display": "Annotation comment"
                }
              ]
            },
            "title": "Annotation comment"
          }
        ],
        "status": "final",
        "subject": {
          "reference": "urn:uuid:b92ade45-aa65-4fa8-a29c-33838f739f5b",
          "display": "Ludmila Vávrová"
        },
        "date": "2016-11-10T05:05:03Z",
        "title": "Laboratory Report",
        "confidentiality": "N"
      }
    },
    {
      "fullUrl": "urn:uuid:5301f810-bbd8-4c90-ab97-0078e9aa4561",
      "resource": {
        "resourceType": "DiagnosticReport",
        "id": "5301f810-bbd8-4c90-ab97-0078e9aa4561",
        "meta": {
          "profile": [
            "http://hl7.eu/fhir/laboratory/StructureDefinition/DiagnosticReport-eu-lab"
          ]
        },
        "identifier": [
          {
            "assigner": {
              "display": "HL7 Europe"
            },
            "system": "urn:oid:2.16.840.1.113883.2.51.999",
            "value": "44e10b31-55ea-4112-863f-20ad2f2407c9"
          }
        ],
        "extension": [
          {
            "url": "http://hl7.org/fhir/5.0/StructureDefinition/extension-DiagnosticReport.composition",
            "valueReference": {
              "reference": "urn:uuid:23da956b-468d-4a0c-aa6e-92bd56ba430e"
            }
          }
        ],
        "category": [
          {
            "coding": [
              {
                "code": "26436-6",
                "system": "http://loinc.org",
                "display": "Laboratory studies (set)"
              }
            ]
          }
        ],
        "specimen": [
          {
            "reference": "urn:uuid:da2926f1-b409-4961-b270-f73c38d94986"
          },
          {
            "reference": "urn:uuid:da2926f1-b409-4961-b270-f73c38d94986"
          },
          {
            "reference": "urn:uuid:d7633821-2722-46bb-bad3-4ea83c15caab"
          },
          {
            "reference": "urn:uuid:07a7ca16-0acf-4bad-abce-8b712e357a06"
          },
          {
            "reference": "urn:uuid:acc589cf-4a7a-48ac-b71b-0b6ed8c722f4"
          }
        ],
        "result": [
          {
            "reference": "urn:uuid:8fb3d7ae-44fc-4982-8ad9-ae39f09a3743"
          },
          {
            "reference": "urn:uuid:92cc3835-0f37-4fe5-9bcd-e806bc64f3d4"
          },
          {
            "reference": "urn:uuid:c96d3011-4add-42b6-bf9a-eed906cb3a91"
          },
          {
            "reference": "urn:uuid:687ef1a5-5810-4d4b-98a7-2e71717262d4"
          },
          {
            "reference": "urn:uuid:34361490-9377-4363-b880-24d5f14ce622"
          },
          {
            "reference": "urn:uuid:f98989c4-e063-4c00-810a-4d3ac8ba10a2"
          },
          {
            "reference": "urn:uuid:8b9f1389-7293-4a4e-a8d5-69b708df041d"
          },
          {
            "reference": "urn:uuid:55d3f9ae-d23f-42a5-8f31-dded3df3319e"
          },
          {
            "reference": "urn:uuid:6f766bba-42ea-4046-a85c-52cb646d8ce2"
          },
          {
            "reference": "urn:uuid:25584db9-d786-4ae9-ba81-8972372cd023"
          },
          {
            "reference": "urn:uuid:2e2c5edf-d058-4de5-a41b-4e189cb74bf9"
          },
          {
            "reference": "urn:uuid:6035739b-cb42-4913-a778-de7d5bb0a934"
          },
          {
            "reference": "urn:uuid:ff916277-e7a8-4455-99ee-9c66309dc528"
          },
          {
            "reference": "urn:uuid:590ed0b0-b65a-4bab-bcd9-33374613abee"
          },
          {
            "reference": "urn:uuid:280449e9-ba07-4a23-b678-a0216e4a6534"
          },
          {
            "reference": "urn:uuid:9c9ed859-0ec2-4aba-9e39-c24920ad2f4e"
          },
          {
            "reference": "urn:uuid:cdea58e5-3c05-4605-9124-b80ecf09e3d5"
          },
          {
            "reference": "urn:uuid:16a261e3-3f86-430e-bb9c-9a88a831b67c"
          },
          {
            "reference": "urn:uuid:41771bc8-6ede-4d04-bc77-16aeff8c4b18"
          },
          {
            "reference": "urn:uuid:64af4c62-20f5-4d1e-9b34-9e4b4498754a"
          },
          {
            "reference": "urn:uuid:41b97f8d-518b-4eff-97a9-d0a157e652b2"
          },
          {
            "reference": "urn:uuid:dbcea431-82ae-4671-aa90-b77bf397ef62"
          },
          {
            "reference": "urn:uuid:bceea446-3c8f-4b7b-8304-d318730e7c56"
          },
          {
            "reference": "urn:uuid:5847eefd-9f87-4afe-ace7-d9526a9e93f0"
          },
          {
            "reference": "urn:uuid:a44647c3-086e-43eb-ab47-1320a16a50d2"
          },
          {
            "reference": "urn:uuid:b7a7009b-fb41-4274-8487-bdf60898b7e2"
          },
          {
            "reference": "urn:uuid:dc7ca3b5-628f-41d5-b29a-8b22cd7e3945"
          },
          {
            "reference": "urn:uuid:42b69227-8dc5-482c-808e-7f0e76f47cc8"
          },
          {
            "reference": "urn:uuid:412074d0-10aa-4184-a747-271b1e76a666"
          },
          {
            "reference": "urn:uuid:d6cc186d-bee8-44c0-869d-deece78f429f"
          },
          {
            "reference": "urn:uuid:c23d154d-c8d6-41d0-ad9d-cfafa5ccb3dc"
          },
          {
            "reference": "urn:uuid:273d500f-b305-4f5b-85e8-8a732ed0bae6"
          },
          {
            "reference": "urn:uuid:92ccb51e-fbf9-4c64-b36c-0808ae084753"
          },
          {
            "reference": "urn:uuid:4411a905-2b95-4702-9280-d40af0ec4611"
          },
          {
            "reference": "urn:uuid:2d256f75-cf12-48db-a7ae-f9cd272a7d0b"
          },
          {
            "reference": "urn:uuid:ff85fedc-dd11-4b26-b4db-ef570d374821"
          },
          {
            "reference": "urn:uuid:d751afc4-f709-401a-8198-4e1af3ea94ff"
          }
        ],
        "status": "registered",
        "code": {
          "coding": [
            {
              "code": "11502-2",
              "system": "http://loinc.org",
              "display": "Laboratory report"
            }
          ]
        },
        "subject": {
          "reference": "urn:uuid:b92ade45-aa65-4fa8-a29c-33838f739f5b",
          "display": "Ludmila Vávrová"
        }
      }
    },
    {
      "fullUrl": "urn:uuid:b92ade45-aa65-4fa8-a29c-33838f739f5b",
      "resource": {
        "resourceType": "Patient",
        "id": "b92ade45-aa65-4fa8-a29c-33838f739f5b",
        "meta": {
          "security": [
            {
              "system": "http://terminology.hl7.org/CodeSystem/v3-ActReason",
              "code": "HTEST"
            },
            {
              "system": "http://terminology.hl7.org/CodeSystem/v3-ActReason",
              "code": "TRAIN"
            }
          ],
          "tag": [
            {
              "system": "https://synderai.net/fhir/CodeSystem/tags",
              "code": "synthetic",
              "display": "SYNDERAI Synthetic data"
            }
          ],
          "profile": [
            "http://hl7.eu/fhir/base/StructureDefinition/patient-eu-core"
          ]
        },
        "identifier": [
          {
            "type": {
              "coding": [
                {
                  "code": "PT",
                  "system": "http://terminology.hl7.org/CodeSystem/v2-0203"
                }
              ]
            },
            "system": "http://ec.europa.eu/identifier/eci",
            "value": "1992-540676-1"
          },
          {
            "type": {
              "coding": [
                {
                  "code": "MR",
                  "system": "http://terminology.hl7.org/CodeSystem/v2-0203"
                }
              ]
            },
            "system": "http://local.setting.eu/identifier",
            "value": "7c533aae-6e7f-89aa-dfdc-8ff900a5990b"
          }
        ],
        "name": [
          {
            "family": "Vávrová"
          },
          {
            "given": [
              "Ludmila"
            ]
          },
          {
            "text": "Ludmila Vávrová"
          }
        ],
        "address": [
          {
            "line": [
              "Šárovo Kolo 116"
            ],
            "use": "home",
            "type": "physical",
            "postalCode": "29471",
            "city": "Bakov nad Jizerou",
            "country": "Czechia"
          }
        ],
        "telecom": [
          {
            "system": "phone",
            "value": "00420 607 610 889"
          }
        ],
        "extension": [
          {
            "url": "http://hl7.org/fhir/StructureDefinition/patient-nationality",
            "valueCodeableConcept": {
              "coding": [
                {
                  "code": "CZ",
                  "system": "http://hl7.org/fhir/ValueSet/country"
                }
              ]
            }
          }
        ],
        "text": {
          "status": "generated",
          "div": "<div xmlns=\"http://www.w3.org/1999/xhtml\"><table class=\"hl7__ips\"><tr><td>Ludmila Vávrová</td><td>female</td><td>08-Aug-1940</td></tr></table></div>"
        },
        "gender": "female",
        "birthDate": "1940-08-08"
      }
    },
    {
      "fullUrl": "urn:uuid:1f9bd48e-8e91-42d0-b566-4757c153eac1",
      "resource": {
        "resourceType": "ServiceRequest",
        "id": "1f9bd48e-8e91-42d0-b566-4757c153eac1",
        "meta": {
          "profile": [
            "http://hl7.eu/fhir/laboratory/StructureDefinition/ServiceRequest-eu-lab"
          ]
        },
        "identifier": [
          {
            "system": "http://example.org",
            "value": "70217a75-8630-4a7d-a64d-cd65392153e6"
          }
        ],
        "specimen": [
          {
            "reference": "urn:uuid:da2926f1-b409-4961-b270-f73c38d94986"
          },
          {
            "reference": "urn:uuid:d7633821-2722-46bb-bad3-4ea83c15caab"
          },
          {
            "reference": "urn:uuid:07a7ca16-0acf-4bad-abce-8b712e357a06"
          },
          {
            "reference": "urn:uuid:acc589cf-4a7a-48ac-b71b-0b6ed8c722f4"
          }
        ],
        "reasonCode": [
          {
            "coding": [
              {
                "code": "414545008",
                "system": "http://snomed.info/sct",
                "display": "Ischemic heart disease"
              }
            ]
          },
          {
            "coding": [
              {
                "code": "64859006",
                "system": "http://snomed.info/sct",
                "display": "Osteoporosis"
              }
            ]
          },
          {
            "coding": [
              {
                "code": "6525002",
                "system": "http://snomed.info/sct",
                "display": "Dependent drug abuse"
              }
            ]
          },
          {
            "coding": [
              {
                "code": "55822004",
                "system": "http://snomed.info/sct",
                "display": "Hyperlipidemia"
              }
            ]
          },
          {
            "coding": [
              {
                "code": "124171000119105",
                "system": "http://snomed.info/sct",
                "display": "Chronic intractable migraine without aura"
              }
            ]
          },
          {
            "coding": [
              {
                "code": "196416002",
                "system": "http://snomed.info/sct",
                "display": "Impacted molars"
              }
            ]
          },
          {
            "coding": [
              {
                "code": "239872002",
                "system": "http://snomed.info/sct",
                "display": "Osteoarthritis of hip"
              }
            ]
          },
          {
            "coding": [
              {
                "code": "40055000",
                "system": "http://snomed.info/sct",
                "display": "Chronic sinusitis"
              }
            ]
          }
        ],
        "status": "active",
        "intent": "order",
        "code": {
          "coding": [
            {
              "code": "108252007",
              "system": "http://snomed.info/sct",
              "display": "Laboratory procedure"
            }
          ]
        },
        "subject": {
          "reference": "urn:uuid:b92ade45-aa65-4fa8-a29c-33838f739f5b",
          "display": "Ludmila Vávrová"
        },
        "requester": {
          "reference": "urn:uuid:2ec493eb-1aac-4bb7-9b07-791e6f68a821"
        }
      }
    },
    {
      "fullUrl": "urn:uuid:2ec493eb-1aac-4bb7-9b07-791e6f68a821",
      "resource": {
        "resourceType": "PractitionerRole",
        "id": "2ec493eb-1aac-4bb7-9b07-791e6f68a821",
        "meta": {
          "profile": [
            "http://hl7.eu/fhir/base/StructureDefinition/practitionerRole-eu"
          ]
        },
        "text": {
          "status": "generated",
          "div": "<div xmlns=\"http://www.w3.org/1999/xhtml\">Provider Role Id: 2ec493eb-1aac-4bb7-9b07-791e6f68a821</div>"
        },
        "organization": {
          "reference": "urn:uuid:f4933620-6030-4e9c-a452-2d8daf0b5fbd"
        }
      }
    },
    {
      "fullUrl": "urn:uuid:f4933620-6030-4e9c-a452-2d8daf0b5fbd",
      "resource": {
        "resourceType": "Organization",
        "id": "f4933620-6030-4e9c-a452-2d8daf0b5fbd",
        "meta": {
          "profile": [
            "http://hl7.eu/fhir/base/StructureDefinition/organization-eu"
          ]
        },
        "identifier": [
          {
            "assigner": {
              "display": "HL7 Europe"
            },
            "system": "urn:oid:2.16.840.1.113883.2.51.999",
            "value": "63efc95a-405d-4e1a-b04d-2ad40419f25b"
          }
        ],
        "address": [
          {
            "city": "Kosmonosy",
            "postalCode": "293 06",
            "country": "Czechia"
          }
        ],
        "text": {
          "status": "generated",
          "div": "<div xmlns=\"http://www.w3.org/1999/xhtml\">Provider Organization: Psychiatrická nemocnice Kosmonosy</div>"
        },
        "name": "Psychiatrická nemocnice Kosmonosy"
      }
    },
    {
      "fullUrl": "urn:uuid:da2926f1-b409-4961-b270-f73c38d94986",
      "resource": {
        "resourceType": "Specimen",
        "id": "da2926f1-b409-4961-b270-f73c38d94986",
        "meta": {
          "profile": [
            "http://hl7.eu/fhir/laboratory/StructureDefinition/Specimen-eu-lab"
          ]
        },
        "collection": {
          "collectedDateTime": "2016-11-10"
        },
        "text": {
          "status": "generated",
          "div": "<div xmlns=\"http://www.w3.org/1999/xhtml\"><table class=\"hl7__eu__lab__report\"><tr><th>Specimen</th><th>Collection Date</th></tr><tr><td>Whole blood specimen (specimen)</td><td><span class=\"nb\">10-Nov-2016</span></td></tr></table></div>"
        },
        "type": {
          "coding": [
            {
              "code": "258580003",
              "system": "http://snomed.info/sct",
              "display": "Whole blood specimen (specimen)"
            }
          ]
        }
      }
    },
    {
      "fullUrl": "urn:uuid:da2926f1-b409-4961-b270-f73c38d94986",
      "resource": {
        "resourceType": "Specimen",
        "id": "da2926f1-b409-4961-b270-f73c38d94986",
        "meta": {
          "profile": [
            "http://hl7.eu/fhir/laboratory/StructureDefinition/Specimen-eu-lab"
          ]
        },
        "collection": {
          "collectedDateTime": "2016-11-10"
        },
        "text": {
          "status": "generated",
          "div": "<div xmlns=\"http://www.w3.org/1999/xhtml\"><table class=\"hl7__eu__lab__report\"><tr><th>Specimen</th><th>Collection Date</th></tr><tr><td>Whole blood specimen (specimen)</td><td><span class=\"nb\">10-Nov-2016</span></td></tr></table></div>"
        },
        "type": {
          "coding": [
            {
              "code": "258580003",
              "system": "http://snomed.info/sct",
              "display": "Whole blood specimen (specimen)"
            }
          ]
        }
      }
    },
    {
      "fullUrl": "urn:uuid:d7633821-2722-46bb-bad3-4ea83c15caab",
      "resource": {
        "resourceType": "Specimen",
        "id": "d7633821-2722-46bb-bad3-4ea83c15caab",
        "meta": {
          "profile": [
            "http://hl7.eu/fhir/laboratory/StructureDefinition/Specimen-eu-lab"
          ]
        },
        "collection": {
          "collectedDateTime": "2016-11-10"
        },
        "text": {
          "status": "generated",
          "div": "<div xmlns=\"http://www.w3.org/1999/xhtml\"><table class=\"hl7__eu__lab__report\"><tr><th>Specimen</th><th>Collection Date</th></tr><tr><td>Acellular blood (serum or plasma) specimen</td><td><span class=\"nb\">10-Nov-2016</span></td></tr></table></div>"
        },
        "type": {
          "coding": [
            {
              "code": "122592007",
              "system": "http://snomed.info/sct",
              "display": "Acellular blood (serum or plasma) specimen"
            }
          ]
        }
      }
    },
    {
      "fullUrl": "urn:uuid:07a7ca16-0acf-4bad-abce-8b712e357a06",
      "resource": {
        "resourceType": "Specimen",
        "id": "07a7ca16-0acf-4bad-abce-8b712e357a06",
        "meta": {
          "profile": [
            "http://hl7.eu/fhir/laboratory/StructureDefinition/Specimen-eu-lab"
          ]
        },
        "collection": {
          "collectedDateTime": "2016-11-10"
        },
        "text": {
          "status": "generated",
          "div": "<div xmlns=\"http://www.w3.org/1999/xhtml\"><table class=\"hl7__eu__lab__report\"><tr><th>Specimen</th><th>Collection Date</th></tr><tr><td>Platelet poor plasma specimen</td><td><span class=\"nb\">10-Nov-2016</span></td></tr></table></div>"
        },
        "type": {
          "coding": [
            {
              "code": "119362004",
              "system": "http://snomed.info/sct",
              "display": "Platelet poor plasma specimen"
            }
          ]
        }
      }
    },
    {
      "fullUrl": "urn:uuid:acc589cf-4a7a-48ac-b71b-0b6ed8c722f4",
      "resource": {
        "resourceType": "Specimen",
        "id": "acc589cf-4a7a-48ac-b71b-0b6ed8c722f4",
        "meta": {
          "profile": [
            "http://hl7.eu/fhir/laboratory/StructureDefinition/Specimen-eu-lab"
          ]
        },
        "collection": {
          "collectedDateTime": "2016-11-10"
        },
        "text": {
          "status": "generated",
          "div": "<div xmlns=\"http://www.w3.org/1999/xhtml\"><table class=\"hl7__eu__lab__report\"><tr><th>Specimen</th><th>Collection Date</th></tr><tr><td>Arterial blood specimen</td><td><span class=\"nb\">10-Nov-2016</span></td></tr></table></div>"
        },
        "type": {
          "coding": [
            {
              "code": "122552005",
              "system": "http://snomed.info/sct",
              "display": "Arterial blood specimen"
            }
          ]
        }
      }
    },
    {
      "fullUrl": "urn:uuid:8fb3d7ae-44fc-4982-8ad9-ae39f09a3743",
      "resource": {
        "resourceType": "Observation",
        "id": "8fb3d7ae-44fc-4982-8ad9-ae39f09a3743",
        "meta": {
          "profile": [
            "http://hl7.eu/fhir/laboratory/StructureDefinition/Observation-resultslab-eu-lab"
          ]
        },
        "performer": [
          {
            "display": "The Central European Lab"
          }
        ],
        "category": [
          {
            "coding": [
              {
                "system": "http://terminology.hl7.org/CodeSystem/observation-category",
                "code": "laboratory"
              }
            ]
          }
        ],
        "code": {
          "coding": [
            {
              "code": "6690-2",
              "system": "http://loinc.org",
              "display": "Leukocytes [#/volume] in Blood by Automated count"
            }
          ],
          "text": "Leukocytes [#/volume] in Blood by Automated count"
        },
        "valueQuantity": {
          "system": "http://unitsofmeasure.org",
          "value": 10.2,
          "unit": "10*3/uL",
          "code": "10*3/uL"
        },
        "referenceRange": [
          {
            "low": {
              "value": 3.4,
              "code": "10*3/uL",
              "system": "http://unitsofmeasure.org"
            }
          },
          {
            "high": {
              "value": 10.6,
              "code": "10*3/uL",
              "system": "http://unitsofmeasure.org"
            }
          }
        ],
        "text": {
          "status": "generated",
          "div": "<div xmlns=\"http://www.w3.org/1999/xhtml\"><table class=\"hl7__eu__lab__report\"><tr><th>Test</th><th>10-Nov-2016</th><th>Reference&#xA0;Range</th><th>Unit</th></tr><tr><td>Leukocytes [#/volume] in Blood by Automated count</td><td>10.2</td><td>3.4 - 10.6</td><td></td><td>10*3/uL</td></tr></table></div>"
        },
        "status": "final",
        "subject": {
          "reference": "urn:uuid:b92ade45-aa65-4fa8-a29c-33838f739f5b",
          "display": "Ludmila Vávrová"
        },
        "effectiveDateTime": "2016-11-10T04:05:03Z",
        "specimen": {
          "reference": "urn:uuid:da2926f1-b409-4961-b270-f73c38d94986"
        }
      }
    },
    {
      "fullUrl": "urn:uuid:92cc3835-0f37-4fe5-9bcd-e806bc64f3d4",
      "resource": {
        "resourceType": "Observation",
        "id": "92cc3835-0f37-4fe5-9bcd-e806bc64f3d4",
        "meta": {
          "profile": [
            "http://hl7.eu/fhir/laboratory/StructureDefinition/Observation-resultslab-eu-lab"
          ]
        },
        "performer": [
          {
            "display": "The Central European Lab"
          }
        ],
        "category": [
          {
            "coding": [
              {
                "system": "http://terminology.hl7.org/CodeSystem/observation-category",
                "code": "laboratory"
              }
            ]
          }
        ],
        "code": {
          "coding": [
            {
              "code": "789-8",
              "system": "http://loinc.org",
              "display": "Erythrocytes [#/volume] in Blood by Automated count"
            }
          ],
          "text": "Erythrocytes [#/volume] in Blood by Automated count"
        },
        "valueQuantity": {
          "system": "http://unitsofmeasure.org",
          "value": 3.8,
          "unit": "10*6/uL",
          "code": "10*6/uL"
        },
        "referenceRange": [
          {
            "low": {
              "value": 4.7,
              "code": "10*6/uL",
              "system": "http://unitsofmeasure.org"
            }
          },
          {
            "high": {
              "value": 5.2,
              "code": "10*6/uL",
              "system": "http://unitsofmeasure.org"
            }
          }
        ],
        "interpretation": [
          {
            "coding": [
              {
                "code": "L",
                "system": "http://terminology.hl7.org/CodeSystem/v3-ObservationInterpretation",
                "display": "Low"
              }
            ]
          }
        ],
        "text": {
          "status": "generated",
          "div": "<div xmlns=\"http://www.w3.org/1999/xhtml\"><table class=\"hl7__eu__lab__report\"><tr><th>Test</th><th>10-Nov-2016</th><th>Reference&#xA0;Range</th><th>Unit</th></tr><tr><td>Erythrocytes [#/volume] in Blood by Automated count</td><td>3.8</td><td>4.7 - 5.2</td><td>L</td><td>10*6/uL</td></tr></table></div>"
        },
        "status": "final",
        "subject": {
          "reference": "urn:uuid:b92ade45-aa65-4fa8-a29c-33838f739f5b",
          "display": "Ludmila Vávrová"
        },
        "effectiveDateTime": "2016-11-10T04:05:03Z",
        "specimen": {
          "reference": "urn:uuid:da2926f1-b409-4961-b270-f73c38d94986"
        }
      }
    },
    {
      "fullUrl": "urn:uuid:c96d3011-4add-42b6-bf9a-eed906cb3a91",
      "resource": {
        "resourceType": "Observation",
        "id": "c96d3011-4add-42b6-bf9a-eed906cb3a91",
        "meta": {
          "profile": [
            "http://hl7.eu/fhir/laboratory/StructureDefinition/Observation-resultslab-eu-lab"
          ]
        },
        "performer": [
          {
            "display": "The Central European Lab"
          }
        ],
        "category": [
          {
            "coding": [
              {
                "system": "http://terminology.hl7.org/CodeSystem/observation-category",
                "code": "laboratory"
              }
            ]
          }
        ],
        "code": {
          "coding": [
            {
              "code": "718-7",
              "system": "http://loinc.org",
              "display": "Hemoglobin [Mass/volume] in Blood"
            }
          ],
          "text": "Hemoglobin [Mass/volume] in Blood"
        },
        "valueQuantity": {
          "system": "http://unitsofmeasure.org",
          "value": 16.3,
          "unit": "g/dL",
          "code": "g/dL"
        },
        "referenceRange": [
          {
            "low": {
              "value": 11.5,
              "code": "g/dL",
              "system": "http://unitsofmeasure.org"
            }
          },
          {
            "high": {
              "value": 16,
              "code": "g/dL",
              "system": "http://unitsofmeasure.org"
            }
          }
        ],
        "interpretation": [
          {
            "coding": [
              {
                "code": "H",
                "system": "http://terminology.hl7.org/CodeSystem/v3-ObservationInterpretation",
                "display": "High"
              }
            ]
          }
        ],
        "text": {
          "status": "generated",
          "div": "<div xmlns=\"http://www.w3.org/1999/xhtml\"><table class=\"hl7__eu__lab__report\"><tr><th>Test</th><th>10-Nov-2016</th><th>Reference&#xA0;Range</th><th>Unit</th></tr><tr><td>Hemoglobin [Mass/volume] in Blood</td><td>16.3</td><td>11.5 - 16</td><td>H</td><td>g/dL</td></tr></table></div>"
        },
        "status": "final",
        "subject": {
          "reference": "urn:uuid:b92ade45-aa65-4fa8-a29c-33838f739f5b",
          "display": "Ludmila Vávrová"
        },
        "effectiveDateTime": "2016-11-10T04:05:03Z",
        "specimen": {
          "reference": "urn:uuid:da2926f1-b409-4961-b270-f73c38d94986"
        }
      }
    },
    {
      "fullUrl": "urn:uuid:687ef1a5-5810-4d4b-98a7-2e71717262d4",
      "resource": {
        "resourceType": "Observation",
        "id": "687ef1a5-5810-4d4b-98a7-2e71717262d4",
        "meta": {
          "profile": [
            "http://hl7.eu/fhir/laboratory/StructureDefinition/Observation-resultslab-eu-lab"
          ]
        },
        "performer": [
          {
            "display": "The Central European Lab"
          }
        ],
        "category": [
          {
            "coding": [
              {
                "system": "http://terminology.hl7.org/CodeSystem/observation-category",
                "code": "laboratory"
              }
            ]
          }
        ],
        "code": {
          "coding": [
            {
              "code": "4544-3",
              "system": "http://loinc.org",
              "display": "Hematocrit [Volume Fraction] of Blood by Automated count"
            }
          ],
          "text": "Hematocrit [Volume Fraction] of Blood by Automated count"
        },
        "valueQuantity": {
          "system": "http://unitsofmeasure.org",
          "value": 45.7,
          "unit": "%",
          "code": "%"
        },
        "referenceRange": [
          {
            "low": {
              "value": 38,
              "code": "%",
              "system": "http://unitsofmeasure.org"
            }
          },
          {
            "high": {
              "value": 56,
              "code": "%",
              "system": "http://unitsofmeasure.org"
            }
          }
        ],
        "text": {
          "status": "generated",
          "div": "<div xmlns=\"http://www.w3.org/1999/xhtml\"><table class=\"hl7__eu__lab__report\"><tr><th>Test</th><th>10-Nov-2016</th><th>Reference&#xA0;Range</th><th>Unit</th></tr><tr><td>Hematocrit [Volume Fraction] of Blood by Automated count</td><td>45.7</td><td>38 - 56</td><td></td><td>%</td></tr></table></div>"
        },
        "status": "final",
        "subject": {
          "reference": "urn:uuid:b92ade45-aa65-4fa8-a29c-33838f739f5b",
          "display": "Ludmila Vávrová"
        },
        "effectiveDateTime": "2016-11-10T04:05:03Z",
        "specimen": {
          "reference": "urn:uuid:da2926f1-b409-4961-b270-f73c38d94986"
        }
      }
    },
    {
      "fullUrl": "urn:uuid:34361490-9377-4363-b880-24d5f14ce622",
      "resource": {
        "resourceType": "Observation",
        "id": "34361490-9377-4363-b880-24d5f14ce622",
        "meta": {
          "profile": [
            "http://hl7.eu/fhir/laboratory/StructureDefinition/Observation-resultslab-eu-lab"
          ]
        },
        "performer": [
          {
            "display": "The Central European Lab"
          }
        ],
        "category": [
          {
            "coding": [
              {
                "system": "http://terminology.hl7.org/CodeSystem/observation-category",
                "code": "laboratory"
              }
            ]
          }
        ],
        "code": {
          "coding": [
            {
              "code": "787-2",
              "system": "http://loinc.org",
              "display": "MCV [Entitic volume] by Automated count"
            }
          ],
          "text": "MCV [Entitic volume] by Automated count"
        },
        "valueQuantity": {
          "system": "http://unitsofmeasure.org",
          "value": 80.9,
          "unit": "fL",
          "code": "fL"
        },
        "referenceRange": [
          {
            "low": {
              "value": 78,
              "code": "fL",
              "system": "http://unitsofmeasure.org"
            }
          },
          {
            "high": {
              "value": 98,
              "code": "fL",
              "system": "http://unitsofmeasure.org"
            }
          }
        ],
        "text": {
          "status": "generated",
          "div": "<div xmlns=\"http://www.w3.org/1999/xhtml\"><table class=\"hl7__eu__lab__report\"><tr><th>Test</th><th>10-Nov-2016</th><th>Reference&#xA0;Range</th><th>Unit</th></tr><tr><td>MCV [Entitic volume] by Automated count</td><td>80.9</td><td>78 - 98</td><td></td><td>fL</td></tr></table></div>"
        },
        "status": "final",
        "subject": {
          "reference": "urn:uuid:b92ade45-aa65-4fa8-a29c-33838f739f5b",
          "display": "Ludmila Vávrová"
        },
        "effectiveDateTime": "2016-11-10T04:05:03Z",
        "specimen": {
          "reference": "urn:uuid:da2926f1-b409-4961-b270-f73c38d94986"
        }
      }
    },
    {
      "fullUrl": "urn:uuid:f98989c4-e063-4c00-810a-4d3ac8ba10a2",
      "resource": {
        "resourceType": "Observation",
        "id": "f98989c4-e063-4c00-810a-4d3ac8ba10a2",
        "meta": {
          "profile": [
            "http://hl7.eu/fhir/laboratory/StructureDefinition/Observation-resultslab-eu-lab"
          ]
        },
        "performer": [
          {
            "display": "The Central European Lab"
          }
        ],
        "category": [
          {
            "coding": [
              {
                "system": "http://terminology.hl7.org/CodeSystem/observation-category",
                "code": "laboratory"
              }
            ]
          }
        ],
        "code": {
          "coding": [
            {
              "code": "785-6",
              "system": "http://loinc.org",
              "display": "MCH [Entitic mass] by Automated count"
            }
          ],
          "text": "MCH [Entitic mass] by Automated count"
        },
        "valueQuantity": {
          "system": "http://unitsofmeasure.org",
          "value": 30.2,
          "unit": "pg",
          "code": "pg"
        },
        "referenceRange": [
          {
            "low": {
              "value": 27,
              "code": "pg",
              "system": "http://unitsofmeasure.org"
            }
          },
          {
            "high": {
              "value": 34,
              "code": "pg",
              "system": "http://unitsofmeasure.org"
            }
          }
        ],
        "text": {
          "status": "generated",
          "div": "<div xmlns=\"http://www.w3.org/1999/xhtml\"><table class=\"hl7__eu__lab__report\"><tr><th>Test</th><th>10-Nov-2016</th><th>Reference&#xA0;Range</th><th>Unit</th></tr><tr><td>MCH [Entitic mass] by Automated count</td><td>30.2</td><td>27 - 34</td><td></td><td>pg</td></tr></table></div>"
        },
        "status": "final",
        "subject": {
          "reference": "urn:uuid:b92ade45-aa65-4fa8-a29c-33838f739f5b",
          "display": "Ludmila Vávrová"
        },
        "effectiveDateTime": "2016-11-10T04:05:03Z",
        "specimen": {
          "reference": "urn:uuid:da2926f1-b409-4961-b270-f73c38d94986"
        }
      }
    },
    {
      "fullUrl": "urn:uuid:8b9f1389-7293-4a4e-a8d5-69b708df041d",
      "resource": {
        "resourceType": "Observation",
        "id": "8b9f1389-7293-4a4e-a8d5-69b708df041d",
        "meta": {
          "profile": [
            "http://hl7.eu/fhir/laboratory/StructureDefinition/Observation-resultslab-eu-lab"
          ]
        },
        "performer": [
          {
            "display": "The Central European Lab"
          }
        ],
        "category": [
          {
            "coding": [
              {
                "system": "http://terminology.hl7.org/CodeSystem/observation-category",
                "code": "laboratory"
              }
            ]
          }
        ],
        "code": {
          "coding": [
            {
              "code": "786-4",
              "system": "http://loinc.org",
              "display": "MCHC [Mass/volume] by Automated count"
            }
          ],
          "text": "MCHC [Mass/volume] by Automated count"
        },
        "valueQuantity": {
          "system": "http://unitsofmeasure.org",
          "value": 32.9,
          "unit": "g/dL",
          "code": "g/dL"
        },
        "referenceRange": [
          {
            "low": {
              "value": 31,
              "code": "g/dL",
              "system": "http://unitsofmeasure.org"
            }
          },
          {
            "high": {
              "value": 36,
              "code": "g/dL",
              "system": "http://unitsofmeasure.org"
            }
          }
        ],
        "text": {
          "status": "generated",
          "div": "<div xmlns=\"http://www.w3.org/1999/xhtml\"><table class=\"hl7__eu__lab__report\"><tr><th>Test</th><th>10-Nov-2016</th><th>Reference&#xA0;Range</th><th>Unit</th></tr><tr><td>MCHC [Mass/volume] by Automated count</td><td>32.9</td><td>31 - 36</td><td></td><td>g/dL</td></tr></table></div>"
        },
        "status": "final",
        "subject": {
          "reference": "urn:uuid:b92ade45-aa65-4fa8-a29c-33838f739f5b",
          "display": "Ludmila Vávrová"
        },
        "effectiveDateTime": "2016-11-10T04:05:03Z",
        "specimen": {
          "reference": "urn:uuid:da2926f1-b409-4961-b270-f73c38d94986"
        }
      }
    },
    {
      "fullUrl": "urn:uuid:55d3f9ae-d23f-42a5-8f31-dded3df3319e",
      "resource": {
        "resourceType": "Observation",
        "id": "55d3f9ae-d23f-42a5-8f31-dded3df3319e",
        "meta": {
          "profile": [
            "http://hl7.eu/fhir/laboratory/StructureDefinition/Observation-resultslab-eu-lab"
          ]
        },
        "performer": [
          {
            "display": "The Central European Lab"
          }
        ],
        "category": [
          {
            "coding": [
              {
                "system": "http://terminology.hl7.org/CodeSystem/observation-category",
                "code": "laboratory"
              }
            ]
          }
        ],
        "code": {
          "coding": [
            {
              "code": "788-0",
              "system": "http://loinc.org",
              "display": "Erythrocyte distribution width [Ratio] by Automated count"
            }
          ],
          "text": "Erythrocyte distribution width [Ratio] by Automated count"
        },
        "valueQuantity": {
          "system": "http://unitsofmeasure.org",
          "value": 12.9,
          "unit": "%",
          "code": "%"
        },
        "referenceRange": [
          {
            "low": {
              "value": 11.6,
              "code": "%",
              "system": "http://unitsofmeasure.org"
            }
          },
          {
            "high": {
              "value": 16.5,
              "code": "%",
              "system": "http://unitsofmeasure.org"
            }
          }
        ],
        "text": {
          "status": "generated",
          "div": "<div xmlns=\"http://www.w3.org/1999/xhtml\"><table class=\"hl7__eu__lab__report\"><tr><th>Test</th><th>10-Nov-2016</th><th>Reference&#xA0;Range</th><th>Unit</th></tr><tr><td>Erythrocyte distribution width [Ratio] by Automated count</td><td>12.9</td><td>11.6 - 16.5</td><td></td><td>%</td></tr></table></div>"
        },
        "status": "final",
        "subject": {
          "reference": "urn:uuid:b92ade45-aa65-4fa8-a29c-33838f739f5b",
          "display": "Ludmila Vávrová"
        },
        "effectiveDateTime": "2016-11-10T04:05:03Z",
        "specimen": {
          "reference": "urn:uuid:da2926f1-b409-4961-b270-f73c38d94986"
        }
      }
    },
    {
      "fullUrl": "urn:uuid:6f766bba-42ea-4046-a85c-52cb646d8ce2",
      "resource": {
        "resourceType": "Observation",
        "id": "6f766bba-42ea-4046-a85c-52cb646d8ce2",
        "meta": {
          "profile": [
            "http://hl7.eu/fhir/laboratory/StructureDefinition/Observation-resultslab-eu-lab"
          ]
        },
        "performer": [
          {
            "display": "The Central European Lab"
          }
        ],
        "category": [
          {
            "coding": [
              {
                "system": "http://terminology.hl7.org/CodeSystem/observation-category",
                "code": "laboratory"
              }
            ]
          }
        ],
        "code": {
          "coding": [
            {
              "code": "777-3",
              "system": "http://loinc.org",
              "display": "Platelets [#/volume] in Blood by Automated count"
            }
          ],
          "text": "Platelets [#/volume] in Blood by Automated count"
        },
        "valueQuantity": {
          "system": "http://unitsofmeasure.org",
          "value": 434.8,
          "unit": "10*3/uL",
          "code": "10*3/uL"
        },
        "referenceRange": [
          {
            "low": {
              "value": 150,
              "code": "10*3/uL",
              "system": "http://unitsofmeasure.org"
            }
          },
          {
            "high": {
              "value": 450,
              "code": "10*3/uL",
              "system": "http://unitsofmeasure.org"
            }
          }
        ],
        "text": {
          "status": "generated",
          "div": "<div xmlns=\"http://www.w3.org/1999/xhtml\"><table class=\"hl7__eu__lab__report\"><tr><th>Test</th><th>10-Nov-2016</th><th>Reference&#xA0;Range</th><th>Unit</th></tr><tr><td>Platelets [#/volume] in Blood by Automated count</td><td>434.8</td><td>150 - 450</td><td></td><td>10*3/uL</td></tr></table></div>"
        },
        "status": "final",
        "subject": {
          "reference": "urn:uuid:b92ade45-aa65-4fa8-a29c-33838f739f5b",
          "display": "Ludmila Vávrová"
        },
        "effectiveDateTime": "2016-11-10T04:05:03Z",
        "specimen": {
          "reference": "urn:uuid:da2926f1-b409-4961-b270-f73c38d94986"
        }
      }
    },
    {
      "fullUrl": "urn:uuid:25584db9-d786-4ae9-ba81-8972372cd023",
      "resource": {
        "resourceType": "Observation",
        "id": "25584db9-d786-4ae9-ba81-8972372cd023",
        "meta": {
          "profile": [
            "http://hl7.eu/fhir/laboratory/StructureDefinition/Observation-resultslab-eu-lab"
          ]
        },
        "performer": [
          {
            "display": "The Central European Lab"
          }
        ],
        "category": [
          {
            "coding": [
              {
                "system": "http://terminology.hl7.org/CodeSystem/observation-category",
                "code": "laboratory"
              }
            ]
          }
        ],
        "code": {
          "coding": [
            {
              "code": "2345-7",
              "system": "http://loinc.org",
              "display": "Glucose [Mass/volume] in Serum or Plasma"
            }
          ],
          "text": "Glucose [Mass/volume] in Serum or Plasma"
        },
        "valueQuantity": {
          "system": "http://unitsofmeasure.org",
          "value": 94.6,
          "unit": "mg/dL",
          "code": "mg/dL"
        },
        "referenceRange": [
          {
            "low": {
              "value": 70,
              "code": "mg/dL",
              "system": "http://unitsofmeasure.org"
            }
          },
          {
            "high": {
              "value": 140,
              "code": "mg/dL",
              "system": "http://unitsofmeasure.org"
            }
          }
        ],
        "text": {
          "status": "generated",
          "div": "<div xmlns=\"http://www.w3.org/1999/xhtml\"><table class=\"hl7__eu__lab__report\"><tr><th>Test</th><th>10-Nov-2016</th><th>Reference&#xA0;Range</th><th>Unit</th></tr><tr><td>Glucose [Mass/volume] in Serum or Plasma</td><td>94.6</td><td>70 - 140</td><td></td><td>mg/dL</td></tr></table></div>"
        },
        "status": "final",
        "subject": {
          "reference": "urn:uuid:b92ade45-aa65-4fa8-a29c-33838f739f5b",
          "display": "Ludmila Vávrová"
        },
        "effectiveDateTime": "2016-11-10T04:05:03Z",
        "specimen": {
          "reference": "urn:uuid:d7633821-2722-46bb-bad3-4ea83c15caab"
        }
      }
    },
    {
      "fullUrl": "urn:uuid:2e2c5edf-d058-4de5-a41b-4e189cb74bf9",
      "resource": {
        "resourceType": "Observation",
        "id": "2e2c5edf-d058-4de5-a41b-4e189cb74bf9",
        "meta": {
          "profile": [
            "http://hl7.eu/fhir/laboratory/StructureDefinition/Observation-resultslab-eu-lab"
          ]
        },
        "performer": [
          {
            "display": "The Central European Lab"
          }
        ],
        "category": [
          {
            "coding": [
              {
                "system": "http://terminology.hl7.org/CodeSystem/observation-category",
                "code": "laboratory"
              }
            ]
          }
        ],
        "code": {
          "coding": [
            {
              "code": "3094-0",
              "system": "http://loinc.org",
              "display": "Urea nitrogen [Mass/volume] in Serum or Plasma"
            }
          ],
          "text": "Urea nitrogen [Mass/volume] in Serum or Plasma"
        },
        "valueQuantity": {
          "system": "http://unitsofmeasure.org",
          "value": 14,
          "unit": "mg/dL",
          "code": "mg/dL"
        },
        "referenceRange": [
          {
            "low": {
              "value": 7,
              "code": "mg/dL",
              "system": "http://unitsofmeasure.org"
            }
          },
          {
            "high": {
              "value": 25,
              "code": "mg/dL",
              "system": "http://unitsofmeasure.org"
            }
          }
        ],
        "text": {
          "status": "generated",
          "div": "<div xmlns=\"http://www.w3.org/1999/xhtml\"><table class=\"hl7__eu__lab__report\"><tr><th>Test</th><th>10-Nov-2016</th><th>Reference&#xA0;Range</th><th>Unit</th></tr><tr><td>Urea nitrogen [Mass/volume] in Serum or Plasma</td><td>14.0</td><td>7 - 25</td><td></td><td>mg/dL</td></tr></table></div>"
        },
        "status": "final",
        "subject": {
          "reference": "urn:uuid:b92ade45-aa65-4fa8-a29c-33838f739f5b",
          "display": "Ludmila Vávrová"
        },
        "effectiveDateTime": "2016-11-10T04:05:03Z",
        "specimen": {
          "reference": "urn:uuid:d7633821-2722-46bb-bad3-4ea83c15caab"
        }
      }
    },
    {
      "fullUrl": "urn:uuid:6035739b-cb42-4913-a778-de7d5bb0a934",
      "resource": {
        "resourceType": "Observation",
        "id": "6035739b-cb42-4913-a778-de7d5bb0a934",
        "meta": {
          "profile": [
            "http://hl7.eu/fhir/laboratory/StructureDefinition/Observation-resultslab-eu-lab"
          ]
        },
        "performer": [
          {
            "display": "The Central European Lab"
          }
        ],
        "category": [
          {
            "coding": [
              {
                "system": "http://terminology.hl7.org/CodeSystem/observation-category",
                "code": "laboratory"
              }
            ]
          }
        ],
        "code": {
          "coding": [
            {
              "code": "2160-0",
              "system": "http://loinc.org",
              "display": "Creatinine [Mass/volume] in Serum or Plasma"
            }
          ],
          "text": "Creatinine [Mass/volume] in Serum or Plasma"
        },
        "valueQuantity": {
          "system": "http://unitsofmeasure.org",
          "value": 2.7,
          "unit": "mg/dL",
          "code": "mg/dL"
        },
        "referenceRange": [
          {
            "low": {
              "value": 0.6,
              "code": "mg/dL",
              "system": "http://unitsofmeasure.org"
            }
          },
          {
            "high": {
              "value": 1.3,
              "code": "mg/dL",
              "system": "http://unitsofmeasure.org"
            }
          }
        ],
        "interpretation": [
          {
            "coding": [
              {
                "code": "H",
                "system": "http://terminology.hl7.org/CodeSystem/v3-ObservationInterpretation",
                "display": "High"
              }
            ]
          }
        ],
        "text": {
          "status": "generated",
          "div": "<div xmlns=\"http://www.w3.org/1999/xhtml\"><table class=\"hl7__eu__lab__report\"><tr><th>Test</th><th>10-Nov-2016</th><th>Reference&#xA0;Range</th><th>Unit</th></tr><tr><td>Creatinine [Mass/volume] in Serum or Plasma</td><td>2.7</td><td>0.6 - 1.3</td><td>H</td><td>mg/dL</td></tr></table></div>"
        },
        "status": "final",
        "subject": {
          "reference": "urn:uuid:b92ade45-aa65-4fa8-a29c-33838f739f5b",
          "display": "Ludmila Vávrová"
        },
        "effectiveDateTime": "2016-11-10T04:05:03Z",
        "specimen": {
          "reference": "urn:uuid:d7633821-2722-46bb-bad3-4ea83c15caab"
        }
      }
    },
    {
      "fullUrl": "urn:uuid:ff916277-e7a8-4455-99ee-9c66309dc528",
      "resource": {
        "resourceType": "Observation",
        "id": "ff916277-e7a8-4455-99ee-9c66309dc528",
        "meta": {
          "profile": [
            "http://hl7.eu/fhir/laboratory/StructureDefinition/Observation-resultslab-eu-lab"
          ]
        },
        "performer": [
          {
            "display": "The Central European Lab"
          }
        ],
        "category": [
          {
            "coding": [
              {
                "system": "http://terminology.hl7.org/CodeSystem/observation-category",
                "code": "laboratory"
              }
            ]
          }
        ],
        "code": {
          "coding": [
            {
              "code": "17861-6",
              "system": "http://loinc.org",
              "display": "Calcium [Mass/volume] in Serum or Plasma"
            }
          ],
          "text": "Calcium [Mass/volume] in Serum or Plasma"
        },
        "valueQuantity": {
          "system": "http://unitsofmeasure.org",
          "value": 9.4,
          "unit": "mg/dL",
          "code": "mg/dL"
        },
        "referenceRange": [
          {
            "low": {
              "value": 8.6,
              "code": "mg/dL",
              "system": "http://unitsofmeasure.org"
            }
          },
          {
            "high": {
              "value": 10.4,
              "code": "mg/dL",
              "system": "http://unitsofmeasure.org"
            }
          }
        ],
        "text": {
          "status": "generated",
          "div": "<div xmlns=\"http://www.w3.org/1999/xhtml\"><table class=\"hl7__eu__lab__report\"><tr><th>Test</th><th>10-Nov-2016</th><th>Reference&#xA0;Range</th><th>Unit</th></tr><tr><td>Calcium [Mass/volume] in Serum or Plasma</td><td>9.4</td><td>8.6 - 10.4</td><td></td><td>mg/dL</td></tr></table></div>"
        },
        "status": "final",
        "subject": {
          "reference": "urn:uuid:b92ade45-aa65-4fa8-a29c-33838f739f5b",
          "display": "Ludmila Vávrová"
        },
        "effectiveDateTime": "2016-11-10T04:05:03Z",
        "specimen": {
          "reference": "urn:uuid:d7633821-2722-46bb-bad3-4ea83c15caab"
        }
      }
    },
    {
      "fullUrl": "urn:uuid:590ed0b0-b65a-4bab-bcd9-33374613abee",
      "resource": {
        "resourceType": "Observation",
        "id": "590ed0b0-b65a-4bab-bcd9-33374613abee",
        "meta": {
          "profile": [
            "http://hl7.eu/fhir/laboratory/StructureDefinition/Observation-resultslab-eu-lab"
          ]
        },
        "performer": [
          {
            "display": "The Central European Lab"
          }
        ],
        "category": [
          {
            "coding": [
              {
                "system": "http://terminology.hl7.org/CodeSystem/observation-category",
                "code": "laboratory"
              }
            ]
          }
        ],
        "code": {
          "coding": [
            {
              "code": "2951-2",
              "system": "http://loinc.org",
              "display": "Sodium [Moles/volume] in Serum or Plasma"
            }
          ],
          "text": "Sodium [Moles/volume] in Serum or Plasma"
        },
        "valueQuantity": {
          "system": "http://unitsofmeasure.org",
          "value": 141.6,
          "unit": "mmol/L",
          "code": "mmol/L"
        },
        "referenceRange": [
          {
            "low": {
              "value": 135,
              "code": "mmol/L",
              "system": "http://unitsofmeasure.org"
            }
          },
          {
            "high": {
              "value": 145,
              "code": "mmol/L",
              "system": "http://unitsofmeasure.org"
            }
          }
        ],
        "text": {
          "status": "generated",
          "div": "<div xmlns=\"http://www.w3.org/1999/xhtml\"><table class=\"hl7__eu__lab__report\"><tr><th>Test</th><th>10-Nov-2016</th><th>Reference&#xA0;Range</th><th>Unit</th></tr><tr><td>Sodium [Moles/volume] in Serum or Plasma</td><td>141.6</td><td>135 - 145</td><td></td><td>mmol/L</td></tr></table></div>"
        },
        "status": "final",
        "subject": {
          "reference": "urn:uuid:b92ade45-aa65-4fa8-a29c-33838f739f5b",
          "display": "Ludmila Vávrová"
        },
        "effectiveDateTime": "2016-11-10T04:05:03Z",
        "specimen": {
          "reference": "urn:uuid:d7633821-2722-46bb-bad3-4ea83c15caab"
        }
      }
    },
    {
      "fullUrl": "urn:uuid:280449e9-ba07-4a23-b678-a0216e4a6534",
      "resource": {
        "resourceType": "Observation",
        "id": "280449e9-ba07-4a23-b678-a0216e4a6534",
        "meta": {
          "profile": [
            "http://hl7.eu/fhir/laboratory/StructureDefinition/Observation-resultslab-eu-lab"
          ]
        },
        "performer": [
          {
            "display": "The Central European Lab"
          }
        ],
        "category": [
          {
            "coding": [
              {
                "system": "http://terminology.hl7.org/CodeSystem/observation-category",
                "code": "laboratory"
              }
            ]
          }
        ],
        "code": {
          "coding": [
            {
              "code": "2823-3",
              "system": "http://loinc.org",
              "display": "Potassium [Moles/volume] in Serum or Plasma"
            }
          ],
          "text": "Potassium [Moles/volume] in Serum or Plasma"
        },
        "valueQuantity": {
          "system": "http://unitsofmeasure.org",
          "value": 5,
          "unit": "mmol/L",
          "code": "mmol/L"
        },
        "referenceRange": [
          {
            "low": {
              "value": 3.5,
              "code": "mmol/L",
              "system": "http://unitsofmeasure.org"
            }
          },
          {
            "high": {
              "value": 5.1,
              "code": "mmol/L",
              "system": "http://unitsofmeasure.org"
            }
          }
        ],
        "text": {
          "status": "generated",
          "div": "<div xmlns=\"http://www.w3.org/1999/xhtml\"><table class=\"hl7__eu__lab__report\"><tr><th>Test</th><th>10-Nov-2016</th><th>Reference&#xA0;Range</th><th>Unit</th></tr><tr><td>Potassium [Moles/volume] in Serum or Plasma</td><td>5.0</td><td>3.5 - 5.1</td><td></td><td>mmol/L</td></tr></table></div>"
        },
        "status": "final",
        "subject": {
          "reference": "urn:uuid:b92ade45-aa65-4fa8-a29c-33838f739f5b",
          "display": "Ludmila Vávrová"
        },
        "effectiveDateTime": "2016-11-10T04:05:03Z",
        "specimen": {
          "reference": "urn:uuid:d7633821-2722-46bb-bad3-4ea83c15caab"
        }
      }
    },
    {
      "fullUrl": "urn:uuid:9c9ed859-0ec2-4aba-9e39-c24920ad2f4e",
      "resource": {
        "resourceType": "Observation",
        "id": "9c9ed859-0ec2-4aba-9e39-c24920ad2f4e",
        "meta": {
          "profile": [
            "http://hl7.eu/fhir/laboratory/StructureDefinition/Observation-resultslab-eu-lab"
          ]
        },
        "performer": [
          {
            "display": "The Central European Lab"
          }
        ],
        "category": [
          {
            "coding": [
              {
                "system": "http://terminology.hl7.org/CodeSystem/observation-category",
                "code": "laboratory"
              }
            ]
          }
        ],
        "code": {
          "coding": [
            {
              "code": "2075-0",
              "system": "http://loinc.org",
              "display": "Chloride [Moles/volume] in Serum or Plasma"
            }
          ],
          "text": "Chloride [Moles/volume] in Serum or Plasma"
        },
        "valueQuantity": {
          "system": "http://unitsofmeasure.org",
          "value": 101.8,
          "unit": "mmol/L",
          "code": "mmol/L"
        },
        "referenceRange": [
          {
            "low": {
              "value": 98,
              "code": "mmol/L",
              "system": "http://unitsofmeasure.org"
            }
          },
          {
            "high": {
              "value": 108,
              "code": "mmol/L",
              "system": "http://unitsofmeasure.org"
            }
          }
        ],
        "text": {
          "status": "generated",
          "div": "<div xmlns=\"http://www.w3.org/1999/xhtml\"><table class=\"hl7__eu__lab__report\"><tr><th>Test</th><th>10-Nov-2016</th><th>Reference&#xA0;Range</th><th>Unit</th></tr><tr><td>Chloride [Moles/volume] in Serum or Plasma</td><td>101.8</td><td>98 - 108</td><td></td><td>mmol/L</td></tr></table></div>"
        },
        "status": "final",
        "subject": {
          "reference": "urn:uuid:b92ade45-aa65-4fa8-a29c-33838f739f5b",
          "display": "Ludmila Vávrová"
        },
        "effectiveDateTime": "2016-11-10T04:05:03Z",
        "specimen": {
          "reference": "urn:uuid:d7633821-2722-46bb-bad3-4ea83c15caab"
        }
      }
    },
    {
      "fullUrl": "urn:uuid:cdea58e5-3c05-4605-9124-b80ecf09e3d5",
      "resource": {
        "resourceType": "Observation",
        "id": "cdea58e5-3c05-4605-9124-b80ecf09e3d5",
        "meta": {
          "profile": [
            "http://hl7.eu/fhir/laboratory/StructureDefinition/Observation-resultslab-eu-lab"
          ]
        },
        "performer": [
          {
            "display": "The Central European Lab"
          }
        ],
        "category": [
          {
            "coding": [
              {
                "system": "http://terminology.hl7.org/CodeSystem/observation-category",
                "code": "laboratory"
              }
            ]
          }
        ],
        "code": {
          "coding": [
            {
              "code": "2028-9",
              "system": "http://loinc.org",
              "display": "Carbon dioxide, total [Moles/volume] in Serum or Plasma"
            }
          ],
          "text": "Carbon dioxide, total [Moles/volume] in Serum or Plasma"
        },
        "valueQuantity": {
          "system": "http://unitsofmeasure.org",
          "value": 24.8,
          "unit": "mmol/L",
          "code": "mmol/L"
        },
        "referenceRange": [
          {
            "low": {
              "value": 22,
              "code": "mmol/L",
              "system": "http://unitsofmeasure.org"
            }
          },
          {
            "high": {
              "value": 29,
              "code": "mmol/L",
              "system": "http://unitsofmeasure.org"
            }
          }
        ],
        "text": {
          "status": "generated",
          "div": "<div xmlns=\"http://www.w3.org/1999/xhtml\"><table class=\"hl7__eu__lab__report\"><tr><th>Test</th><th>10-Nov-2016</th><th>Reference&#xA0;Range</th><th>Unit</th></tr><tr><td>Carbon dioxide, total [Moles/volume] in Serum or Plasma</td><td>24.8</td><td>22 - 29</td><td></td><td>mmol/L</td></tr></table></div>"
        },
        "status": "final",
        "subject": {
          "reference": "urn:uuid:b92ade45-aa65-4fa8-a29c-33838f739f5b",
          "display": "Ludmila Vávrová"
        },
        "effectiveDateTime": "2016-11-10T04:05:03Z",
        "specimen": {
          "reference": "urn:uuid:d7633821-2722-46bb-bad3-4ea83c15caab"
        }
      }
    },
    {
      "fullUrl": "urn:uuid:16a261e3-3f86-430e-bb9c-9a88a831b67c",
      "resource": {
        "resourceType": "Observation",
        "id": "16a261e3-3f86-430e-bb9c-9a88a831b67c",
        "meta": {
          "profile": [
            "http://hl7.eu/fhir/laboratory/StructureDefinition/Observation-resultslab-eu-lab"
          ]
        },
        "performer": [
          {
            "display": "The Central European Lab"
          }
        ],
        "category": [
          {
            "coding": [
              {
                "system": "http://terminology.hl7.org/CodeSystem/observation-category",
                "code": "laboratory"
              }
            ]
          }
        ],
        "code": {
          "coding": [
            {
              "code": "2885-2",
              "system": "http://loinc.org",
              "display": "Protein [Mass/volume] in Serum or Plasma"
            }
          ],
          "text": "Protein [Mass/volume] in Serum or Plasma"
        },
        "valueQuantity": {
          "system": "http://unitsofmeasure.org",
          "value": 6.6,
          "unit": "g/dL",
          "code": "g/dL"
        },
        "referenceRange": [
          {
            "low": {
              "value": 6.6,
              "code": "g/dL",
              "system": "http://unitsofmeasure.org"
            }
          },
          {
            "high": {
              "value": 8.3,
              "code": "g/dL",
              "system": "http://unitsofmeasure.org"
            }
          }
        ],
        "text": {
          "status": "generated",
          "div": "<div xmlns=\"http://www.w3.org/1999/xhtml\"><table class=\"hl7__eu__lab__report\"><tr><th>Test</th><th>10-Nov-2016</th><th>Reference&#xA0;Range</th><th>Unit</th></tr><tr><td>Protein [Mass/volume] in Serum or Plasma</td><td>6.6</td><td>6.6 - 8.3</td><td></td><td>g/dL</td></tr></table></div>"
        },
        "status": "final",
        "subject": {
          "reference": "urn:uuid:b92ade45-aa65-4fa8-a29c-33838f739f5b",
          "display": "Ludmila Vávrová"
        },
        "effectiveDateTime": "2016-11-10T04:05:03Z",
        "specimen": {
          "reference": "urn:uuid:d7633821-2722-46bb-bad3-4ea83c15caab"
        }
      }
    },
    {
      "fullUrl": "urn:uuid:41771bc8-6ede-4d04-bc77-16aeff8c4b18",
      "resource": {
        "resourceType": "Observation",
        "id": "41771bc8-6ede-4d04-bc77-16aeff8c4b18",
        "meta": {
          "profile": [
            "http://hl7.eu/fhir/laboratory/StructureDefinition/Observation-resultslab-eu-lab"
          ]
        },
        "performer": [
          {
            "display": "The Central European Lab"
          }
        ],
        "category": [
          {
            "coding": [
              {
                "system": "http://terminology.hl7.org/CodeSystem/observation-category",
                "code": "laboratory"
              }
            ]
          }
        ],
        "code": {
          "coding": [
            {
              "code": "1751-7",
              "system": "http://loinc.org",
              "display": "Albumin [Mass/volume] in Serum or Plasma"
            }
          ],
          "text": "Albumin [Mass/volume] in Serum or Plasma"
        },
        "valueQuantity": {
          "system": "http://unitsofmeasure.org",
          "value": 4.1,
          "unit": "g/dL",
          "code": "g/dL"
        },
        "referenceRange": [
          {
            "low": {
              "value": 3.5,
              "code": "g/dL",
              "system": "http://unitsofmeasure.org"
            }
          },
          {
            "high": {
              "value": 5.5,
              "code": "g/dL",
              "system": "http://unitsofmeasure.org"
            }
          }
        ],
        "text": {
          "status": "generated",
          "div": "<div xmlns=\"http://www.w3.org/1999/xhtml\"><table class=\"hl7__eu__lab__report\"><tr><th>Test</th><th>10-Nov-2016</th><th>Reference&#xA0;Range</th><th>Unit</th></tr><tr><td>Albumin [Mass/volume] in Serum or Plasma</td><td>4.1</td><td>3.5 - 5.5</td><td></td><td>g/dL</td></tr></table></div>"
        },
        "status": "final",
        "subject": {
          "reference": "urn:uuid:b92ade45-aa65-4fa8-a29c-33838f739f5b",
          "display": "Ludmila Vávrová"
        },
        "effectiveDateTime": "2016-11-10T04:05:03Z",
        "specimen": {
          "reference": "urn:uuid:d7633821-2722-46bb-bad3-4ea83c15caab"
        }
      }
    },
    {
      "fullUrl": "urn:uuid:64af4c62-20f5-4d1e-9b34-9e4b4498754a",
      "resource": {
        "resourceType": "Observation",
        "id": "64af4c62-20f5-4d1e-9b34-9e4b4498754a",
        "meta": {
          "profile": [
            "http://hl7.eu/fhir/laboratory/StructureDefinition/Observation-resultslab-eu-lab"
          ]
        },
        "performer": [
          {
            "display": "The Central European Lab"
          }
        ],
        "category": [
          {
            "coding": [
              {
                "system": "http://terminology.hl7.org/CodeSystem/observation-category",
                "code": "laboratory"
              }
            ]
          }
        ],
        "code": {
          "coding": [
            {
              "code": "1975-2",
              "system": "http://loinc.org",
              "display": "Bilirubin.total [Mass/volume] in Serum or Plasma"
            }
          ],
          "text": "Bilirubin.total [Mass/volume] in Serum or Plasma"
        },
        "valueQuantity": {
          "system": "http://unitsofmeasure.org",
          "value": 11.6,
          "unit": "mg/dL",
          "code": "mg/dL"
        },
        "referenceRange": [
          {
            "low": {
              "value": 0.3,
              "code": "mg/dL",
              "system": "http://unitsofmeasure.org"
            }
          },
          {
            "high": {
              "value": 1.2,
              "code": "mg/dL",
              "system": "http://unitsofmeasure.org"
            }
          }
        ],
        "interpretation": [
          {
            "coding": [
              {
                "code": "H",
                "system": "http://terminology.hl7.org/CodeSystem/v3-ObservationInterpretation",
                "display": "High"
              }
            ]
          }
        ],
        "text": {
          "status": "generated",
          "div": "<div xmlns=\"http://www.w3.org/1999/xhtml\"><table class=\"hl7__eu__lab__report\"><tr><th>Test</th><th>10-Nov-2016</th><th>Reference&#xA0;Range</th><th>Unit</th></tr><tr><td>Bilirubin.total [Mass/volume] in Serum or Plasma</td><td>11.6</td><td>0.3 - 1.2</td><td>H</td><td>mg/dL</td></tr></table></div>"
        },
        "status": "final",
        "subject": {
          "reference": "urn:uuid:b92ade45-aa65-4fa8-a29c-33838f739f5b",
          "display": "Ludmila Vávrová"
        },
        "effectiveDateTime": "2016-11-10T04:05:03Z",
        "specimen": {
          "reference": "urn:uuid:d7633821-2722-46bb-bad3-4ea83c15caab"
        }
      }
    },
    {
      "fullUrl": "urn:uuid:41b97f8d-518b-4eff-97a9-d0a157e652b2",
      "resource": {
        "resourceType": "Observation",
        "id": "41b97f8d-518b-4eff-97a9-d0a157e652b2",
        "meta": {
          "profile": [
            "http://hl7.eu/fhir/laboratory/StructureDefinition/Observation-resultslab-eu-lab"
          ]
        },
        "performer": [
          {
            "display": "The Central European Lab"
          }
        ],
        "category": [
          {
            "coding": [
              {
                "system": "http://terminology.hl7.org/CodeSystem/observation-category",
                "code": "laboratory"
              }
            ]
          }
        ],
        "code": {
          "coding": [
            {
              "code": "6768-6",
              "system": "http://loinc.org",
              "display": "Alkaline phosphatase [Enzymatic activity/volume] in Serum or Plasma"
            }
          ],
          "text": "Alkaline phosphatase [Enzymatic activity/volume] in Serum or Plasma"
        },
        "valueQuantity": {
          "system": "http://unitsofmeasure.org",
          "value": 75,
          "unit": "U/L",
          "code": "U/L"
        },
        "referenceRange": [
          {
            "low": {
              "value": 40,
              "code": "U/L",
              "system": "http://unitsofmeasure.org"
            }
          },
          {
            "high": {
              "value": 130,
              "code": "U/L",
              "system": "http://unitsofmeasure.org"
            }
          }
        ],
        "text": {
          "status": "generated",
          "div": "<div xmlns=\"http://www.w3.org/1999/xhtml\"><table class=\"hl7__eu__lab__report\"><tr><th>Test</th><th>10-Nov-2016</th><th>Reference&#xA0;Range</th><th>Unit</th></tr><tr><td>Alkaline phosphatase [Enzymatic activity/volume] in Serum or Plasma</td><td>75.0</td><td>40 - 130</td><td></td><td>U/L</td></tr></table></div>"
        },
        "status": "final",
        "subject": {
          "reference": "urn:uuid:b92ade45-aa65-4fa8-a29c-33838f739f5b",
          "display": "Ludmila Vávrová"
        },
        "effectiveDateTime": "2016-11-10T04:05:03Z",
        "specimen": {
          "reference": "urn:uuid:d7633821-2722-46bb-bad3-4ea83c15caab"
        }
      }
    },
    {
      "fullUrl": "urn:uuid:dbcea431-82ae-4671-aa90-b77bf397ef62",
      "resource": {
        "resourceType": "Observation",
        "id": "dbcea431-82ae-4671-aa90-b77bf397ef62",
        "meta": {
          "profile": [
            "http://hl7.eu/fhir/laboratory/StructureDefinition/Observation-resultslab-eu-lab"
          ]
        },
        "performer": [
          {
            "display": "The Central European Lab"
          }
        ],
        "category": [
          {
            "coding": [
              {
                "system": "http://terminology.hl7.org/CodeSystem/observation-category",
                "code": "laboratory"
              }
            ]
          }
        ],
        "code": {
          "coding": [
            {
              "code": "1742-6",
              "system": "http://loinc.org",
              "display": "Alanine aminotransferase [Enzymatic activity/volume] in Serum or Plasma"
            }
          ],
          "text": "Alanine aminotransferase [Enzymatic activity/volume] in Serum or Plasma"
        },
        "valueQuantity": {
          "system": "http://unitsofmeasure.org",
          "value": 34.2,
          "unit": "U/L",
          "code": "U/L"
        },
        "referenceRange": [
          {
            "low": {
              "value": 7,
              "code": "U/L",
              "system": "http://unitsofmeasure.org"
            }
          },
          {
            "high": {
              "value": 55,
              "code": "U/L",
              "system": "http://unitsofmeasure.org"
            }
          }
        ],
        "text": {
          "status": "generated",
          "div": "<div xmlns=\"http://www.w3.org/1999/xhtml\"><table class=\"hl7__eu__lab__report\"><tr><th>Test</th><th>10-Nov-2016</th><th>Reference&#xA0;Range</th><th>Unit</th></tr><tr><td>Alanine aminotransferase [Enzymatic activity/volume] in Serum or Plasma</td><td>34.2</td><td>7 - 55</td><td></td><td>U/L</td></tr></table></div>"
        },
        "status": "final",
        "subject": {
          "reference": "urn:uuid:b92ade45-aa65-4fa8-a29c-33838f739f5b",
          "display": "Ludmila Vávrová"
        },
        "effectiveDateTime": "2016-11-10T04:05:03Z",
        "specimen": {
          "reference": "urn:uuid:d7633821-2722-46bb-bad3-4ea83c15caab"
        }
      }
    },
    {
      "fullUrl": "urn:uuid:bceea446-3c8f-4b7b-8304-d318730e7c56",
      "resource": {
        "resourceType": "Observation",
        "id": "bceea446-3c8f-4b7b-8304-d318730e7c56",
        "meta": {
          "profile": [
            "http://hl7.eu/fhir/laboratory/StructureDefinition/Observation-resultslab-eu-lab"
          ]
        },
        "performer": [
          {
            "display": "The Central European Lab"
          }
        ],
        "category": [
          {
            "coding": [
              {
                "system": "http://terminology.hl7.org/CodeSystem/observation-category",
                "code": "laboratory"
              }
            ]
          }
        ],
        "code": {
          "coding": [
            {
              "code": "1920-8",
              "system": "http://loinc.org",
              "display": "Aspartate aminotransferase [Enzymatic activity/volume] in Serum or Plasma"
            }
          ],
          "text": "Aspartate aminotransferase [Enzymatic activity/volume] in Serum or Plasma"
        },
        "valueQuantity": {
          "system": "http://unitsofmeasure.org",
          "value": 1.9,
          "unit": "U/L",
          "code": "U/L"
        },
        "referenceRange": [
          {
            "low": {
              "value": 10,
              "code": "U/L",
              "system": "http://unitsofmeasure.org"
            }
          },
          {
            "high": {
              "value": 40,
              "code": "U/L",
              "system": "http://unitsofmeasure.org"
            }
          }
        ],
        "interpretation": [
          {
            "coding": [
              {
                "code": "L",
                "system": "http://terminology.hl7.org/CodeSystem/v3-ObservationInterpretation",
                "display": "Low"
              }
            ]
          }
        ],
        "text": {
          "status": "generated",
          "div": "<div xmlns=\"http://www.w3.org/1999/xhtml\"><table class=\"hl7__eu__lab__report\"><tr><th>Test</th><th>10-Nov-2016</th><th>Reference&#xA0;Range</th><th>Unit</th></tr><tr><td>Aspartate aminotransferase [Enzymatic activity/volume] in Serum or Plasma</td><td>1.9</td><td>10 - 40</td><td>L</td><td>U/L</td></tr></table></div>"
        },
        "status": "final",
        "subject": {
          "reference": "urn:uuid:b92ade45-aa65-4fa8-a29c-33838f739f5b",
          "display": "Ludmila Vávrová"
        },
        "effectiveDateTime": "2016-11-10T04:05:03Z",
        "specimen": {
          "reference": "urn:uuid:d7633821-2722-46bb-bad3-4ea83c15caab"
        }
      }
    },
    {
      "fullUrl": "urn:uuid:5847eefd-9f87-4afe-ace7-d9526a9e93f0",
      "resource": {
        "resourceType": "Observation",
        "id": "5847eefd-9f87-4afe-ace7-d9526a9e93f0",
        "meta": {
          "profile": [
            "http://hl7.eu/fhir/laboratory/StructureDefinition/Observation-resultslab-eu-lab"
          ]
        },
        "performer": [
          {
            "display": "The Central European Lab"
          }
        ],
        "category": [
          {
            "coding": [
              {
                "system": "http://terminology.hl7.org/CodeSystem/observation-category",
                "code": "laboratory"
              }
            ]
          }
        ],
        "code": {
          "coding": [
            {
              "code": "19123-9",
              "system": "http://loinc.org",
              "display": "Magnesium [Mass/volume] in Serum or Plasma"
            }
          ],
          "text": "Magnesium [Mass/volume] in Serum or Plasma"
        },
        "valueQuantity": {
          "system": "http://unitsofmeasure.org",
          "value": 1.8,
          "unit": "mg/dL",
          "code": "mg/dL"
        },
        "referenceRange": [
          {
            "low": {
              "value": 1.8,
              "code": "mg/dL",
              "system": "http://unitsofmeasure.org"
            }
          },
          {
            "high": {
              "value": 2.3,
              "code": "mg/dL",
              "system": "http://unitsofmeasure.org"
            }
          }
        ],
        "text": {
          "status": "generated",
          "div": "<div xmlns=\"http://www.w3.org/1999/xhtml\"><table class=\"hl7__eu__lab__report\"><tr><th>Test</th><th>10-Nov-2016</th><th>Reference&#xA0;Range</th><th>Unit</th></tr><tr><td>Magnesium [Mass/volume] in Serum or Plasma</td><td>1.8</td><td>1.8 - 2.3</td><td></td><td>mg/dL</td></tr></table></div>"
        },
        "status": "final",
        "subject": {
          "reference": "urn:uuid:b92ade45-aa65-4fa8-a29c-33838f739f5b",
          "display": "Ludmila Vávrová"
        },
        "effectiveDateTime": "2016-11-10T04:05:03Z",
        "specimen": {
          "reference": "urn:uuid:d7633821-2722-46bb-bad3-4ea83c15caab"
        }
      }
    },
    {
      "fullUrl": "urn:uuid:a44647c3-086e-43eb-ab47-1320a16a50d2",
      "resource": {
        "resourceType": "Observation",
        "id": "a44647c3-086e-43eb-ab47-1320a16a50d2",
        "meta": {
          "profile": [
            "http://hl7.eu/fhir/laboratory/StructureDefinition/Observation-resultslab-eu-lab"
          ]
        },
        "performer": [
          {
            "display": "The Central European Lab"
          }
        ],
        "category": [
          {
            "coding": [
              {
                "system": "http://terminology.hl7.org/CodeSystem/observation-category",
                "code": "laboratory"
              }
            ]
          }
        ],
        "code": {
          "coding": [
            {
              "code": "2777-1",
              "system": "http://loinc.org",
              "display": "Phosphate [Mass/volume] in Serum or Plasma"
            }
          ],
          "text": "Phosphate [Mass/volume] in Serum or Plasma"
        },
        "valueQuantity": {
          "system": "http://unitsofmeasure.org",
          "value": 3.1,
          "unit": "mg/dL",
          "code": "mg/dL"
        },
        "referenceRange": [
          {
            "low": {
              "value": 2.5,
              "code": "mg/dL",
              "system": "http://unitsofmeasure.org"
            }
          },
          {
            "high": {
              "value": 4.5,
              "code": "mg/dL",
              "system": "http://unitsofmeasure.org"
            }
          }
        ],
        "text": {
          "status": "generated",
          "div": "<div xmlns=\"http://www.w3.org/1999/xhtml\"><table class=\"hl7__eu__lab__report\"><tr><th>Test</th><th>10-Nov-2016</th><th>Reference&#xA0;Range</th><th>Unit</th></tr><tr><td>Phosphate [Mass/volume] in Serum or Plasma</td><td>3.1</td><td>2.5 - 4.5</td><td></td><td>mg/dL</td></tr></table></div>"
        },
        "status": "final",
        "subject": {
          "reference": "urn:uuid:b92ade45-aa65-4fa8-a29c-33838f739f5b",
          "display": "Ludmila Vávrová"
        },
        "effectiveDateTime": "2016-11-10T04:05:03Z",
        "specimen": {
          "reference": "urn:uuid:d7633821-2722-46bb-bad3-4ea83c15caab"
        }
      }
    },
    {
      "fullUrl": "urn:uuid:b7a7009b-fb41-4274-8487-bdf60898b7e2",
      "resource": {
        "resourceType": "Observation",
        "id": "b7a7009b-fb41-4274-8487-bdf60898b7e2",
        "meta": {
          "profile": [
            "http://hl7.eu/fhir/laboratory/StructureDefinition/Observation-resultslab-eu-lab"
          ]
        },
        "performer": [
          {
            "display": "The Central European Lab"
          }
        ],
        "category": [
          {
            "coding": [
              {
                "system": "http://terminology.hl7.org/CodeSystem/observation-category",
                "code": "laboratory"
              }
            ]
          }
        ],
        "code": {
          "coding": [
            {
              "code": "5902-2",
              "system": "http://loinc.org",
              "display": "Prothrombin time (PT)"
            }
          ],
          "text": "Prothrombin time (PT)"
        },
        "valueQuantity": {
          "system": "http://unitsofmeasure.org",
          "value": 11.7,
          "unit": "s",
          "code": "s"
        },
        "referenceRange": [
          {
            "low": {
              "value": 11,
              "code": "s",
              "system": "http://unitsofmeasure.org"
            }
          },
          {
            "high": {
              "value": 15,
              "code": "s",
              "system": "http://unitsofmeasure.org"
            }
          }
        ],
        "text": {
          "status": "generated",
          "div": "<div xmlns=\"http://www.w3.org/1999/xhtml\"><table class=\"hl7__eu__lab__report\"><tr><th>Test</th><th>10-Nov-2016</th><th>Reference&#xA0;Range</th><th>Unit</th></tr><tr><td>Prothrombin time (PT)</td><td>11.7</td><td>11 - 15</td><td></td><td>s</td></tr></table></div>"
        },
        "status": "final",
        "subject": {
          "reference": "urn:uuid:b92ade45-aa65-4fa8-a29c-33838f739f5b",
          "display": "Ludmila Vávrová"
        },
        "effectiveDateTime": "2016-11-10T04:05:03Z",
        "specimen": {
          "reference": "urn:uuid:07a7ca16-0acf-4bad-abce-8b712e357a06"
        }
      }
    },
    {
      "fullUrl": "urn:uuid:dc7ca3b5-628f-41d5-b29a-8b22cd7e3945",
      "resource": {
        "resourceType": "Observation",
        "id": "dc7ca3b5-628f-41d5-b29a-8b22cd7e3945",
        "meta": {
          "profile": [
            "http://hl7.eu/fhir/laboratory/StructureDefinition/Observation-resultslab-eu-lab"
          ]
        },
        "performer": [
          {
            "display": "The Central European Lab"
          }
        ],
        "category": [
          {
            "coding": [
              {
                "system": "http://terminology.hl7.org/CodeSystem/observation-category",
                "code": "laboratory"
              }
            ]
          }
        ],
        "code": {
          "coding": [
            {
              "code": "6301-6",
              "system": "http://loinc.org",
              "display": "INR in Platelet poor plasma by Coagulation assay"
            }
          ],
          "text": "INR in Platelet poor plasma by Coagulation assay"
        },
        "valueQuantity": {
          "system": "http://unitsofmeasure.org",
          "value": 2.1,
          "unit": "{INR}",
          "code": "{INR}"
        },
        "referenceRange": [
          {
            "low": {
              "value": 0.9,
              "code": "INR",
              "system": "http://unitsofmeasure.org"
            }
          },
          {
            "high": {
              "value": 3,
              "code": "INR",
              "system": "http://unitsofmeasure.org"
            }
          }
        ],
        "text": {
          "status": "generated",
          "div": "<div xmlns=\"http://www.w3.org/1999/xhtml\"><table class=\"hl7__eu__lab__report\"><tr><th>Test</th><th>10-Nov-2016</th><th>Reference&#xA0;Range</th><th>Unit</th></tr><tr><td>INR in Platelet poor plasma by Coagulation assay</td><td>2.1</td><td>0.9 - 3</td><td></td><td>{INR}</td></tr></table></div>"
        },
        "status": "final",
        "subject": {
          "reference": "urn:uuid:b92ade45-aa65-4fa8-a29c-33838f739f5b",
          "display": "Ludmila Vávrová"
        },
        "effectiveDateTime": "2016-11-10T04:05:03Z",
        "specimen": {
          "reference": "urn:uuid:07a7ca16-0acf-4bad-abce-8b712e357a06"
        }
      }
    },
    {
      "fullUrl": "urn:uuid:42b69227-8dc5-482c-808e-7f0e76f47cc8",
      "resource": {
        "resourceType": "Observation",
        "id": "42b69227-8dc5-482c-808e-7f0e76f47cc8",
        "meta": {
          "profile": [
            "http://hl7.eu/fhir/laboratory/StructureDefinition/Observation-resultslab-eu-lab"
          ]
        },
        "performer": [
          {
            "display": "The Central European Lab"
          }
        ],
        "category": [
          {
            "coding": [
              {
                "system": "http://terminology.hl7.org/CodeSystem/observation-category",
                "code": "laboratory"
              }
            ]
          }
        ],
        "code": {
          "coding": [
            {
              "code": "3173-2",
              "system": "http://loinc.org",
              "display": "aPTT in Blood by Coagulation assay"
            }
          ],
          "text": "aPTT in Blood by Coagulation assay"
        },
        "valueQuantity": {
          "system": "http://unitsofmeasure.org",
          "value": 36.5,
          "unit": "s",
          "code": "s"
        },
        "referenceRange": [
          {
            "low": {
              "value": 25,
              "code": "seconds",
              "system": "http://unitsofmeasure.org"
            }
          },
          {
            "high": {
              "value": 40,
              "code": "seconds",
              "system": "http://unitsofmeasure.org"
            }
          }
        ],
        "text": {
          "status": "generated",
          "div": "<div xmlns=\"http://www.w3.org/1999/xhtml\"><table class=\"hl7__eu__lab__report\"><tr><th>Test</th><th>10-Nov-2016</th><th>Reference&#xA0;Range</th><th>Unit</th></tr><tr><td>aPTT in Blood by Coagulation assay</td><td>36.5</td><td>25 - 40</td><td></td><td>s</td></tr></table></div>"
        },
        "status": "final",
        "subject": {
          "reference": "urn:uuid:b92ade45-aa65-4fa8-a29c-33838f739f5b",
          "display": "Ludmila Vávrová"
        },
        "effectiveDateTime": "2016-11-10T04:05:03Z",
        "specimen": {
          "reference": "urn:uuid:da2926f1-b409-4961-b270-f73c38d94986"
        }
      }
    },
    {
      "fullUrl": "urn:uuid:412074d0-10aa-4184-a747-271b1e76a666",
      "resource": {
        "resourceType": "Observation",
        "id": "412074d0-10aa-4184-a747-271b1e76a666",
        "meta": {
          "profile": [
            "http://hl7.eu/fhir/laboratory/StructureDefinition/Observation-resultslab-eu-lab"
          ]
        },
        "performer": [
          {
            "display": "The Central European Lab"
          }
        ],
        "category": [
          {
            "coding": [
              {
                "system": "http://terminology.hl7.org/CodeSystem/observation-category",
                "code": "laboratory"
              }
            ]
          }
        ],
        "code": {
          "coding": [
            {
              "code": "2744-1",
              "system": "http://loinc.org",
              "display": "pH of Arterial blood"
            }
          ],
          "text": "pH of Arterial blood"
        },
        "valueQuantity": {
          "system": "http://unitsofmeasure.org",
          "value": 6.8,
          "unit": "[pH]",
          "code": "[pH]"
        },
        "referenceRange": [
          {
            "low": {
              "value": 7.35,
              "code": "pH",
              "system": "http://unitsofmeasure.org"
            }
          },
          {
            "high": {
              "value": 7.45,
              "code": "pH",
              "system": "http://unitsofmeasure.org"
            }
          }
        ],
        "interpretation": [
          {
            "coding": [
              {
                "code": "L",
                "system": "http://terminology.hl7.org/CodeSystem/v3-ObservationInterpretation",
                "display": "Low"
              }
            ]
          }
        ],
        "text": {
          "status": "generated",
          "div": "<div xmlns=\"http://www.w3.org/1999/xhtml\"><table class=\"hl7__eu__lab__report\"><tr><th>Test</th><th>10-Nov-2016</th><th>Reference&#xA0;Range</th><th>Unit</th></tr><tr><td>pH of Arterial blood</td><td>6.8</td><td>7.35 - 7.45</td><td>L</td><td>[pH]</td></tr></table></div>"
        },
        "status": "final",
        "subject": {
          "reference": "urn:uuid:b92ade45-aa65-4fa8-a29c-33838f739f5b",
          "display": "Ludmila Vávrová"
        },
        "effectiveDateTime": "2016-11-10T04:05:03Z",
        "specimen": {
          "reference": "urn:uuid:acc589cf-4a7a-48ac-b71b-0b6ed8c722f4"
        }
      }
    },
    {
      "fullUrl": "urn:uuid:d6cc186d-bee8-44c0-869d-deece78f429f",
      "resource": {
        "resourceType": "Observation",
        "id": "d6cc186d-bee8-44c0-869d-deece78f429f",
        "meta": {
          "profile": [
            "http://hl7.eu/fhir/laboratory/StructureDefinition/Observation-resultslab-eu-lab"
          ]
        },
        "performer": [
          {
            "display": "The Central European Lab"
          }
        ],
        "category": [
          {
            "coding": [
              {
                "system": "http://terminology.hl7.org/CodeSystem/observation-category",
                "code": "laboratory"
              }
            ]
          }
        ],
        "code": {
          "coding": [
            {
              "code": "2019-8",
              "system": "http://loinc.org",
              "display": "Carbon dioxide [Partial pressure] in Arterial blood"
            }
          ],
          "text": "Carbon dioxide [Partial pressure] in Arterial blood"
        },
        "valueQuantity": {
          "system": "http://unitsofmeasure.org",
          "value": 39.6,
          "unit": "mm[Hg]",
          "code": "mm[Hg]"
        },
        "referenceRange": [
          {
            "low": {
              "value": 35,
              "code": "mm[Hg]",
              "system": "http://unitsofmeasure.org"
            }
          },
          {
            "high": {
              "value": 45,
              "code": "mm[Hg]",
              "system": "http://unitsofmeasure.org"
            }
          }
        ],
        "text": {
          "status": "generated",
          "div": "<div xmlns=\"http://www.w3.org/1999/xhtml\"><table class=\"hl7__eu__lab__report\"><tr><th>Test</th><th>10-Nov-2016</th><th>Reference&#xA0;Range</th><th>Unit</th></tr><tr><td>Carbon dioxide [Partial pressure] in Arterial blood</td><td>39.6</td><td>35 - 45</td><td></td><td>mm[Hg]</td></tr></table></div>"
        },
        "status": "final",
        "subject": {
          "reference": "urn:uuid:b92ade45-aa65-4fa8-a29c-33838f739f5b",
          "display": "Ludmila Vávrová"
        },
        "effectiveDateTime": "2016-11-10T04:05:03Z",
        "specimen": {
          "reference": "urn:uuid:acc589cf-4a7a-48ac-b71b-0b6ed8c722f4"
        }
      }
    },
    {
      "fullUrl": "urn:uuid:c23d154d-c8d6-41d0-ad9d-cfafa5ccb3dc",
      "resource": {
        "resourceType": "Observation",
        "id": "c23d154d-c8d6-41d0-ad9d-cfafa5ccb3dc",
        "meta": {
          "profile": [
            "http://hl7.eu/fhir/laboratory/StructureDefinition/Observation-resultslab-eu-lab"
          ]
        },
        "performer": [
          {
            "display": "The Central European Lab"
          }
        ],
        "category": [
          {
            "coding": [
              {
                "system": "http://terminology.hl7.org/CodeSystem/observation-category",
                "code": "laboratory"
              }
            ]
          }
        ],
        "code": {
          "coding": [
            {
              "code": "2703-7",
              "system": "http://loinc.org",
              "display": "Oxygen [Partial pressure] in Arterial blood"
            }
          ],
          "text": "Oxygen [Partial pressure] in Arterial blood"
        },
        "valueQuantity": {
          "system": "http://unitsofmeasure.org",
          "value": 88.1,
          "unit": "mm[Hg]",
          "code": "mm[Hg]"
        },
        "referenceRange": [
          {
            "low": {
              "value": 75,
              "code": "mm[Hg]",
              "system": "http://unitsofmeasure.org"
            }
          },
          {
            "high": {
              "value": 100,
              "code": "mm[Hg]",
              "system": "http://unitsofmeasure.org"
            }
          }
        ],
        "text": {
          "status": "generated",
          "div": "<div xmlns=\"http://www.w3.org/1999/xhtml\"><table class=\"hl7__eu__lab__report\"><tr><th>Test</th><th>10-Nov-2016</th><th>Reference&#xA0;Range</th><th>Unit</th></tr><tr><td>Oxygen [Partial pressure] in Arterial blood</td><td>88.1</td><td>75 - 100</td><td></td><td>mm[Hg]</td></tr></table></div>"
        },
        "status": "final",
        "subject": {
          "reference": "urn:uuid:b92ade45-aa65-4fa8-a29c-33838f739f5b",
          "display": "Ludmila Vávrová"
        },
        "effectiveDateTime": "2016-11-10T04:05:03Z",
        "specimen": {
          "reference": "urn:uuid:acc589cf-4a7a-48ac-b71b-0b6ed8c722f4"
        }
      }
    },
    {
      "fullUrl": "urn:uuid:273d500f-b305-4f5b-85e8-8a732ed0bae6",
      "resource": {
        "resourceType": "Observation",
        "id": "273d500f-b305-4f5b-85e8-8a732ed0bae6",
        "meta": {
          "profile": [
            "http://hl7.eu/fhir/laboratory/StructureDefinition/Observation-resultslab-eu-lab"
          ]
        },
        "performer": [
          {
            "display": "The Central European Lab"
          }
        ],
        "category": [
          {
            "coding": [
              {
                "system": "http://terminology.hl7.org/CodeSystem/observation-category",
                "code": "laboratory"
              }
            ]
          }
        ],
        "code": {
          "coding": [
            {
              "code": "1960-4",
              "system": "http://loinc.org",
              "display": "Bicarbonate [Moles/volume] in Arterial blood"
            }
          ],
          "text": "Bicarbonate [Moles/volume] in Arterial blood"
        },
        "valueQuantity": {
          "system": "http://unitsofmeasure.org",
          "value": 22.5,
          "unit": "mmol/L",
          "code": "mmol/L"
        },
        "referenceRange": [
          {
            "low": {
              "value": 22,
              "code": "mmol/L",
              "system": "http://unitsofmeasure.org"
            }
          },
          {
            "high": {
              "value": 32,
              "code": "mmol/L",
              "system": "http://unitsofmeasure.org"
            }
          }
        ],
        "text": {
          "status": "generated",
          "div": "<div xmlns=\"http://www.w3.org/1999/xhtml\"><table class=\"hl7__eu__lab__report\"><tr><th>Test</th><th>10-Nov-2016</th><th>Reference&#xA0;Range</th><th>Unit</th></tr><tr><td>Bicarbonate [Moles/volume] in Arterial blood</td><td>22.5</td><td>22 - 32</td><td></td><td>mmol/L</td></tr></table></div>"
        },
        "status": "final",
        "subject": {
          "reference": "urn:uuid:b92ade45-aa65-4fa8-a29c-33838f739f5b",
          "display": "Ludmila Vávrová"
        },
        "effectiveDateTime": "2016-11-10T04:05:03Z",
        "specimen": {
          "reference": "urn:uuid:acc589cf-4a7a-48ac-b71b-0b6ed8c722f4"
        }
      }
    },
    {
      "fullUrl": "urn:uuid:92ccb51e-fbf9-4c64-b36c-0808ae084753",
      "resource": {
        "resourceType": "Observation",
        "id": "92ccb51e-fbf9-4c64-b36c-0808ae084753",
        "meta": {
          "profile": [
            "http://hl7.eu/fhir/laboratory/StructureDefinition/Observation-resultslab-eu-lab"
          ]
        },
        "performer": [
          {
            "display": "The Central European Lab"
          }
        ],
        "category": [
          {
            "coding": [
              {
                "system": "http://terminology.hl7.org/CodeSystem/observation-category",
                "code": "laboratory"
              }
            ]
          }
        ],
        "code": {
          "coding": [
            {
              "code": "2708-6",
              "system": "http://loinc.org",
              "display": "Oxygen saturation in Arterial blood"
            }
          ],
          "text": "Oxygen saturation in Arterial blood"
        },
        "valueQuantity": {
          "system": "http://unitsofmeasure.org",
          "value": 90,
          "unit": "%",
          "code": "%"
        },
        "referenceRange": [
          {
            "low": {
              "value": 95,
              "code": "%",
              "system": "http://unitsofmeasure.org"
            }
          },
          {
            "high": {
              "value": 100,
              "code": "%",
              "system": "http://unitsofmeasure.org"
            }
          }
        ],
        "interpretation": [
          {
            "coding": [
              {
                "code": "L",
                "system": "http://terminology.hl7.org/CodeSystem/v3-ObservationInterpretation",
                "display": "Low"
              }
            ]
          }
        ],
        "text": {
          "status": "generated",
          "div": "<div xmlns=\"http://www.w3.org/1999/xhtml\"><table class=\"hl7__eu__lab__report\"><tr><th>Test</th><th>10-Nov-2016</th><th>Reference&#xA0;Range</th><th>Unit</th></tr><tr><td>Oxygen saturation in Arterial blood</td><td>90.0</td><td>95 - 100</td><td>L</td><td>%</td></tr></table></div>"
        },
        "status": "final",
        "subject": {
          "reference": "urn:uuid:b92ade45-aa65-4fa8-a29c-33838f739f5b",
          "display": "Ludmila Vávrová"
        },
        "effectiveDateTime": "2016-11-10T04:05:03Z",
        "specimen": {
          "reference": "urn:uuid:acc589cf-4a7a-48ac-b71b-0b6ed8c722f4"
        }
      }
    },
    {
      "fullUrl": "urn:uuid:4411a905-2b95-4702-9280-d40af0ec4611",
      "resource": {
        "resourceType": "Observation",
        "id": "4411a905-2b95-4702-9280-d40af0ec4611",
        "meta": {
          "profile": [
            "http://hl7.eu/fhir/laboratory/StructureDefinition/Observation-resultslab-eu-lab"
          ]
        },
        "performer": [
          {
            "display": "The Central European Lab"
          }
        ],
        "category": [
          {
            "coding": [
              {
                "system": "http://terminology.hl7.org/CodeSystem/observation-category",
                "code": "laboratory"
              }
            ]
          }
        ],
        "code": {
          "coding": [
            {
              "code": "2093-3",
              "system": "http://loinc.org",
              "display": "Cholesterol [Mass/volume] in Serum or Plasma"
            }
          ],
          "text": "Cholesterol [Mass/volume] in Serum or Plasma"
        },
        "valueQuantity": {
          "system": "http://unitsofmeasure.org",
          "value": 253.7,
          "unit": "mg/dL",
          "code": "mg/dL"
        },
        "referenceRange": [
          {
            "low": {
              "value": 125,
              "code": "mg/dL",
              "system": "http://unitsofmeasure.org"
            }
          },
          {
            "high": {
              "value": 200,
              "code": "mg/dL",
              "system": "http://unitsofmeasure.org"
            }
          }
        ],
        "interpretation": [
          {
            "coding": [
              {
                "code": "H",
                "system": "http://terminology.hl7.org/CodeSystem/v3-ObservationInterpretation",
                "display": "High"
              }
            ]
          }
        ],
        "text": {
          "status": "generated",
          "div": "<div xmlns=\"http://www.w3.org/1999/xhtml\"><table class=\"hl7__eu__lab__report\"><tr><th>Test</th><th>10-Nov-2016</th><th>Reference&#xA0;Range</th><th>Unit</th></tr><tr><td>Cholesterol [Mass/volume] in Serum or Plasma</td><td>253.7</td><td>125 - 200</td><td>H</td><td>mg/dL</td></tr></table></div>"
        },
        "status": "final",
        "subject": {
          "reference": "urn:uuid:b92ade45-aa65-4fa8-a29c-33838f739f5b",
          "display": "Ludmila Vávrová"
        },
        "effectiveDateTime": "2016-11-10T04:05:03Z",
        "specimen": {
          "reference": "urn:uuid:d7633821-2722-46bb-bad3-4ea83c15caab"
        }
      }
    },
    {
      "fullUrl": "urn:uuid:2d256f75-cf12-48db-a7ae-f9cd272a7d0b",
      "resource": {
        "resourceType": "Observation",
        "id": "2d256f75-cf12-48db-a7ae-f9cd272a7d0b",
        "meta": {
          "profile": [
            "http://hl7.eu/fhir/laboratory/StructureDefinition/Observation-resultslab-eu-lab"
          ]
        },
        "performer": [
          {
            "display": "The Central European Lab"
          }
        ],
        "category": [
          {
            "coding": [
              {
                "system": "http://terminology.hl7.org/CodeSystem/observation-category",
                "code": "laboratory"
              }
            ]
          }
        ],
        "code": {
          "coding": [
            {
              "code": "2571-8",
              "system": "http://loinc.org",
              "display": "Triglyceride [Mass/volume] in Serum or Plasma"
            }
          ],
          "text": "Triglyceride [Mass/volume] in Serum or Plasma"
        },
        "valueQuantity": {
          "system": "http://unitsofmeasure.org",
          "value": 117.8,
          "unit": "mg/dL",
          "code": "mg/dL"
        },
        "referenceRange": [
          {
            "low": {
              "value": 10,
              "code": "mg/dL",
              "system": "http://unitsofmeasure.org"
            }
          },
          {
            "high": {
              "value": 175,
              "code": "mg/dL",
              "system": "http://unitsofmeasure.org"
            }
          }
        ],
        "text": {
          "status": "generated",
          "div": "<div xmlns=\"http://www.w3.org/1999/xhtml\"><table class=\"hl7__eu__lab__report\"><tr><th>Test</th><th>10-Nov-2016</th><th>Reference&#xA0;Range</th><th>Unit</th></tr><tr><td>Triglyceride [Mass/volume] in Serum or Plasma</td><td>117.8</td><td>10 - 175</td><td></td><td>mg/dL</td></tr></table></div>"
        },
        "status": "final",
        "subject": {
          "reference": "urn:uuid:b92ade45-aa65-4fa8-a29c-33838f739f5b",
          "display": "Ludmila Vávrová"
        },
        "effectiveDateTime": "2016-11-10T04:05:03Z",
        "specimen": {
          "reference": "urn:uuid:d7633821-2722-46bb-bad3-4ea83c15caab"
        }
      }
    },
    {
      "fullUrl": "urn:uuid:ff85fedc-dd11-4b26-b4db-ef570d374821",
      "resource": {
        "resourceType": "Observation",
        "id": "ff85fedc-dd11-4b26-b4db-ef570d374821",
        "meta": {
          "profile": [
            "http://hl7.eu/fhir/laboratory/StructureDefinition/Observation-resultslab-eu-lab"
          ]
        },
        "performer": [
          {
            "display": "The Central European Lab"
          }
        ],
        "category": [
          {
            "coding": [
              {
                "system": "http://terminology.hl7.org/CodeSystem/observation-category",
                "code": "laboratory"
              }
            ]
          }
        ],
        "code": {
          "coding": [
            {
              "code": "18262-6",
              "system": "http://loinc.org",
              "display": "Cholesterol in LDL [Mass/volume] in Serum or Plasma by Direct assay"
            }
          ],
          "text": "Cholesterol in LDL [Mass/volume] in Serum or Plasma by Direct assay"
        },
        "valueQuantity": {
          "system": "http://unitsofmeasure.org",
          "value": 172.7,
          "unit": "mg/dL",
          "code": "mg/dL"
        },
        "referenceRange": [
          {
            "low": {
              "value": 0,
              "code": "mg/dL",
              "system": "http://unitsofmeasure.org"
            }
          },
          {
            "high": {
              "value": 130,
              "code": "mg/dL",
              "system": "http://unitsofmeasure.org"
            }
          }
        ],
        "interpretation": [
          {
            "coding": [
              {
                "code": "H",
                "system": "http://terminology.hl7.org/CodeSystem/v3-ObservationInterpretation",
                "display": "High"
              }
            ]
          }
        ],
        "text": {
          "status": "generated",
          "div": "<div xmlns=\"http://www.w3.org/1999/xhtml\"><table class=\"hl7__eu__lab__report\"><tr><th>Test</th><th>10-Nov-2016</th><th>Reference&#xA0;Range</th><th>Unit</th></tr><tr><td>Cholesterol in LDL [Mass/volume] in Serum or Plasma by Direct assay</td><td>172.7</td><td>0 - 130</td><td>H</td><td>mg/dL</td></tr></table></div>"
        },
        "status": "final",
        "subject": {
          "reference": "urn:uuid:b92ade45-aa65-4fa8-a29c-33838f739f5b",
          "display": "Ludmila Vávrová"
        },
        "effectiveDateTime": "2016-11-10T04:05:03Z",
        "specimen": {
          "reference": "urn:uuid:d7633821-2722-46bb-bad3-4ea83c15caab"
        }
      }
    },
    {
      "fullUrl": "urn:uuid:d751afc4-f709-401a-8198-4e1af3ea94ff",
      "resource": {
        "resourceType": "Observation",
        "id": "d751afc4-f709-401a-8198-4e1af3ea94ff",
        "meta": {
          "profile": [
            "http://hl7.eu/fhir/laboratory/StructureDefinition/Observation-resultslab-eu-lab"
          ]
        },
        "performer": [
          {
            "display": "The Central European Lab"
          }
        ],
        "category": [
          {
            "coding": [
              {
                "system": "http://terminology.hl7.org/CodeSystem/observation-category",
                "code": "laboratory"
              }
            ]
          }
        ],
        "code": {
          "coding": [
            {
              "code": "2085-9",
              "system": "http://loinc.org",
              "display": "Cholesterol in HDL [Mass/volume] in Serum or Plasma"
            }
          ],
          "text": "Cholesterol in HDL [Mass/volume] in Serum or Plasma"
        },
        "valueQuantity": {
          "system": "http://unitsofmeasure.org",
          "value": 57.4,
          "unit": "mg/dL",
          "code": "mg/dL"
        },
        "referenceRange": [
          {
            "low": {
              "value": 50,
              "code": "mg/dL",
              "system": "http://unitsofmeasure.org"
            }
          },
          {
            "high": {
              "value": 100,
              "code": "mg/dL",
              "system": "http://unitsofmeasure.org"
            }
          }
        ],
        "text": {
          "status": "generated",
          "div": "<div xmlns=\"http://www.w3.org/1999/xhtml\"><table class=\"hl7__eu__lab__report\"><tr><th>Test</th><th>10-Nov-2016</th><th>Reference&#xA0;Range</th><th>Unit</th></tr><tr><td>Cholesterol in HDL [Mass/volume] in Serum or Plasma</td><td>57.4</td><td>50 - 100</td><td></td><td>mg/dL</td></tr></table></div>"
        },
        "status": "final",
        "subject": {
          "reference": "urn:uuid:b92ade45-aa65-4fa8-a29c-33838f739f5b",
          "display": "Ludmila Vávrová"
        },
        "effectiveDateTime": "2016-11-10T04:05:03Z",
        "specimen": {
          "reference": "urn:uuid:d7633821-2722-46bb-bad3-4ea83c15caab"
        }
      }
    },
    {
      "fullUrl": "urn:uuid:8a5742f8-9f3c-4a9d-8aaa-d8b106e5a7fa",
      "resource": {
        "resourceType": "Device",
        "id": "8a5742f8-9f3c-4a9d-8aaa-d8b106e5a7fa",
        "deviceName": [
          {
            "name": "SYNDERAI Synthetic Generator",
            "type": "manufacturer-name"
          }
        ],
        "version": [
          {
            "value": "5.0"
          }
        ],
        "text": {
          "status": "generated",
          "div": "<div xmlns=\"http://www.w3.org/1999/xhtml\">SYNDERAI Synthetic Generator v5.0</div>"
        },
        "status": "active\"",
        "distinctIdentifier": "synderai-generator-50",
        "manufacturer": "SYNDERAI Project"
      }
    },
    {
      "fullUrl": "urn:uuid:8f2814d4-26f3-4fda-bb31-8c317e11e888",
      "resource": {
        "resourceType": "Provenance",
        "id": "8f2814d4-26f3-4fda-bb31-8c317e11e888",
        "target": [
          {
            "reference": "Patient/b92ade45-aa65-4fa8-a29c-33838f739f5b"
          },
          {
            "reference": "Bundle/d8acd7b5-1833-4a3b-872e-200f9c557a1c"
          },
          {
            "reference": "Composition/57c44118-245c-43c3-883e-ba09f80e0c73"
          },
          {
            "reference": "PractitionerRole/747fda2c-b80b-4116-8eae-ca08b01ea517"
          },
          {
            "reference": "Practitioner/d36d4ee1-097d-4684-80ed-4dfa05e81164"
          },
          {
            "reference": "PractitionerRole/2ec493eb-1aac-4bb7-9b07-791e6f68a821"
          },
          {
            "reference": "Organization/f4933620-6030-4e9c-a452-2d8daf0b5fbd"
          }
        ],
        "activity": {
          "text": "Synthetic Example Data Generation"
        },
        "policy": [
          "https://synderai.net/synderai-synthetic-data-policy"
        ],
        "agent": [
          {
            "type": {
              "text": "author"
            },
            "who": {
              "reference": "Device/8a5742f8-9f3c-4a9d-8aaa-d8b106e5a7fa"
            }
          }
        ],
        "reason": [
          {
            "text": "Interoperability Testing and Training (non-clinical use)"
          }
        ],
        "text": {
          "status": "generated",
          "div": "<div xmlns=\"http://www.w3.org/1999/xhtml\">Provenance for SYNDERAI Synthetic Example Data Resource</div>"
        },
        "recorded": "2016-11-10T05:05:03Z"
      }
    },
    {
      "fullUrl": "urn:uuid:747fda2c-b80b-4116-8eae-ca08b01ea517",
      "resource": {
        "resourceType": "PractitionerRole",
        "id": "747fda2c-b80b-4116-8eae-ca08b01ea517",
        "meta": {
          "profile": [
            "http://hl7.eu/fhir/base/StructureDefinition/practitionerRole-eu"
          ]
        },
        "text": {
          "status": "generated",
          "div": "<div xmlns=\"http://www.w3.org/1999/xhtml\">Laboratory Role Id: 747fda2c-b80b-4116-8eae-ca08b01ea517</div>"
        },
        "practitioner": {
          "reference": "urn:uuid:d36d4ee1-097d-4684-80ed-4dfa05e81164"
        }
      }
    },
    {
      "fullUrl": "urn:uuid:d36d4ee1-097d-4684-80ed-4dfa05e81164",
      "resource": {
        "resourceType": "Practitioner",
        "id": "d36d4ee1-097d-4684-80ed-4dfa05e81164",
        "meta": {
          "profile": [
            "http://hl7.eu/fhir/base/StructureDefinition/practitioner-eu"
          ]
        },
        "identifier": [
          {
            "assigner": {
              "display": "HL7 Europe"
            },
            "system": "urn:oid:2.16.840.1.113883.2.51.999",
            "value": "e77d08d4-dd40-4c53-b508-b5d0696fe032"
          }
        ],
        "name": [
          {
            "prefix": [
              "dr"
            ],
            "given": [
              "Ex"
            ],
            "family": "Ample"
          }
        ],
        "address": [
          {
            "line": [
              "Laboratoire Central Européenne",
              "Boulevard du Jardin Botanique 32"
            ],
            "postalCode": "1000",
            "city": "Brussels",
            "country": "Belgium"
          }
        ],
        "text": {
          "status": "generated",
          "div": "<div xmlns=\"http://www.w3.org/1999/xhtml\">Laboratory: Laboratoire Central Européenne, 1000 Brussels, Belgium</div>"
        }
      }
    }
  ],
  "type": "document",
  "timestamp": "2016-11-10T05:05:03Z"
}
