{
  "resourceType": "Bundle",
  "id": "f01dd116-0b89-4dc1-97e7-cff7d8064736",
  "meta": {
    "profile": [
      "http://hl7.eu/fhir/laboratory/StructureDefinition/Bundle-eu-lab"
    ]
  },
  "identifier": {
    "assigner": {
      "display": "HL7 Europe"
    },
    "system": "urn:oid:2.16.840.1.113883.2.51.999",
    "value": "96d62d09-68c7-43c8-9816-c1ce03bd4d43"
  },
  "entry": [
    {
      "fullUrl": "urn:uuid:a2cc973d-1d03-4ee3-b087-3f105d034a46",
      "resource": {
        "resourceType": "Composition",
        "id": "a2cc973d-1d03-4ee3-b087-3f105d034a46",
        "meta": {
          "profile": [
            "http://hl7.eu/fhir/laboratory/StructureDefinition/Composition-eu-lab"
          ]
        },
        "identifier": {
          "assigner": {
            "display": "HL7 Europe"
          },
          "system": "urn:oid:2.16.840.1.113883.2.51.999",
          "value": "b92b9991-2c6e-48cc-9bfd-a13d2dbf9a69"
        },
        "author": [
          {
            "reference": "urn:uuid:3f2d78cf-dcfa-4e58-8f48-c784c36e0373"
          }
        ],
        "category": [
          {
            "coding": [
              {
                "code": "26436-6",
                "system": "http://loinc.org",
                "display": "Laboratory studies (set)"
              }
            ]
          }
        ],
        "type": {
          "coding": [
            {
              "code": "11502-2",
              "system": "http://loinc.org",
              "display": "Laboratory report"
            }
          ],
          "text": "Laboratory Report"
        },
        "section": [
          {
            "code": {
              "coding": [
                {
                  "code": "26436-6",
                  "system": "http://loinc.org",
                  "display": "Laboratory studies (set)"
                }
              ],
              "text": "Laboratory studies"
            },
            "section": [
              {
                "code": {
                  "coding": [
                    {
                      "code": "$18723-7",
                      "system": "http://loinc.org",
                      "display": "Hematology studies (set)"
                    }
                  ],
                  "text": "Hematology"
                },
                "entry": [
                  {
                    "reference": "urn:uuid:318f6005-845f-48ac-b245-10bd7da81cc9"
                  },
                  {
                    "reference": "urn:uuid:78b9955a-fd28-4434-be2e-69b56bb46733"
                  },
                  {
                    "reference": "urn:uuid:a39173ab-5ce4-418d-90d7-9c9e584db111"
                  },
                  {
                    "reference": "urn:uuid:93a0953f-1315-4267-a654-8b44ea63b132"
                  },
                  {
                    "reference": "urn:uuid:8db213c7-556e-49d5-87be-353951bf40fc"
                  },
                  {
                    "reference": "urn:uuid:0a5a875a-29be-4a4f-bac3-c0ff321d03c8"
                  },
                  {
                    "reference": "urn:uuid:0de166a4-a782-41a1-93bc-2f77d49bc2b3"
                  },
                  {
                    "reference": "urn:uuid:c434f13b-32fb-4b3a-8f4f-25de57cf2932"
                  },
                  {
                    "reference": "urn:uuid:6f71bdfb-c797-4846-ad5e-38890535fff7"
                  },
                  {
                    "reference": "urn:uuid:f4f6c2a6-7d62-4999-a99b-6cbfe87322b1"
                  },
                  {
                    "reference": "urn:uuid:291fbc1a-e23b-4624-83dc-7a9ce6240ea2"
                  }
                ],
                "text": {
                  "status": "generated",
                  "div": "<div xmlns=\"http://www.w3.org/1999/xhtml\"><h3>Hematology</h3><table class=\"hl7__eu__lab__report\"><thead><tr><th>Test</th><th>30-OCT-2019</th><th>Reference&#xA0;Range</th><th>Unit</th></tr></thead><tbody><tr><td>Leukocytes [#/volume] in Blood by Automated count</td><td>10.3</td><td>3.4 - 10.6</td><td>10*3/uL</td></tr><tr><td>Erythrocytes [#/volume] in Blood by Automated count</td><td><strong>4.3 L</strong></td><td>4.7 - 5.2</td><td>10*6/uL</td></tr><tr><td>Hemoglobin [Mass/volume] in Blood</td><td><strong>16.5 H</strong></td><td>11.5 - 16</td><td>g/dL</td></tr><tr><td>Hematocrit [Volume Fraction] of Blood by Automated count</td><td><strong>37.0 L</strong></td><td>38 - 56</td><td>%</td></tr><tr><td>MCV [Entitic volume] by Automated count</td><td>83.2</td><td>78 - 98</td><td>fL</td></tr><tr><td>MCH [Entitic mass] by Automated count</td><td>31.9</td><td>27 - 34</td><td>pg</td></tr><tr><td>MCHC [Mass/volume] by Automated count</td><td>34.9</td><td>31 - 36</td><td>g/dL</td></tr><tr><td>Erythrocyte distribution width [Entitic volume] by Automated count</td><td>45.9</td><td>36 - 55</td><td>fL</td></tr><tr><td>Platelets [#/volume] in Blood by Automated count</td><td>418.7</td><td>150 - 450</td><td>10*3/uL</td></tr><tr><td>Platelet distribution width [Entitic volume] in Blood by Automated count</td><td><strong>416.0 H</strong></td><td>11.6 - 17.4</td><td>fL</td></tr><tr><td>Platelet mean volume [Entitic volume] in Blood by Automated count</td><td>10.4</td><td>7.2 - 13.5</td><td>fL</td></tr></tbody></table></div>"
                },
                "title": "Hematology"
              }
            ],
            "title": "Laboratory Report"
          },
          {
            "text": {
              "status": "generated",
              "div": "<div xmlns=\"http://www.w3.org/1999/xhtml\"><h3>Annotation</h3><table class=\"hl7__eu__lab__report\"><tr><th>Conclusion and Recommendations based on this report and previous findings known to us</th></tr><tr><td>The patient shows mild erythrocytopenia and low hematocrit, but hemoglobin is slightly elevated, possibly due to hemoconcentration. Leukocytes and platelets are within normal limits, though platelet distribution width is markedly increased, which may indicate platelet anisocytosis. No acute hematological abnormality is evident, but findings may suggest mild anemia; clinical correlation and further evaluation are recommended.</td></tr></table></div>"
            },
            "code": {
              "coding": [
                {
                  "system": "http://loinc.org",
                  "code": "48767-8",
                  "display": "Annotation comment"
                }
              ]
            },
            "title": "Annotation comment"
          }
        ],
        "status": "final",
        "subject": {
          "reference": "urn:uuid:8688cba7-8b6c-4cdd-b358-69a4147e68e0",
          "display": "Ludmila Vávrová"
        },
        "date": "2019-10-30T04:51:38Z",
        "title": "Laboratory Report",
        "confidentiality": "N"
      }
    },
    {
      "fullUrl": "urn:uuid:75c1746d-f266-4aa8-9e8a-526eae730896",
      "resource": {
        "resourceType": "DiagnosticReport",
        "id": "75c1746d-f266-4aa8-9e8a-526eae730896",
        "meta": {
          "profile": [
            "http://hl7.eu/fhir/laboratory/StructureDefinition/DiagnosticReport-eu-lab"
          ]
        },
        "identifier": [
          {
            "assigner": {
              "display": "HL7 Europe"
            },
            "system": "urn:oid:2.16.840.1.113883.2.51.999",
            "value": "c8e16f97-568e-49cb-b8da-7b610db21295"
          }
        ],
        "extension": [
          {
            "url": "http://hl7.org/fhir/5.0/StructureDefinition/extension-DiagnosticReport.composition",
            "valueReference": {
              "reference": "urn:uuid:b92b9991-2c6e-48cc-9bfd-a13d2dbf9a69"
            }
          }
        ],
        "category": [
          {
            "coding": [
              {
                "code": "26436-6",
                "system": "http://loinc.org",
                "display": "Laboratory studies (set)"
              }
            ]
          }
        ],
        "specimen": [
          {
            "reference": "urn:uuid:ece4d270-07ad-4048-9e60-c7c00fa534f2"
          },
          {
            "reference": "urn:uuid:ece4d270-07ad-4048-9e60-c7c00fa534f2"
          }
        ],
        "result": [
          {
            "reference": "urn:uuid:318f6005-845f-48ac-b245-10bd7da81cc9"
          },
          {
            "reference": "urn:uuid:78b9955a-fd28-4434-be2e-69b56bb46733"
          },
          {
            "reference": "urn:uuid:a39173ab-5ce4-418d-90d7-9c9e584db111"
          },
          {
            "reference": "urn:uuid:93a0953f-1315-4267-a654-8b44ea63b132"
          },
          {
            "reference": "urn:uuid:8db213c7-556e-49d5-87be-353951bf40fc"
          },
          {
            "reference": "urn:uuid:0a5a875a-29be-4a4f-bac3-c0ff321d03c8"
          },
          {
            "reference": "urn:uuid:0de166a4-a782-41a1-93bc-2f77d49bc2b3"
          },
          {
            "reference": "urn:uuid:c434f13b-32fb-4b3a-8f4f-25de57cf2932"
          },
          {
            "reference": "urn:uuid:6f71bdfb-c797-4846-ad5e-38890535fff7"
          },
          {
            "reference": "urn:uuid:f4f6c2a6-7d62-4999-a99b-6cbfe87322b1"
          },
          {
            "reference": "urn:uuid:291fbc1a-e23b-4624-83dc-7a9ce6240ea2"
          }
        ],
        "status": "registered",
        "code": {
          "coding": [
            {
              "code": "11502-2",
              "system": "http://loinc.org",
              "display": "Laboratory report"
            }
          ]
        },
        "subject": {
          "reference": "urn:uuid:8688cba7-8b6c-4cdd-b358-69a4147e68e0",
          "display": "Ludmila Vávrová"
        }
      }
    },
    {
      "fullUrl": "urn:uuid:8688cba7-8b6c-4cdd-b358-69a4147e68e0",
      "resource": {
        "resourceType": "Patient",
        "id": "8688cba7-8b6c-4cdd-b358-69a4147e68e0",
        "meta": {
          "security": [
            {
              "system": "http://terminology.hl7.org/CodeSystem/v3-ActReason",
              "code": "HTEST"
            },
            {
              "system": "http://terminology.hl7.org/CodeSystem/v3-ActReason",
              "code": "TRAIN"
            }
          ],
          "tag": [
            {
              "system": "https://synderai.net/fhir/CodeSystem/tags",
              "code": "synthetic",
              "display": "SYNDERAI Synthetic data"
            }
          ],
          "profile": [
            "http://hl7.eu/fhir/base/StructureDefinition/patient-eu-core"
          ]
        },
        "identifier": [
          {
            "type": {
              "coding": [
                {
                  "code": "PT",
                  "system": "http://terminology.hl7.org/CodeSystem/v2-0203"
                }
              ]
            },
            "system": "http://ec.europa.eu/identifier/eci",
            "value": "1992-540676-1"
          },
          {
            "type": {
              "coding": [
                {
                  "code": "MR",
                  "system": "http://terminology.hl7.org/CodeSystem/v2-0203"
                }
              ]
            },
            "system": "http://local.setting.eu/identifier",
            "value": "7c533aae-6e7f-89aa-dfdc-8ff900a5990b"
          }
        ],
        "name": [
          {
            "family": "Vávrová"
          },
          {
            "given": [
              "Ludmila"
            ]
          },
          {
            "text": "Ludmila Vávrová"
          }
        ],
        "address": [
          {
            "line": [
              "Šárovo Kolo 116"
            ],
            "use": "home",
            "type": "physical",
            "postalCode": "29471",
            "city": "Bakov nad Jizerou",
            "country": "Czechia"
          }
        ],
        "telecom": [
          {
            "system": "phone",
            "value": "00420 607 610 889"
          }
        ],
        "extension": [
          {
            "url": "http://hl7.org/fhir/StructureDefinition/patient-nationality",
            "valueCodeableConcept": {
              "coding": [
                {
                  "code": "CZ",
                  "system": "http://hl7.org/fhir/ValueSet/country"
                }
              ]
            }
          }
        ],
        "text": {
          "status": "generated",
          "div": "<div xmlns=\"http://www.w3.org/1999/xhtml\"><table class=\"hl7__ips\"><tr><td>Ludmila Vávrová</td><td>female</td><td>08-Aug-1940</td></tr></table></div>"
        },
        "gender": "female",
        "birthDate": "1940-08-08"
      }
    },
    {
      "fullUrl": "urn:uuid:1cdbb784-b870-41f0-9d0d-346dbeeeaa6a",
      "resource": {
        "resourceType": "ServiceRequest",
        "id": "1cdbb784-b870-41f0-9d0d-346dbeeeaa6a",
        "meta": {
          "profile": [
            "http://hl7.eu/fhir/laboratory/StructureDefinition/ServiceRequest-eu-lab"
          ]
        },
        "identifier": [
          {
            "system": "http://example.org",
            "value": "10842905-08ae-47db-bddb-a817a4bc0244"
          }
        ],
        "specimen": [
          {
            "reference": "urn:uuid:ece4d270-07ad-4048-9e60-c7c00fa534f2"
          }
        ],
        "reasonCode": [
          {
            "coding": [
              {
                "code": "414545008",
                "system": "http://snomed.info/sct",
                "display": "Ischemic heart disease"
              }
            ]
          },
          {
            "coding": [
              {
                "code": "64859006",
                "system": "http://snomed.info/sct",
                "display": "Osteoporosis"
              }
            ]
          },
          {
            "coding": [
              {
                "code": "6525002",
                "system": "http://snomed.info/sct",
                "display": "Dependent drug abuse"
              }
            ]
          },
          {
            "coding": [
              {
                "code": "55822004",
                "system": "http://snomed.info/sct",
                "display": "Hyperlipidemia"
              }
            ]
          },
          {
            "coding": [
              {
                "code": "124171000119105",
                "system": "http://snomed.info/sct",
                "display": "Chronic intractable migraine without aura"
              }
            ]
          },
          {
            "coding": [
              {
                "code": "196416002",
                "system": "http://snomed.info/sct",
                "display": "Impacted molars"
              }
            ]
          },
          {
            "coding": [
              {
                "code": "239872002",
                "system": "http://snomed.info/sct",
                "display": "Osteoarthritis of hip"
              }
            ]
          },
          {
            "coding": [
              {
                "code": "40055000",
                "system": "http://snomed.info/sct",
                "display": "Chronic sinusitis"
              }
            ]
          }
        ],
        "status": "active",
        "intent": "order",
        "code": {
          "coding": [
            {
              "code": "108252007",
              "system": "http://snomed.info/sct",
              "display": "Laboratory procedure"
            }
          ]
        },
        "subject": {
          "reference": "urn:uuid:8688cba7-8b6c-4cdd-b358-69a4147e68e0",
          "display": "Ludmila Vávrová"
        },
        "requester": {
          "reference": "urn:uuid:a8fc5589-6c24-4f0b-8dba-e8cc2113024d"
        }
      }
    },
    {
      "fullUrl": "urn:uuid:a8fc5589-6c24-4f0b-8dba-e8cc2113024d",
      "resource": {
        "resourceType": "PractitionerRole",
        "id": "a8fc5589-6c24-4f0b-8dba-e8cc2113024d",
        "meta": {
          "profile": [
            "http://hl7.eu/fhir/base/StructureDefinition/practitionerRole-eu"
          ]
        },
        "text": {
          "status": "generated",
          "div": "<div xmlns=\"http://www.w3.org/1999/xhtml\">Provider Role Id: a8fc5589-6c24-4f0b-8dba-e8cc2113024d</div>"
        },
        "organization": {
          "reference": "urn:uuid:5d8a3a24-d359-472d-be51-5b6d851a38b5"
        }
      }
    },
    {
      "fullUrl": "urn:uuid:5d8a3a24-d359-472d-be51-5b6d851a38b5",
      "resource": {
        "resourceType": "Organization",
        "id": "5d8a3a24-d359-472d-be51-5b6d851a38b5",
        "meta": {
          "profile": [
            "http://hl7.eu/fhir/base/StructureDefinition/organization-eu"
          ]
        },
        "identifier": [
          {
            "assigner": {
              "display": "HL7 Europe"
            },
            "system": "urn:oid:2.16.840.1.113883.2.51.999",
            "value": "bce0dc25-9625-428f-8e7f-5188d1201e7e"
          }
        ],
        "address": [
          {
            "city": "Kosmonosy",
            "postalCode": "293 06",
            "country": "Czechia"
          }
        ],
        "text": {
          "status": "generated",
          "div": "<div xmlns=\"http://www.w3.org/1999/xhtml\">Provider Organization: Psychiatrická nemocnice Kosmonosy</div>"
        },
        "name": "Psychiatrická nemocnice Kosmonosy"
      }
    },
    {
      "fullUrl": "urn:uuid:ece4d270-07ad-4048-9e60-c7c00fa534f2",
      "resource": {
        "resourceType": "Specimen",
        "id": "ece4d270-07ad-4048-9e60-c7c00fa534f2",
        "meta": {
          "profile": [
            "http://hl7.eu/fhir/laboratory/StructureDefinition/Specimen-eu-lab"
          ]
        },
        "collection": {
          "collectedDateTime": "2019-10-30"
        },
        "text": {
          "status": "generated",
          "div": "<div xmlns=\"http://www.w3.org/1999/xhtml\"><table class=\"hl7__eu__lab__report\"><tr><th>Specimen</th><th>Collection Date</th></tr><tr><td>Whole blood specimen (specimen)</td><td><span class=\"nb\">30-Oct-2019</span></td></tr></table></div>"
        },
        "type": {
          "coding": [
            {
              "code": "258580003",
              "system": "http://snomed.info/sct",
              "display": "Whole blood specimen (specimen)"
            }
          ]
        }
      }
    },
    {
      "fullUrl": "urn:uuid:ece4d270-07ad-4048-9e60-c7c00fa534f2",
      "resource": {
        "resourceType": "Specimen",
        "id": "ece4d270-07ad-4048-9e60-c7c00fa534f2",
        "meta": {
          "profile": [
            "http://hl7.eu/fhir/laboratory/StructureDefinition/Specimen-eu-lab"
          ]
        },
        "collection": {
          "collectedDateTime": "2019-10-30"
        },
        "text": {
          "status": "generated",
          "div": "<div xmlns=\"http://www.w3.org/1999/xhtml\"><table class=\"hl7__eu__lab__report\"><tr><th>Specimen</th><th>Collection Date</th></tr><tr><td>Whole blood specimen (specimen)</td><td><span class=\"nb\">30-Oct-2019</span></td></tr></table></div>"
        },
        "type": {
          "coding": [
            {
              "code": "258580003",
              "system": "http://snomed.info/sct",
              "display": "Whole blood specimen (specimen)"
            }
          ]
        }
      }
    },
    {
      "fullUrl": "urn:uuid:318f6005-845f-48ac-b245-10bd7da81cc9",
      "resource": {
        "resourceType": "Observation",
        "id": "318f6005-845f-48ac-b245-10bd7da81cc9",
        "meta": {
          "profile": [
            "http://hl7.eu/fhir/laboratory/StructureDefinition/Observation-resultslab-eu-lab"
          ]
        },
        "performer": [
          {
            "display": "The Central European Lab"
          }
        ],
        "category": [
          {
            "coding": [
              {
                "system": "http://terminology.hl7.org/CodeSystem/observation-category",
                "code": "laboratory"
              }
            ]
          }
        ],
        "code": {
          "coding": [
            {
              "code": "6690-2",
              "system": "http://loinc.org",
              "display": "Leukocytes [#/volume] in Blood by Automated count"
            }
          ],
          "text": "Leukocytes [#/volume] in Blood by Automated count"
        },
        "valueQuantity": {
          "system": "http://unitsofmeasure.org",
          "value": 10.3,
          "unit": "10*3/uL",
          "code": "10*3/uL"
        },
        "referenceRange": [
          {
            "low": {
              "value": 3.4,
              "code": "10*3/uL",
              "system": "http://unitsofmeasure.org"
            }
          },
          {
            "high": {
              "value": 10.6,
              "code": "10*3/uL",
              "system": "http://unitsofmeasure.org"
            }
          }
        ],
        "text": {
          "status": "generated",
          "div": "<div xmlns=\"http://www.w3.org/1999/xhtml\"><table class=\"hl7__eu__lab__report\"><tr><th>Test</th><th>30-Oct-2019</th><th>Reference&#xA0;Range</th><th>Unit</th></tr><tr><td>Leukocytes [#/volume] in Blood by Automated count</td><td>10.3</td><td>3.4 - 10.6</td><td></td><td>10*3/uL</td></tr></table></div>"
        },
        "status": "final",
        "subject": {
          "reference": "urn:uuid:8688cba7-8b6c-4cdd-b358-69a4147e68e0",
          "display": "Ludmila Vávrová"
        },
        "effectiveDateTime": "2019-10-30T03:51:38Z",
        "specimen": {
          "reference": "urn:uuid:ece4d270-07ad-4048-9e60-c7c00fa534f2"
        }
      }
    },
    {
      "fullUrl": "urn:uuid:78b9955a-fd28-4434-be2e-69b56bb46733",
      "resource": {
        "resourceType": "Observation",
        "id": "78b9955a-fd28-4434-be2e-69b56bb46733",
        "meta": {
          "profile": [
            "http://hl7.eu/fhir/laboratory/StructureDefinition/Observation-resultslab-eu-lab"
          ]
        },
        "performer": [
          {
            "display": "The Central European Lab"
          }
        ],
        "category": [
          {
            "coding": [
              {
                "system": "http://terminology.hl7.org/CodeSystem/observation-category",
                "code": "laboratory"
              }
            ]
          }
        ],
        "code": {
          "coding": [
            {
              "code": "789-8",
              "system": "http://loinc.org",
              "display": "Erythrocytes [#/volume] in Blood by Automated count"
            }
          ],
          "text": "Erythrocytes [#/volume] in Blood by Automated count"
        },
        "valueQuantity": {
          "system": "http://unitsofmeasure.org",
          "value": 4.3,
          "unit": "10*6/uL",
          "code": "10*6/uL"
        },
        "referenceRange": [
          {
            "low": {
              "value": 4.7,
              "code": "10*6/uL",
              "system": "http://unitsofmeasure.org"
            }
          },
          {
            "high": {
              "value": 5.2,
              "code": "10*6/uL",
              "system": "http://unitsofmeasure.org"
            }
          }
        ],
        "interpretation": [
          {
            "coding": [
              {
                "code": "L",
                "system": "http://terminology.hl7.org/CodeSystem/v3-ObservationInterpretation",
                "display": "Low"
              }
            ]
          }
        ],
        "text": {
          "status": "generated",
          "div": "<div xmlns=\"http://www.w3.org/1999/xhtml\"><table class=\"hl7__eu__lab__report\"><tr><th>Test</th><th>30-Oct-2019</th><th>Reference&#xA0;Range</th><th>Unit</th></tr><tr><td>Erythrocytes [#/volume] in Blood by Automated count</td><td>4.3</td><td>4.7 - 5.2</td><td>L</td><td>10*6/uL</td></tr></table></div>"
        },
        "status": "final",
        "subject": {
          "reference": "urn:uuid:8688cba7-8b6c-4cdd-b358-69a4147e68e0",
          "display": "Ludmila Vávrová"
        },
        "effectiveDateTime": "2019-10-30T03:51:38Z",
        "specimen": {
          "reference": "urn:uuid:ece4d270-07ad-4048-9e60-c7c00fa534f2"
        }
      }
    },
    {
      "fullUrl": "urn:uuid:a39173ab-5ce4-418d-90d7-9c9e584db111",
      "resource": {
        "resourceType": "Observation",
        "id": "a39173ab-5ce4-418d-90d7-9c9e584db111",
        "meta": {
          "profile": [
            "http://hl7.eu/fhir/laboratory/StructureDefinition/Observation-resultslab-eu-lab"
          ]
        },
        "performer": [
          {
            "display": "The Central European Lab"
          }
        ],
        "category": [
          {
            "coding": [
              {
                "system": "http://terminology.hl7.org/CodeSystem/observation-category",
                "code": "laboratory"
              }
            ]
          }
        ],
        "code": {
          "coding": [
            {
              "code": "718-7",
              "system": "http://loinc.org",
              "display": "Hemoglobin [Mass/volume] in Blood"
            }
          ],
          "text": "Hemoglobin [Mass/volume] in Blood"
        },
        "valueQuantity": {
          "system": "http://unitsofmeasure.org",
          "value": 16.5,
          "unit": "g/dL",
          "code": "g/dL"
        },
        "referenceRange": [
          {
            "low": {
              "value": 11.5,
              "code": "g/dL",
              "system": "http://unitsofmeasure.org"
            }
          },
          {
            "high": {
              "value": 16,
              "code": "g/dL",
              "system": "http://unitsofmeasure.org"
            }
          }
        ],
        "interpretation": [
          {
            "coding": [
              {
                "code": "H",
                "system": "http://terminology.hl7.org/CodeSystem/v3-ObservationInterpretation",
                "display": "High"
              }
            ]
          }
        ],
        "text": {
          "status": "generated",
          "div": "<div xmlns=\"http://www.w3.org/1999/xhtml\"><table class=\"hl7__eu__lab__report\"><tr><th>Test</th><th>30-Oct-2019</th><th>Reference&#xA0;Range</th><th>Unit</th></tr><tr><td>Hemoglobin [Mass/volume] in Blood</td><td>16.5</td><td>11.5 - 16</td><td>H</td><td>g/dL</td></tr></table></div>"
        },
        "status": "final",
        "subject": {
          "reference": "urn:uuid:8688cba7-8b6c-4cdd-b358-69a4147e68e0",
          "display": "Ludmila Vávrová"
        },
        "effectiveDateTime": "2019-10-30T03:51:38Z",
        "specimen": {
          "reference": "urn:uuid:ece4d270-07ad-4048-9e60-c7c00fa534f2"
        }
      }
    },
    {
      "fullUrl": "urn:uuid:93a0953f-1315-4267-a654-8b44ea63b132",
      "resource": {
        "resourceType": "Observation",
        "id": "93a0953f-1315-4267-a654-8b44ea63b132",
        "meta": {
          "profile": [
            "http://hl7.eu/fhir/laboratory/StructureDefinition/Observation-resultslab-eu-lab"
          ]
        },
        "performer": [
          {
            "display": "The Central European Lab"
          }
        ],
        "category": [
          {
            "coding": [
              {
                "system": "http://terminology.hl7.org/CodeSystem/observation-category",
                "code": "laboratory"
              }
            ]
          }
        ],
        "code": {
          "coding": [
            {
              "code": "4544-3",
              "system": "http://loinc.org",
              "display": "Hematocrit [Volume Fraction] of Blood by Automated count"
            }
          ],
          "text": "Hematocrit [Volume Fraction] of Blood by Automated count"
        },
        "valueQuantity": {
          "system": "http://unitsofmeasure.org",
          "value": 37,
          "unit": "%",
          "code": "%"
        },
        "referenceRange": [
          {
            "low": {
              "value": 38,
              "code": "%",
              "system": "http://unitsofmeasure.org"
            }
          },
          {
            "high": {
              "value": 56,
              "code": "%",
              "system": "http://unitsofmeasure.org"
            }
          }
        ],
        "interpretation": [
          {
            "coding": [
              {
                "code": "L",
                "system": "http://terminology.hl7.org/CodeSystem/v3-ObservationInterpretation",
                "display": "Low"
              }
            ]
          }
        ],
        "text": {
          "status": "generated",
          "div": "<div xmlns=\"http://www.w3.org/1999/xhtml\"><table class=\"hl7__eu__lab__report\"><tr><th>Test</th><th>30-Oct-2019</th><th>Reference&#xA0;Range</th><th>Unit</th></tr><tr><td>Hematocrit [Volume Fraction] of Blood by Automated count</td><td>37.0</td><td>38 - 56</td><td>L</td><td>%</td></tr></table></div>"
        },
        "status": "final",
        "subject": {
          "reference": "urn:uuid:8688cba7-8b6c-4cdd-b358-69a4147e68e0",
          "display": "Ludmila Vávrová"
        },
        "effectiveDateTime": "2019-10-30T03:51:38Z",
        "specimen": {
          "reference": "urn:uuid:ece4d270-07ad-4048-9e60-c7c00fa534f2"
        }
      }
    },
    {
      "fullUrl": "urn:uuid:8db213c7-556e-49d5-87be-353951bf40fc",
      "resource": {
        "resourceType": "Observation",
        "id": "8db213c7-556e-49d5-87be-353951bf40fc",
        "meta": {
          "profile": [
            "http://hl7.eu/fhir/laboratory/StructureDefinition/Observation-resultslab-eu-lab"
          ]
        },
        "performer": [
          {
            "display": "The Central European Lab"
          }
        ],
        "category": [
          {
            "coding": [
              {
                "system": "http://terminology.hl7.org/CodeSystem/observation-category",
                "code": "laboratory"
              }
            ]
          }
        ],
        "code": {
          "coding": [
            {
              "code": "787-2",
              "system": "http://loinc.org",
              "display": "MCV [Entitic volume] by Automated count"
            }
          ],
          "text": "MCV [Entitic volume] by Automated count"
        },
        "valueQuantity": {
          "system": "http://unitsofmeasure.org",
          "value": 83.2,
          "unit": "fL",
          "code": "fL"
        },
        "referenceRange": [
          {
            "low": {
              "value": 78,
              "code": "fL",
              "system": "http://unitsofmeasure.org"
            }
          },
          {
            "high": {
              "value": 98,
              "code": "fL",
              "system": "http://unitsofmeasure.org"
            }
          }
        ],
        "text": {
          "status": "generated",
          "div": "<div xmlns=\"http://www.w3.org/1999/xhtml\"><table class=\"hl7__eu__lab__report\"><tr><th>Test</th><th>30-Oct-2019</th><th>Reference&#xA0;Range</th><th>Unit</th></tr><tr><td>MCV [Entitic volume] by Automated count</td><td>83.2</td><td>78 - 98</td><td></td><td>fL</td></tr></table></div>"
        },
        "status": "final",
        "subject": {
          "reference": "urn:uuid:8688cba7-8b6c-4cdd-b358-69a4147e68e0",
          "display": "Ludmila Vávrová"
        },
        "effectiveDateTime": "2019-10-30T03:51:38Z",
        "specimen": {
          "reference": "urn:uuid:ece4d270-07ad-4048-9e60-c7c00fa534f2"
        }
      }
    },
    {
      "fullUrl": "urn:uuid:0a5a875a-29be-4a4f-bac3-c0ff321d03c8",
      "resource": {
        "resourceType": "Observation",
        "id": "0a5a875a-29be-4a4f-bac3-c0ff321d03c8",
        "meta": {
          "profile": [
            "http://hl7.eu/fhir/laboratory/StructureDefinition/Observation-resultslab-eu-lab"
          ]
        },
        "performer": [
          {
            "display": "The Central European Lab"
          }
        ],
        "category": [
          {
            "coding": [
              {
                "system": "http://terminology.hl7.org/CodeSystem/observation-category",
                "code": "laboratory"
              }
            ]
          }
        ],
        "code": {
          "coding": [
            {
              "code": "785-6",
              "system": "http://loinc.org",
              "display": "MCH [Entitic mass] by Automated count"
            }
          ],
          "text": "MCH [Entitic mass] by Automated count"
        },
        "valueQuantity": {
          "system": "http://unitsofmeasure.org",
          "value": 31.9,
          "unit": "pg",
          "code": "pg"
        },
        "referenceRange": [
          {
            "low": {
              "value": 27,
              "code": "pg",
              "system": "http://unitsofmeasure.org"
            }
          },
          {
            "high": {
              "value": 34,
              "code": "pg",
              "system": "http://unitsofmeasure.org"
            }
          }
        ],
        "text": {
          "status": "generated",
          "div": "<div xmlns=\"http://www.w3.org/1999/xhtml\"><table class=\"hl7__eu__lab__report\"><tr><th>Test</th><th>30-Oct-2019</th><th>Reference&#xA0;Range</th><th>Unit</th></tr><tr><td>MCH [Entitic mass] by Automated count</td><td>31.9</td><td>27 - 34</td><td></td><td>pg</td></tr></table></div>"
        },
        "status": "final",
        "subject": {
          "reference": "urn:uuid:8688cba7-8b6c-4cdd-b358-69a4147e68e0",
          "display": "Ludmila Vávrová"
        },
        "effectiveDateTime": "2019-10-30T03:51:38Z",
        "specimen": {
          "reference": "urn:uuid:ece4d270-07ad-4048-9e60-c7c00fa534f2"
        }
      }
    },
    {
      "fullUrl": "urn:uuid:0de166a4-a782-41a1-93bc-2f77d49bc2b3",
      "resource": {
        "resourceType": "Observation",
        "id": "0de166a4-a782-41a1-93bc-2f77d49bc2b3",
        "meta": {
          "profile": [
            "http://hl7.eu/fhir/laboratory/StructureDefinition/Observation-resultslab-eu-lab"
          ]
        },
        "performer": [
          {
            "display": "The Central European Lab"
          }
        ],
        "category": [
          {
            "coding": [
              {
                "system": "http://terminology.hl7.org/CodeSystem/observation-category",
                "code": "laboratory"
              }
            ]
          }
        ],
        "code": {
          "coding": [
            {
              "code": "786-4",
              "system": "http://loinc.org",
              "display": "MCHC [Mass/volume] by Automated count"
            }
          ],
          "text": "MCHC [Mass/volume] by Automated count"
        },
        "valueQuantity": {
          "system": "http://unitsofmeasure.org",
          "value": 34.9,
          "unit": "g/dL",
          "code": "g/dL"
        },
        "referenceRange": [
          {
            "low": {
              "value": 31,
              "code": "g/dL",
              "system": "http://unitsofmeasure.org"
            }
          },
          {
            "high": {
              "value": 36,
              "code": "g/dL",
              "system": "http://unitsofmeasure.org"
            }
          }
        ],
        "text": {
          "status": "generated",
          "div": "<div xmlns=\"http://www.w3.org/1999/xhtml\"><table class=\"hl7__eu__lab__report\"><tr><th>Test</th><th>30-Oct-2019</th><th>Reference&#xA0;Range</th><th>Unit</th></tr><tr><td>MCHC [Mass/volume] by Automated count</td><td>34.9</td><td>31 - 36</td><td></td><td>g/dL</td></tr></table></div>"
        },
        "status": "final",
        "subject": {
          "reference": "urn:uuid:8688cba7-8b6c-4cdd-b358-69a4147e68e0",
          "display": "Ludmila Vávrová"
        },
        "effectiveDateTime": "2019-10-30T03:51:38Z",
        "specimen": {
          "reference": "urn:uuid:ece4d270-07ad-4048-9e60-c7c00fa534f2"
        }
      }
    },
    {
      "fullUrl": "urn:uuid:c434f13b-32fb-4b3a-8f4f-25de57cf2932",
      "resource": {
        "resourceType": "Observation",
        "id": "c434f13b-32fb-4b3a-8f4f-25de57cf2932",
        "meta": {
          "profile": [
            "http://hl7.eu/fhir/laboratory/StructureDefinition/Observation-resultslab-eu-lab"
          ]
        },
        "performer": [
          {
            "display": "The Central European Lab"
          }
        ],
        "category": [
          {
            "coding": [
              {
                "system": "http://terminology.hl7.org/CodeSystem/observation-category",
                "code": "laboratory"
              }
            ]
          }
        ],
        "code": {
          "coding": [
            {
              "code": "21000-5",
              "system": "http://loinc.org",
              "display": "Erythrocyte distribution width [Entitic volume] by Automated count"
            }
          ],
          "text": "Erythrocyte distribution width [Entitic volume] by Automated count"
        },
        "valueQuantity": {
          "system": "http://unitsofmeasure.org",
          "value": 45.9,
          "unit": "fL",
          "code": "fL"
        },
        "referenceRange": [
          {
            "low": {
              "value": 36,
              "code": "fL",
              "system": "http://unitsofmeasure.org"
            }
          },
          {
            "high": {
              "value": 55,
              "code": "fL",
              "system": "http://unitsofmeasure.org"
            }
          }
        ],
        "text": {
          "status": "generated",
          "div": "<div xmlns=\"http://www.w3.org/1999/xhtml\"><table class=\"hl7__eu__lab__report\"><tr><th>Test</th><th>30-Oct-2019</th><th>Reference&#xA0;Range</th><th>Unit</th></tr><tr><td>Erythrocyte distribution width [Entitic volume] by Automated count</td><td>45.9</td><td>36 - 55</td><td></td><td>fL</td></tr></table></div>"
        },
        "status": "final",
        "subject": {
          "reference": "urn:uuid:8688cba7-8b6c-4cdd-b358-69a4147e68e0",
          "display": "Ludmila Vávrová"
        },
        "effectiveDateTime": "2019-10-30T03:51:38Z",
        "specimen": {
          "reference": "urn:uuid:ece4d270-07ad-4048-9e60-c7c00fa534f2"
        }
      }
    },
    {
      "fullUrl": "urn:uuid:6f71bdfb-c797-4846-ad5e-38890535fff7",
      "resource": {
        "resourceType": "Observation",
        "id": "6f71bdfb-c797-4846-ad5e-38890535fff7",
        "meta": {
          "profile": [
            "http://hl7.eu/fhir/laboratory/StructureDefinition/Observation-resultslab-eu-lab"
          ]
        },
        "performer": [
          {
            "display": "The Central European Lab"
          }
        ],
        "category": [
          {
            "coding": [
              {
                "system": "http://terminology.hl7.org/CodeSystem/observation-category",
                "code": "laboratory"
              }
            ]
          }
        ],
        "code": {
          "coding": [
            {
              "code": "777-3",
              "system": "http://loinc.org",
              "display": "Platelets [#/volume] in Blood by Automated count"
            }
          ],
          "text": "Platelets [#/volume] in Blood by Automated count"
        },
        "valueQuantity": {
          "system": "http://unitsofmeasure.org",
          "value": 418.7,
          "unit": "10*3/uL",
          "code": "10*3/uL"
        },
        "referenceRange": [
          {
            "low": {
              "value": 150,
              "code": "10*3/uL",
              "system": "http://unitsofmeasure.org"
            }
          },
          {
            "high": {
              "value": 450,
              "code": "10*3/uL",
              "system": "http://unitsofmeasure.org"
            }
          }
        ],
        "text": {
          "status": "generated",
          "div": "<div xmlns=\"http://www.w3.org/1999/xhtml\"><table class=\"hl7__eu__lab__report\"><tr><th>Test</th><th>30-Oct-2019</th><th>Reference&#xA0;Range</th><th>Unit</th></tr><tr><td>Platelets [#/volume] in Blood by Automated count</td><td>418.7</td><td>150 - 450</td><td></td><td>10*3/uL</td></tr></table></div>"
        },
        "status": "final",
        "subject": {
          "reference": "urn:uuid:8688cba7-8b6c-4cdd-b358-69a4147e68e0",
          "display": "Ludmila Vávrová"
        },
        "effectiveDateTime": "2019-10-30T03:51:38Z",
        "specimen": {
          "reference": "urn:uuid:ece4d270-07ad-4048-9e60-c7c00fa534f2"
        }
      }
    },
    {
      "fullUrl": "urn:uuid:f4f6c2a6-7d62-4999-a99b-6cbfe87322b1",
      "resource": {
        "resourceType": "Observation",
        "id": "f4f6c2a6-7d62-4999-a99b-6cbfe87322b1",
        "meta": {
          "profile": [
            "http://hl7.eu/fhir/laboratory/StructureDefinition/Observation-resultslab-eu-lab"
          ]
        },
        "performer": [
          {
            "display": "The Central European Lab"
          }
        ],
        "category": [
          {
            "coding": [
              {
                "system": "http://terminology.hl7.org/CodeSystem/observation-category",
                "code": "laboratory"
              }
            ]
          }
        ],
        "code": {
          "coding": [
            {
              "code": "32207-3",
              "system": "http://loinc.org",
              "display": "Platelet distribution width [Entitic volume] in Blood by Automated count"
            }
          ],
          "text": "Platelet distribution width [Entitic volume] in Blood by Automated count"
        },
        "valueQuantity": {
          "system": "http://unitsofmeasure.org",
          "value": 416,
          "unit": "fL",
          "code": "fL"
        },
        "referenceRange": [
          {
            "low": {
              "value": 11.6,
              "code": "fL",
              "system": "http://unitsofmeasure.org"
            }
          },
          {
            "high": {
              "value": 17.4,
              "code": "fL",
              "system": "http://unitsofmeasure.org"
            }
          }
        ],
        "interpretation": [
          {
            "coding": [
              {
                "code": "H",
                "system": "http://terminology.hl7.org/CodeSystem/v3-ObservationInterpretation",
                "display": "High"
              }
            ]
          }
        ],
        "text": {
          "status": "generated",
          "div": "<div xmlns=\"http://www.w3.org/1999/xhtml\"><table class=\"hl7__eu__lab__report\"><tr><th>Test</th><th>30-Oct-2019</th><th>Reference&#xA0;Range</th><th>Unit</th></tr><tr><td>Platelet distribution width [Entitic volume] in Blood by Automated count</td><td>416.0</td><td>11.6 - 17.4</td><td>H</td><td>fL</td></tr></table></div>"
        },
        "status": "final",
        "subject": {
          "reference": "urn:uuid:8688cba7-8b6c-4cdd-b358-69a4147e68e0",
          "display": "Ludmila Vávrová"
        },
        "effectiveDateTime": "2019-10-30T03:51:38Z",
        "specimen": {
          "reference": "urn:uuid:ece4d270-07ad-4048-9e60-c7c00fa534f2"
        }
      }
    },
    {
      "fullUrl": "urn:uuid:291fbc1a-e23b-4624-83dc-7a9ce6240ea2",
      "resource": {
        "resourceType": "Observation",
        "id": "291fbc1a-e23b-4624-83dc-7a9ce6240ea2",
        "meta": {
          "profile": [
            "http://hl7.eu/fhir/laboratory/StructureDefinition/Observation-resultslab-eu-lab"
          ]
        },
        "performer": [
          {
            "display": "The Central European Lab"
          }
        ],
        "category": [
          {
            "coding": [
              {
                "system": "http://terminology.hl7.org/CodeSystem/observation-category",
                "code": "laboratory"
              }
            ]
          }
        ],
        "code": {
          "coding": [
            {
              "code": "32623-1",
              "system": "http://loinc.org",
              "display": "Platelet mean volume [Entitic volume] in Blood by Automated count"
            }
          ],
          "text": "Platelet mean volume [Entitic volume] in Blood by Automated count"
        },
        "valueQuantity": {
          "system": "http://unitsofmeasure.org",
          "value": 10.4,
          "unit": "fL",
          "code": "fL"
        },
        "referenceRange": [
          {
            "low": {
              "value": 7.2,
              "code": "fL",
              "system": "http://unitsofmeasure.org"
            }
          },
          {
            "high": {
              "value": 13.5,
              "code": "fL",
              "system": "http://unitsofmeasure.org"
            }
          }
        ],
        "text": {
          "status": "generated",
          "div": "<div xmlns=\"http://www.w3.org/1999/xhtml\"><table class=\"hl7__eu__lab__report\"><tr><th>Test</th><th>30-Oct-2019</th><th>Reference&#xA0;Range</th><th>Unit</th></tr><tr><td>Platelet mean volume [Entitic volume] in Blood by Automated count</td><td>10.4</td><td>7.2 - 13.5</td><td></td><td>fL</td></tr></table></div>"
        },
        "status": "final",
        "subject": {
          "reference": "urn:uuid:8688cba7-8b6c-4cdd-b358-69a4147e68e0",
          "display": "Ludmila Vávrová"
        },
        "effectiveDateTime": "2019-10-30T03:51:38Z",
        "specimen": {
          "reference": "urn:uuid:ece4d270-07ad-4048-9e60-c7c00fa534f2"
        }
      }
    },
    {
      "fullUrl": "urn:uuid:cafbff29-6547-4e33-a2c2-74ce49e47177",
      "resource": {
        "resourceType": "Device",
        "id": "cafbff29-6547-4e33-a2c2-74ce49e47177",
        "deviceName": [
          {
            "name": "SYNDERAI Synthetic Generator",
            "type": "manufacturer-name"
          }
        ],
        "version": [
          {
            "value": "5.0"
          }
        ],
        "text": {
          "status": "generated",
          "div": "<div xmlns=\"http://www.w3.org/1999/xhtml\">SYNDERAI Synthetic Generator v5.0</div>"
        },
        "status": "active\"",
        "distinctIdentifier": "synderai-generator-50",
        "manufacturer": "SYNDERAI Project"
      }
    },
    {
      "fullUrl": "urn:uuid:75c232f2-09c3-4d02-beb1-c5b8146ef31f",
      "resource": {
        "resourceType": "Provenance",
        "id": "75c232f2-09c3-4d02-beb1-c5b8146ef31f",
        "target": [
          {
            "reference": "Patient/8688cba7-8b6c-4cdd-b358-69a4147e68e0"
          },
          {
            "reference": "Bundle/f01dd116-0b89-4dc1-97e7-cff7d8064736"
          },
          {
            "reference": "Composition/a2cc973d-1d03-4ee3-b087-3f105d034a46"
          },
          {
            "reference": "PractitionerRole/3f2d78cf-dcfa-4e58-8f48-c784c36e0373"
          },
          {
            "reference": "Practitioner/cc033907-3cfe-49f4-baeb-c518ab4d73a0"
          },
          {
            "reference": "PractitionerRole/a8fc5589-6c24-4f0b-8dba-e8cc2113024d"
          },
          {
            "reference": "Organization/5d8a3a24-d359-472d-be51-5b6d851a38b5"
          }
        ],
        "activity": {
          "text": "Synthetic Example Data Generation"
        },
        "policy": [
          "https://synderai.net/synderai-synthetic-data-policy"
        ],
        "agent": [
          {
            "type": {
              "text": "author"
            },
            "who": {
              "reference": "Device/cafbff29-6547-4e33-a2c2-74ce49e47177"
            }
          }
        ],
        "reason": [
          {
            "text": "Interoperability Testing and Training (non-clinical use)"
          }
        ],
        "text": {
          "status": "generated",
          "div": "<div xmlns=\"http://www.w3.org/1999/xhtml\">Provenance for SYNDERAI Synthetic Example Data Resource</div>"
        },
        "recorded": "2019-10-30T04:51:38Z"
      }
    },
    {
      "fullUrl": "urn:uuid:3f2d78cf-dcfa-4e58-8f48-c784c36e0373",
      "resource": {
        "resourceType": "PractitionerRole",
        "id": "3f2d78cf-dcfa-4e58-8f48-c784c36e0373",
        "meta": {
          "profile": [
            "http://hl7.eu/fhir/base/StructureDefinition/practitionerRole-eu"
          ]
        },
        "text": {
          "status": "generated",
          "div": "<div xmlns=\"http://www.w3.org/1999/xhtml\">Laboratory Role Id: 3f2d78cf-dcfa-4e58-8f48-c784c36e0373</div>"
        },
        "practitioner": {
          "reference": "urn:uuid:cc033907-3cfe-49f4-baeb-c518ab4d73a0"
        }
      }
    },
    {
      "fullUrl": "urn:uuid:cc033907-3cfe-49f4-baeb-c518ab4d73a0",
      "resource": {
        "resourceType": "Practitioner",
        "id": "cc033907-3cfe-49f4-baeb-c518ab4d73a0",
        "meta": {
          "profile": [
            "http://hl7.eu/fhir/base/StructureDefinition/practitioner-eu"
          ]
        },
        "identifier": [
          {
            "assigner": {
              "display": "HL7 Europe"
            },
            "system": "urn:oid:2.16.840.1.113883.2.51.999",
            "value": "2312f099-b8fb-4b54-ac46-bd5f3f2c48a7"
          }
        ],
        "name": [
          {
            "prefix": [
              "dr"
            ],
            "given": [
              "Ex"
            ],
            "family": "Ample"
          }
        ],
        "address": [
          {
            "line": [
              "Laboratoire Central Européenne",
              "Boulevard du Jardin Botanique 32"
            ],
            "postalCode": "1000",
            "city": "Brussels",
            "country": "Belgium"
          }
        ],
        "text": {
          "status": "generated",
          "div": "<div xmlns=\"http://www.w3.org/1999/xhtml\">Laboratory: Laboratoire Central Européenne, 1000 Brussels, Belgium</div>"
        }
      }
    }
  ],
  "type": "document",
  "timestamp": "2019-10-30T04:51:38Z"
}
