{
  "resourceType": "Bundle",
  "id": "f8a2129b-7896-43e2-9cd2-17a6dd363ba0",
  "meta": {
    "profile": [
      "http://hl7.eu/fhir/laboratory/StructureDefinition/Bundle-eu-lab"
    ]
  },
  "identifier": {
    "assigner": {
      "display": "HL7 Europe"
    },
    "system": "urn:oid:2.16.840.1.113883.2.51.999",
    "value": "54be4554-f2d9-45d7-9d6c-93c02d4e16aa"
  },
  "entry": [
    {
      "fullUrl": "urn:uuid:f8a81938-5cee-4be2-a1ca-ca3cf83275da",
      "resource": {
        "resourceType": "Composition",
        "id": "f8a81938-5cee-4be2-a1ca-ca3cf83275da",
        "meta": {
          "profile": [
            "http://hl7.eu/fhir/laboratory/StructureDefinition/Composition-eu-lab"
          ]
        },
        "identifier": {
          "assigner": {
            "display": "HL7 Europe"
          },
          "system": "urn:oid:2.16.840.1.113883.2.51.999",
          "value": "ffdf7b50-f887-4430-8479-e7b29c15d157"
        },
        "author": [
          {
            "reference": "urn:uuid:d41c7a7e-b96a-47c6-9fed-4fd484779333"
          }
        ],
        "category": [
          {
            "coding": [
              {
                "code": "26436-6",
                "system": "http://loinc.org",
                "display": "Laboratory studies (set)"
              }
            ]
          }
        ],
        "type": {
          "coding": [
            {
              "code": "11502-2",
              "system": "http://loinc.org",
              "display": "Laboratory report"
            }
          ],
          "text": "Laboratory Report"
        },
        "section": [
          {
            "code": {
              "coding": [
                {
                  "code": "26436-6",
                  "system": "http://loinc.org",
                  "display": "Laboratory studies (set)"
                }
              ],
              "text": "Laboratory studies"
            },
            "section": [
              {
                "code": {
                  "coding": [
                    {
                      "code": "$18719-5",
                      "system": "http://loinc.org",
                      "display": "Chemistry studies (set)"
                    }
                  ],
                  "text": "Chemistry"
                },
                "entry": [
                  {
                    "reference": "urn:uuid:bc53906c-fcbd-495e-ae81-8e1cf17fa1dd"
                  },
                  {
                    "reference": "urn:uuid:cd3c5416-3077-4f94-8736-3b23693ca1ed"
                  },
                  {
                    "reference": "urn:uuid:b7333834-06b8-47ab-86d6-d6d4873883a5"
                  },
                  {
                    "reference": "urn:uuid:9a1cc736-7333-4928-8437-7e30273032cd"
                  },
                  {
                    "reference": "urn:uuid:c2bc3df5-cc43-4b22-a09d-e0cfd4b7d474"
                  },
                  {
                    "reference": "urn:uuid:b652877f-e10c-47ef-9f04-7ceabdcf6061"
                  },
                  {
                    "reference": "urn:uuid:f8eac40c-6219-408b-a28c-1b698c911225"
                  },
                  {
                    "reference": "urn:uuid:9a2d4071-64c5-4f5a-999b-55da54272d50"
                  },
                  {
                    "reference": "urn:uuid:a711dd58-3b2a-422c-9c2a-4277ab0b3596"
                  },
                  {
                    "reference": "urn:uuid:316ae074-2e7f-4262-b408-6ad9643c0ede"
                  },
                  {
                    "reference": "urn:uuid:5c7a8794-dd7c-4062-ad12-866dafc194d7"
                  },
                  {
                    "reference": "urn:uuid:91483626-b266-469b-ae78-bdf67d2f107d"
                  },
                  {
                    "reference": "urn:uuid:835baa6b-1eb5-42ba-84c9-e40fd37dab23"
                  },
                  {
                    "reference": "urn:uuid:94c9a7d5-8cbb-4b81-82d7-aa222f049288"
                  },
                  {
                    "reference": "urn:uuid:e8f8ddb5-d3e5-4c1c-a378-6093775d0b33"
                  },
                  {
                    "reference": "urn:uuid:c78c0b09-5498-4ff8-a1f9-d7e495803aab"
                  },
                  {
                    "reference": "urn:uuid:8c0cd3d7-dbd9-4b1e-92e8-b908df4de21d"
                  },
                  {
                    "reference": "urn:uuid:1a1c45c8-8abc-4875-a404-4af3fc0e5dc4"
                  }
                ],
                "text": {
                  "status": "generated",
                  "div": "<div xmlns=\"http://www.w3.org/1999/xhtml\"><h3>Chemistry</h3><table class=\"hl7__eu__lab__report\"><thead><tr><th>Test</th><th>07-SEP-2021</th><th>Reference&#xA0;Range</th><th>Unit</th></tr></thead><tbody><tr><td>Glucose [Mass/volume] in Serum or Plasma</td><td><strong>99.2 H</strong></td><td>70 - 99</td><td>mg/dL</td></tr><tr><td>Urea nitrogen [Mass/volume] in Serum or Plasma</td><td>7.6</td><td>7 - 50</td><td>mg/dL</td></tr><tr><td>Creatinine [Mass/volume] in Serum or Plasma</td><td><strong>1.9 H</strong></td><td>0.6 - 1.1</td><td>mg/dL</td></tr><tr><td>Calcium [Mass/volume] in Serum or Plasma</td><td>9.1</td><td>8.6 - 10.4</td><td>mg/dL</td></tr><tr><td>Sodium [Moles/volume] in Serum or Plasma</td><td>139.1</td><td>135 - 145</td><td>mmol/L</td></tr><tr><td>Potassium [Moles/volume] in Serum or Plasma</td><td>4.0</td><td>3.5 - 5.1</td><td>mmol/L</td></tr><tr><td>Chloride [Moles/volume] in Serum or Plasma</td><td>105.9</td><td>98 - 108</td><td>mmol/L</td></tr><tr><td>Carbon dioxide, total [Moles/volume] in Serum or Plasma</td><td>27.4</td><td>22 - 32</td><td>mmol/L</td></tr><tr><td>Ketones [Presence] in Urine by Test strip</td><td>Urine ketone test = ++</td><td></td><td></td></tr><tr><td>Hemoglobin A1c/Hemoglobin.total in Blood</td><td><strong>3.2 L</strong></td><td>4 - 6.4</td><td>%</td></tr><tr><td>Glucose [Mass/volume] in Blood</td><td>99.2</td><td>70 - 100</td><td>mg/dL</td></tr><tr><td>Urea nitrogen [Mass/volume] in Blood</td><td>7.6</td><td>7 - 43</td><td>mg/dL</td></tr><tr><td>Creatinine [Mass/volume] in Blood</td><td><strong>2.8 H</strong></td><td>0.6 - 1.1</td><td>mg/dL</td></tr><tr><td>Calcium [Mass/volume] in Blood</td><td>9.1</td><td>8.5 - 10.5</td><td>mg/dL</td></tr><tr><td>Sodium [Moles/volume] in Blood</td><td>139.1</td><td>135 - 145</td><td>mmol/L</td></tr><tr><td>Potassium [Moles/volume] in Blood</td><td>4.0</td><td>3.5 - 5.1</td><td>mmol/L</td></tr><tr><td>Chloride [Moles/volume] in Blood</td><td>105.9</td><td>98 - 108</td><td>mmol/L</td></tr><tr><td>Carbon dioxide, total [Moles/volume] in Blood</td><td>27.4</td><td>22 - 29</td><td>mmol/L</td></tr></tbody></table></div>"
                },
                "title": "Chemistry"
              },
              {
                "code": {
                  "coding": [
                    {
                      "code": "$18729-4",
                      "system": "http://loinc.org",
                      "display": "Urinalysis studies (set)"
                    }
                  ],
                  "text": "Urinalysis"
                },
                "entry": [
                  {
                    "reference": "urn:uuid:4bd76b02-7061-4aa4-a5f5-5d5617998eae"
                  },
                  {
                    "reference": "urn:uuid:1cafa39c-40c6-4769-abaa-1d3d8fb5f183"
                  },
                  {
                    "reference": "urn:uuid:b3f8726e-e7e6-4f3a-858a-3296aa25a3cf"
                  },
                  {
                    "reference": "urn:uuid:cbc72c7f-a63d-44cb-9cd0-6eb5fa022cec"
                  },
                  {
                    "reference": "urn:uuid:cdcf63fd-5dd6-4807-9f5a-c276fcc0c032"
                  },
                  {
                    "reference": "urn:uuid:1065d701-77e4-4320-8191-ecab41ba5dce"
                  },
                  {
                    "reference": "urn:uuid:d83fd142-6c71-4a59-bacf-59a30c63f2da"
                  },
                  {
                    "reference": "urn:uuid:437e23c4-9610-4625-9a32-899af7482ef6"
                  },
                  {
                    "reference": "urn:uuid:115900cc-2756-43c1-91e7-683f06c9fc3b"
                  },
                  {
                    "reference": "urn:uuid:a58b450c-6ebc-4d7b-aea4-56de4050b6f7"
                  },
                  {
                    "reference": "urn:uuid:ba684aed-852a-4c4f-a33f-ef6af41fbd0c"
                  },
                  {
                    "reference": "urn:uuid:e1ec75a1-8e7d-4ec0-b2b7-bdc55aa4781b"
                  }
                ],
                "text": {
                  "status": "generated",
                  "div": "<div xmlns=\"http://www.w3.org/1999/xhtml\"><h3>Urinalysis</h3><table class=\"hl7__eu__lab__report\"><thead><tr><th>Test</th><th>07-SEP-2021</th><th>Reference&#xA0;Range</th><th>Unit</th></tr></thead><tbody><tr><td>Glucose [Mass/volume] in Urine by Test strip</td><td><strong>1.2 H</strong></td><td>0.8 - 0</td><td>mg/dL</td></tr><tr><td>Glucose [Presence] in Urine by Test strip</td><td>++</td><td></td><td></td></tr><tr><td>Bilirubin.total [Mass/volume] in Urine by Test strip</td><td><strong>1.1 H</strong></td><td>0 - 1</td><td>mg/dL</td></tr><tr><td>Bilirubin.total [Presence] in Urine by Test strip</td><td>Finding of bilirubin in urine</td><td></td><td></td></tr><tr><td>Ketones [Mass/volume] in Urine by Test strip</td><td><strong>18.5 H</strong></td><td>0 - 4</td><td>mg/dL</td></tr><tr><td>Specific gravity of Urine by Test strip</td><td><strong>1.0 L</strong></td><td>1.005 - 1.03</td><td>{nominal}</td></tr><tr><td>pH of Urine by Test strip</td><td>5.2</td><td>4.6 - 7</td><td>pH</td></tr><tr><td>Protein [Mass/volume] in Urine by Test strip</td><td><strong>289.2 H</strong></td><td>0 - 14</td><td>mg/dL</td></tr><tr><td>Protein [Presence] in Urine by Test strip</td><td>Urine protein test = ++</td><td></td><td></td></tr><tr><td>Nitrite [Presence] in Urine by Test strip</td><td>Urine nitrite negative</td><td></td><td></td></tr><tr><td>Hemoglobin [Presence] in Urine by Test strip</td><td>Urine blood test = negative</td><td></td><td></td></tr><tr><td>Leukocyte esterase [Presence] in Urine by Test strip</td><td>Urine leukocyte test negative</td><td></td><td></td></tr></tbody></table></div>"
                },
                "title": "Urinalysis"
              },
              {
                "code": {
                  "coding": [
                    {
                      "code": "$LP7846-1",
                      "system": "http://loinc.org",
                      "display": "Specimen information"
                    }
                  ],
                  "text": "Specimen information"
                },
                "entry": [
                  {
                    "reference": "urn:uuid:f977906b-a9d2-460f-a05f-2735ba0f5949"
                  },
                  {
                    "reference": "urn:uuid:fb3b0b9e-7baa-4380-b23f-8e30ee9b6502"
                  },
                  {
                    "reference": "urn:uuid:9ec6dc3e-d58e-474e-9b9c-a724eb2ce57d"
                  },
                  {
                    "reference": "urn:uuid:44dc2fbc-96c0-4ca3-8580-382bdd9b5657"
                  }
                ],
                "text": {
                  "status": "generated",
                  "div": "<div xmlns=\"http://www.w3.org/1999/xhtml\"><h3>Specimen information</h3><table class=\"hl7__eu__lab__report\"><thead><tr><th>Test</th><th>07-SEP-2021</th><th>Specimen</th><th></th></tr></thead><tbody><tr><td>Appearance of Urine</td><td>Cloudy urine</td><td>Urine</td><td></td></tr><tr><td>Odor of Urine</td><td>Urine smell ammoniacal</td><td>Urine</td><td></td></tr><tr><td>Clarity of Urine</td><td>Translucent</td><td>Urine</td><td></td></tr><tr><td>Color of Urine</td><td>Brown color</td><td>Urine</td><td></td></tr></tbody></table></div>"
                },
                "title": "Specimen information"
              }
            ],
            "title": "Laboratory Report"
          },
          {
            "text": {
              "status": "generated",
              "div": "<div xmlns=\"http://www.w3.org/1999/xhtml\"><h3>Annotation</h3><table class=\"hl7__eu__lab__report\"><tr><th>Conclusion and Recommendations based on this report and previous findings known to us</th></tr><tr><td>The patient shows elevated serum and blood creatinine, proteinuria, glucosuria, ketonuria, and bilirubinuria, with low urine specific gravity, suggesting significant renal dysfunction, likely with impaired tubular reabsorption. The presence of ketones and glucose in urine with a low HbA1c may indicate acute metabolic derangement rather than chronic hyperglycemia. Urine findings (cloudy, brown, ammoniacal) may suggest possible urinary tract pathology. Recommend urgent nephrology evaluation and further assessment for acute kidney injury and possible underlying causes.</td></tr></table></div>"
            },
            "code": {
              "coding": [
                {
                  "system": "http://loinc.org",
                  "code": "48767-8",
                  "display": "Annotation comment"
                }
              ]
            },
            "title": "Annotation comment"
          }
        ],
        "status": "final",
        "subject": {
          "reference": "urn:uuid:c9a1554f-689f-472a-ae0c-283c65251cef",
          "display": "Meaghan Neary"
        },
        "date": "2021-09-07T00:11:04Z",
        "title": "Laboratory Report",
        "confidentiality": "N"
      }
    },
    {
      "fullUrl": "urn:uuid:5946089b-4570-4dac-9221-90eb8dcb671e",
      "resource": {
        "resourceType": "DiagnosticReport",
        "id": "5946089b-4570-4dac-9221-90eb8dcb671e",
        "meta": {
          "profile": [
            "http://hl7.eu/fhir/laboratory/StructureDefinition/DiagnosticReport-eu-lab"
          ]
        },
        "identifier": [
          {
            "assigner": {
              "display": "HL7 Europe"
            },
            "system": "urn:oid:2.16.840.1.113883.2.51.999",
            "value": "2d140e73-3d5d-4116-8675-49932e28e79b"
          }
        ],
        "extension": [
          {
            "url": "http://hl7.org/fhir/5.0/StructureDefinition/extension-DiagnosticReport.composition",
            "valueReference": {
              "reference": "urn:uuid:ffdf7b50-f887-4430-8479-e7b29c15d157"
            }
          }
        ],
        "category": [
          {
            "coding": [
              {
                "code": "26436-6",
                "system": "http://loinc.org",
                "display": "Laboratory studies (set)"
              }
            ]
          }
        ],
        "specimen": [
          {
            "reference": "urn:uuid:a3c2ce9e-3364-4ba6-9d7b-c9bb36cb43f5"
          },
          {
            "reference": "urn:uuid:aec2f53a-e0d1-453d-bf5b-c5e0bb530c82"
          },
          {
            "reference": "urn:uuid:69755bf6-dd84-4767-85f8-3b435dfd7ad2"
          }
        ],
        "result": [
          {
            "reference": "urn:uuid:bc53906c-fcbd-495e-ae81-8e1cf17fa1dd"
          },
          {
            "reference": "urn:uuid:cd3c5416-3077-4f94-8736-3b23693ca1ed"
          },
          {
            "reference": "urn:uuid:b7333834-06b8-47ab-86d6-d6d4873883a5"
          },
          {
            "reference": "urn:uuid:9a1cc736-7333-4928-8437-7e30273032cd"
          },
          {
            "reference": "urn:uuid:c2bc3df5-cc43-4b22-a09d-e0cfd4b7d474"
          },
          {
            "reference": "urn:uuid:b652877f-e10c-47ef-9f04-7ceabdcf6061"
          },
          {
            "reference": "urn:uuid:f8eac40c-6219-408b-a28c-1b698c911225"
          },
          {
            "reference": "urn:uuid:9a2d4071-64c5-4f5a-999b-55da54272d50"
          },
          {
            "reference": "urn:uuid:f977906b-a9d2-460f-a05f-2735ba0f5949"
          },
          {
            "reference": "urn:uuid:fb3b0b9e-7baa-4380-b23f-8e30ee9b6502"
          },
          {
            "reference": "urn:uuid:9ec6dc3e-d58e-474e-9b9c-a724eb2ce57d"
          },
          {
            "reference": "urn:uuid:44dc2fbc-96c0-4ca3-8580-382bdd9b5657"
          },
          {
            "reference": "urn:uuid:4bd76b02-7061-4aa4-a5f5-5d5617998eae"
          },
          {
            "reference": "urn:uuid:1cafa39c-40c6-4769-abaa-1d3d8fb5f183"
          },
          {
            "reference": "urn:uuid:b3f8726e-e7e6-4f3a-858a-3296aa25a3cf"
          },
          {
            "reference": "urn:uuid:cbc72c7f-a63d-44cb-9cd0-6eb5fa022cec"
          },
          {
            "reference": "urn:uuid:cdcf63fd-5dd6-4807-9f5a-c276fcc0c032"
          },
          {
            "reference": "urn:uuid:a711dd58-3b2a-422c-9c2a-4277ab0b3596"
          },
          {
            "reference": "urn:uuid:1065d701-77e4-4320-8191-ecab41ba5dce"
          },
          {
            "reference": "urn:uuid:d83fd142-6c71-4a59-bacf-59a30c63f2da"
          },
          {
            "reference": "urn:uuid:437e23c4-9610-4625-9a32-899af7482ef6"
          },
          {
            "reference": "urn:uuid:115900cc-2756-43c1-91e7-683f06c9fc3b"
          },
          {
            "reference": "urn:uuid:a58b450c-6ebc-4d7b-aea4-56de4050b6f7"
          },
          {
            "reference": "urn:uuid:ba684aed-852a-4c4f-a33f-ef6af41fbd0c"
          },
          {
            "reference": "urn:uuid:e1ec75a1-8e7d-4ec0-b2b7-bdc55aa4781b"
          },
          {
            "reference": "urn:uuid:316ae074-2e7f-4262-b408-6ad9643c0ede"
          },
          {
            "reference": "urn:uuid:5c7a8794-dd7c-4062-ad12-866dafc194d7"
          },
          {
            "reference": "urn:uuid:91483626-b266-469b-ae78-bdf67d2f107d"
          },
          {
            "reference": "urn:uuid:835baa6b-1eb5-42ba-84c9-e40fd37dab23"
          },
          {
            "reference": "urn:uuid:94c9a7d5-8cbb-4b81-82d7-aa222f049288"
          },
          {
            "reference": "urn:uuid:e8f8ddb5-d3e5-4c1c-a378-6093775d0b33"
          },
          {
            "reference": "urn:uuid:c78c0b09-5498-4ff8-a1f9-d7e495803aab"
          },
          {
            "reference": "urn:uuid:8c0cd3d7-dbd9-4b1e-92e8-b908df4de21d"
          },
          {
            "reference": "urn:uuid:1a1c45c8-8abc-4875-a404-4af3fc0e5dc4"
          }
        ],
        "status": "registered",
        "code": {
          "coding": [
            {
              "code": "11502-2",
              "system": "http://loinc.org",
              "display": "Laboratory report"
            }
          ]
        },
        "subject": {
          "reference": "urn:uuid:c9a1554f-689f-472a-ae0c-283c65251cef",
          "display": "Meaghan Neary"
        }
      }
    },
    {
      "fullUrl": "urn:uuid:c9a1554f-689f-472a-ae0c-283c65251cef",
      "resource": {
        "resourceType": "Patient",
        "id": "c9a1554f-689f-472a-ae0c-283c65251cef",
        "meta": {
          "security": [
            {
              "system": "http://terminology.hl7.org/CodeSystem/v3-ActReason",
              "code": "HTEST"
            },
            {
              "system": "http://terminology.hl7.org/CodeSystem/v3-ActReason",
              "code": "TRAIN"
            }
          ],
          "tag": [
            {
              "system": "https://synderai.net/fhir/CodeSystem/tags",
              "code": "synthetic",
              "display": "SYNDERAI Synthetic data"
            }
          ],
          "profile": [
            "http://hl7.eu/fhir/base/StructureDefinition/patient-eu-core"
          ]
        },
        "identifier": [
          {
            "type": {
              "coding": [
                {
                  "code": "PT",
                  "system": "http://terminology.hl7.org/CodeSystem/v2-0203"
                }
              ]
            },
            "system": "http://ec.europa.eu/identifier/eci",
            "value": "1586-567257-8"
          },
          {
            "type": {
              "coding": [
                {
                  "code": "MR",
                  "system": "http://terminology.hl7.org/CodeSystem/v2-0203"
                }
              ]
            },
            "system": "http://local.setting.eu/identifier",
            "value": "443e6379-f231-b364-3ccb-644740a1aa2a"
          }
        ],
        "name": [
          {
            "family": "Neary"
          },
          {
            "given": [
              "Meaghan"
            ]
          },
          {
            "text": "Meaghan Neary"
          }
        ],
        "address": [
          {
            "line": [
              "64 Linskey Street"
            ],
            "use": "home",
            "type": "physical",
            "postalCode": "D02",
            "city": "Dublin",
            "country": "Ireland"
          }
        ],
        "telecom": [
          {
            "system": "phone",
            "value": "001-967-573-0911x465"
          }
        ],
        "extension": [
          {
            "url": "http://hl7.org/fhir/StructureDefinition/patient-nationality",
            "valueCodeableConcept": {
              "coding": [
                {
                  "code": "IE",
                  "system": "http://hl7.org/fhir/ValueSet/country"
                }
              ]
            }
          }
        ],
        "text": {
          "status": "generated",
          "div": "<div xmlns=\"http://www.w3.org/1999/xhtml\"><table class=\"hl7__ips\"><tr><td>Meaghan Neary</td><td>female</td><td>19-Dec-1960</td></tr></table></div>"
        },
        "gender": "female",
        "birthDate": "1960-12-19"
      }
    },
    {
      "fullUrl": "urn:uuid:c68531ac-84b4-4a4f-9703-4e38fc32b71c",
      "resource": {
        "resourceType": "ServiceRequest",
        "id": "c68531ac-84b4-4a4f-9703-4e38fc32b71c",
        "meta": {
          "profile": [
            "http://hl7.eu/fhir/laboratory/StructureDefinition/ServiceRequest-eu-lab"
          ]
        },
        "identifier": [
          {
            "system": "http://example.org",
            "value": "f13d10b8-e508-452d-b2af-116cbd50857e"
          }
        ],
        "specimen": [
          {
            "reference": "urn:uuid:a3c2ce9e-3364-4ba6-9d7b-c9bb36cb43f5"
          },
          {
            "reference": "urn:uuid:aec2f53a-e0d1-453d-bf5b-c5e0bb530c82"
          },
          {
            "reference": "urn:uuid:69755bf6-dd84-4767-85f8-3b435dfd7ad2"
          }
        ],
        "reasonCode": [
          {
            "coding": [
              {
                "code": "55822004",
                "system": "http://snomed.info/sct",
                "display": "Hyperlipidemia"
              }
            ]
          },
          {
            "coding": [
              {
                "code": "433144002",
                "system": "http://snomed.info/sct",
                "display": "Chronic kidney disease stage 3"
              }
            ]
          },
          {
            "coding": [
              {
                "code": "157141000119108",
                "system": "http://snomed.info/sct",
                "display": "Proteinuria due to type 2 diabetes mellitus"
              }
            ]
          },
          {
            "coding": [
              {
                "code": "431856006",
                "system": "http://snomed.info/sct",
                "display": "Chronic kidney disease stage 2"
              }
            ]
          },
          {
            "coding": [
              {
                "code": "90781000119102",
                "system": "http://snomed.info/sct",
                "display": "Microalbuminuria due to type 2 diabetes mellitus"
              }
            ]
          },
          {
            "coding": [
              {
                "code": "127013003",
                "system": "http://snomed.info/sct",
                "display": "Disorder of kidney due to diabetes mellitus"
              }
            ]
          },
          {
            "coding": [
              {
                "code": "431855005",
                "system": "http://snomed.info/sct",
                "display": "Chronic kidney disease stage 1"
              }
            ]
          },
          {
            "coding": [
              {
                "code": "237602007",
                "system": "http://snomed.info/sct",
                "display": "Metabolic syndrome X"
              }
            ]
          },
          {
            "coding": [
              {
                "code": "271737000",
                "system": "http://snomed.info/sct",
                "display": "Anemia"
              }
            ]
          },
          {
            "coding": [
              {
                "code": "15777000",
                "system": "http://snomed.info/sct",
                "display": "Prediabetes"
              }
            ]
          },
          {
            "coding": [
              {
                "code": "59621000",
                "system": "http://snomed.info/sct",
                "display": "Essential hypertension"
              }
            ]
          }
        ],
        "status": "active",
        "intent": "order",
        "code": {
          "coding": [
            {
              "code": "108252007",
              "system": "http://snomed.info/sct",
              "display": "Laboratory procedure"
            }
          ]
        },
        "subject": {
          "reference": "urn:uuid:c9a1554f-689f-472a-ae0c-283c65251cef",
          "display": "Meaghan Neary"
        },
        "requester": {
          "reference": "urn:uuid:4f76615a-1995-4d11-98fb-1cf7b154d267"
        }
      }
    },
    {
      "fullUrl": "urn:uuid:4f76615a-1995-4d11-98fb-1cf7b154d267",
      "resource": {
        "resourceType": "PractitionerRole",
        "id": "4f76615a-1995-4d11-98fb-1cf7b154d267",
        "meta": {
          "profile": [
            "http://hl7.eu/fhir/base/StructureDefinition/practitionerRole-eu"
          ]
        },
        "text": {
          "status": "generated",
          "div": "<div xmlns=\"http://www.w3.org/1999/xhtml\">Provider Role Id: 4f76615a-1995-4d11-98fb-1cf7b154d267</div>"
        },
        "organization": {
          "reference": "urn:uuid:17d2e506-c6d9-4369-95b8-1cac8cd3d2a1"
        }
      }
    },
    {
      "fullUrl": "urn:uuid:17d2e506-c6d9-4369-95b8-1cac8cd3d2a1",
      "resource": {
        "resourceType": "Organization",
        "id": "17d2e506-c6d9-4369-95b8-1cac8cd3d2a1",
        "meta": {
          "profile": [
            "http://hl7.eu/fhir/base/StructureDefinition/organization-eu"
          ]
        },
        "identifier": [
          {
            "assigner": {
              "display": "HL7 Europe"
            },
            "system": "urn:oid:2.16.840.1.113883.2.51.999",
            "value": "f7942a31-8293-4746-9659-6ca9ed9c193a"
          }
        ],
        "address": [
          {
            "line": [
              "Parnell Square West nan"
            ],
            "city": "Dublin",
            "postalCode": "D01",
            "country": "Ireland"
          }
        ],
        "text": {
          "status": "generated",
          "div": "<div xmlns=\"http://www.w3.org/1999/xhtml\">Provider Organization: Rotunda Hospital</div>"
        },
        "name": "Rotunda Hospital"
      }
    },
    {
      "fullUrl": "urn:uuid:a3c2ce9e-3364-4ba6-9d7b-c9bb36cb43f5",
      "resource": {
        "resourceType": "Specimen",
        "id": "a3c2ce9e-3364-4ba6-9d7b-c9bb36cb43f5",
        "meta": {
          "profile": [
            "http://hl7.eu/fhir/laboratory/StructureDefinition/Specimen-eu-lab"
          ]
        },
        "collection": {
          "collectedDateTime": "2021-09-06"
        },
        "text": {
          "status": "generated",
          "div": "<div xmlns=\"http://www.w3.org/1999/xhtml\"><table class=\"hl7__eu__lab__report\"><tr><th>Specimen</th><th>Collection Date</th></tr><tr><td>Acellular blood (serum or plasma) specimen</td><td><span class=\"nb\">06-Sep-2021</span></td></tr></table></div>"
        },
        "type": {
          "coding": [
            {
              "code": "122592007",
              "system": "http://snomed.info/sct",
              "display": "Acellular blood (serum or plasma) specimen"
            }
          ]
        }
      }
    },
    {
      "fullUrl": "urn:uuid:aec2f53a-e0d1-453d-bf5b-c5e0bb530c82",
      "resource": {
        "resourceType": "Specimen",
        "id": "aec2f53a-e0d1-453d-bf5b-c5e0bb530c82",
        "meta": {
          "profile": [
            "http://hl7.eu/fhir/laboratory/StructureDefinition/Specimen-eu-lab"
          ]
        },
        "collection": {
          "collectedDateTime": "2021-09-06"
        },
        "text": {
          "status": "generated",
          "div": "<div xmlns=\"http://www.w3.org/1999/xhtml\"><table class=\"hl7__eu__lab__report\"><tr><th>Specimen</th><th>Collection Date</th></tr><tr><td>Urine specimen</td><td><span class=\"nb\">06-Sep-2021</span></td></tr></table></div>"
        },
        "type": {
          "coding": [
            {
              "code": "122575003",
              "system": "http://snomed.info/sct",
              "display": "Urine specimen"
            }
          ]
        }
      }
    },
    {
      "fullUrl": "urn:uuid:69755bf6-dd84-4767-85f8-3b435dfd7ad2",
      "resource": {
        "resourceType": "Specimen",
        "id": "69755bf6-dd84-4767-85f8-3b435dfd7ad2",
        "meta": {
          "profile": [
            "http://hl7.eu/fhir/laboratory/StructureDefinition/Specimen-eu-lab"
          ]
        },
        "collection": {
          "collectedDateTime": "2021-09-06"
        },
        "text": {
          "status": "generated",
          "div": "<div xmlns=\"http://www.w3.org/1999/xhtml\"><table class=\"hl7__eu__lab__report\"><tr><th>Specimen</th><th>Collection Date</th></tr><tr><td>Whole blood specimen (specimen)</td><td><span class=\"nb\">06-Sep-2021</span></td></tr></table></div>"
        },
        "type": {
          "coding": [
            {
              "code": "258580003",
              "system": "http://snomed.info/sct",
              "display": "Whole blood specimen (specimen)"
            }
          ]
        }
      }
    },
    {
      "fullUrl": "urn:uuid:bc53906c-fcbd-495e-ae81-8e1cf17fa1dd",
      "resource": {
        "resourceType": "Observation",
        "id": "bc53906c-fcbd-495e-ae81-8e1cf17fa1dd",
        "meta": {
          "profile": [
            "http://hl7.eu/fhir/laboratory/StructureDefinition/Observation-resultslab-eu-lab"
          ]
        },
        "performer": [
          {
            "display": "The Central European Lab"
          }
        ],
        "category": [
          {
            "coding": [
              {
                "system": "http://terminology.hl7.org/CodeSystem/observation-category",
                "code": "laboratory"
              }
            ]
          }
        ],
        "code": {
          "coding": [
            {
              "code": "2345-7",
              "system": "http://loinc.org",
              "display": "Glucose [Mass/volume] in Serum or Plasma"
            }
          ],
          "text": "Glucose [Mass/volume] in Serum or Plasma"
        },
        "valueQuantity": {
          "system": "http://unitsofmeasure.org",
          "value": 99.2,
          "unit": "mg/dL",
          "code": "mg/dL"
        },
        "referenceRange": [
          {
            "low": {
              "value": 70,
              "code": "mg/dL",
              "system": "http://unitsofmeasure.org"
            }
          },
          {
            "high": {
              "value": 99,
              "code": "mg/dL",
              "system": "http://unitsofmeasure.org"
            }
          }
        ],
        "interpretation": [
          {
            "coding": [
              {
                "code": "H",
                "system": "http://terminology.hl7.org/CodeSystem/v3-ObservationInterpretation",
                "display": "High"
              }
            ]
          }
        ],
        "text": {
          "status": "generated",
          "div": "<div xmlns=\"http://www.w3.org/1999/xhtml\"><table class=\"hl7__eu__lab__report\"><tr><th>Test</th><th>07-Sep-2021</th><th>Reference&#xA0;Range</th><th>Unit</th></tr><tr><td>Glucose [Mass/volume] in Serum or Plasma</td><td>99.2</td><td>70 - 99</td><td>H</td><td>mg/dL</td></tr></table></div>"
        },
        "status": "final",
        "subject": {
          "reference": "urn:uuid:c9a1554f-689f-472a-ae0c-283c65251cef",
          "display": "Meaghan Neary"
        },
        "effectiveDateTime": "2021-09-06T22:11:04Z",
        "specimen": {
          "reference": "urn:uuid:a3c2ce9e-3364-4ba6-9d7b-c9bb36cb43f5"
        }
      }
    },
    {
      "fullUrl": "urn:uuid:cd3c5416-3077-4f94-8736-3b23693ca1ed",
      "resource": {
        "resourceType": "Observation",
        "id": "cd3c5416-3077-4f94-8736-3b23693ca1ed",
        "meta": {
          "profile": [
            "http://hl7.eu/fhir/laboratory/StructureDefinition/Observation-resultslab-eu-lab"
          ]
        },
        "performer": [
          {
            "display": "The Central European Lab"
          }
        ],
        "category": [
          {
            "coding": [
              {
                "system": "http://terminology.hl7.org/CodeSystem/observation-category",
                "code": "laboratory"
              }
            ]
          }
        ],
        "code": {
          "coding": [
            {
              "code": "3094-0",
              "system": "http://loinc.org",
              "display": "Urea nitrogen [Mass/volume] in Serum or Plasma"
            }
          ],
          "text": "Urea nitrogen [Mass/volume] in Serum or Plasma"
        },
        "valueQuantity": {
          "system": "http://unitsofmeasure.org",
          "value": 7.6,
          "unit": "mg/dL",
          "code": "mg/dL"
        },
        "referenceRange": [
          {
            "low": {
              "value": 7,
              "code": "mg/dL",
              "system": "http://unitsofmeasure.org"
            }
          },
          {
            "high": {
              "value": 50,
              "code": "mg/dL",
              "system": "http://unitsofmeasure.org"
            }
          }
        ],
        "text": {
          "status": "generated",
          "div": "<div xmlns=\"http://www.w3.org/1999/xhtml\"><table class=\"hl7__eu__lab__report\"><tr><th>Test</th><th>07-Sep-2021</th><th>Reference&#xA0;Range</th><th>Unit</th></tr><tr><td>Urea nitrogen [Mass/volume] in Serum or Plasma</td><td>7.6</td><td>7 - 50</td><td></td><td>mg/dL</td></tr></table></div>"
        },
        "status": "final",
        "subject": {
          "reference": "urn:uuid:c9a1554f-689f-472a-ae0c-283c65251cef",
          "display": "Meaghan Neary"
        },
        "effectiveDateTime": "2021-09-06T22:11:04Z",
        "specimen": {
          "reference": "urn:uuid:a3c2ce9e-3364-4ba6-9d7b-c9bb36cb43f5"
        }
      }
    },
    {
      "fullUrl": "urn:uuid:b7333834-06b8-47ab-86d6-d6d4873883a5",
      "resource": {
        "resourceType": "Observation",
        "id": "b7333834-06b8-47ab-86d6-d6d4873883a5",
        "meta": {
          "profile": [
            "http://hl7.eu/fhir/laboratory/StructureDefinition/Observation-resultslab-eu-lab"
          ]
        },
        "performer": [
          {
            "display": "The Central European Lab"
          }
        ],
        "category": [
          {
            "coding": [
              {
                "system": "http://terminology.hl7.org/CodeSystem/observation-category",
                "code": "laboratory"
              }
            ]
          }
        ],
        "code": {
          "coding": [
            {
              "code": "2160-0",
              "system": "http://loinc.org",
              "display": "Creatinine [Mass/volume] in Serum or Plasma"
            }
          ],
          "text": "Creatinine [Mass/volume] in Serum or Plasma"
        },
        "valueQuantity": {
          "system": "http://unitsofmeasure.org",
          "value": 1.9,
          "unit": "mg/dL",
          "code": "mg/dL"
        },
        "referenceRange": [
          {
            "low": {
              "value": 0.6,
              "code": "mg/dL",
              "system": "http://unitsofmeasure.org"
            }
          },
          {
            "high": {
              "value": 1.1,
              "code": "mg/dL",
              "system": "http://unitsofmeasure.org"
            }
          }
        ],
        "interpretation": [
          {
            "coding": [
              {
                "code": "H",
                "system": "http://terminology.hl7.org/CodeSystem/v3-ObservationInterpretation",
                "display": "High"
              }
            ]
          }
        ],
        "text": {
          "status": "generated",
          "div": "<div xmlns=\"http://www.w3.org/1999/xhtml\"><table class=\"hl7__eu__lab__report\"><tr><th>Test</th><th>07-Sep-2021</th><th>Reference&#xA0;Range</th><th>Unit</th></tr><tr><td>Creatinine [Mass/volume] in Serum or Plasma</td><td>1.9</td><td>0.6 - 1.1</td><td>H</td><td>mg/dL</td></tr></table></div>"
        },
        "status": "final",
        "subject": {
          "reference": "urn:uuid:c9a1554f-689f-472a-ae0c-283c65251cef",
          "display": "Meaghan Neary"
        },
        "effectiveDateTime": "2021-09-06T22:11:04Z",
        "specimen": {
          "reference": "urn:uuid:a3c2ce9e-3364-4ba6-9d7b-c9bb36cb43f5"
        }
      }
    },
    {
      "fullUrl": "urn:uuid:9a1cc736-7333-4928-8437-7e30273032cd",
      "resource": {
        "resourceType": "Observation",
        "id": "9a1cc736-7333-4928-8437-7e30273032cd",
        "meta": {
          "profile": [
            "http://hl7.eu/fhir/laboratory/StructureDefinition/Observation-resultslab-eu-lab"
          ]
        },
        "performer": [
          {
            "display": "The Central European Lab"
          }
        ],
        "category": [
          {
            "coding": [
              {
                "system": "http://terminology.hl7.org/CodeSystem/observation-category",
                "code": "laboratory"
              }
            ]
          }
        ],
        "code": {
          "coding": [
            {
              "code": "17861-6",
              "system": "http://loinc.org",
              "display": "Calcium [Mass/volume] in Serum or Plasma"
            }
          ],
          "text": "Calcium [Mass/volume] in Serum or Plasma"
        },
        "valueQuantity": {
          "system": "http://unitsofmeasure.org",
          "value": 9.1,
          "unit": "mg/dL",
          "code": "mg/dL"
        },
        "referenceRange": [
          {
            "low": {
              "value": 8.6,
              "code": "mg/dL",
              "system": "http://unitsofmeasure.org"
            }
          },
          {
            "high": {
              "value": 10.4,
              "code": "mg/dL",
              "system": "http://unitsofmeasure.org"
            }
          }
        ],
        "text": {
          "status": "generated",
          "div": "<div xmlns=\"http://www.w3.org/1999/xhtml\"><table class=\"hl7__eu__lab__report\"><tr><th>Test</th><th>07-Sep-2021</th><th>Reference&#xA0;Range</th><th>Unit</th></tr><tr><td>Calcium [Mass/volume] in Serum or Plasma</td><td>9.1</td><td>8.6 - 10.4</td><td></td><td>mg/dL</td></tr></table></div>"
        },
        "status": "final",
        "subject": {
          "reference": "urn:uuid:c9a1554f-689f-472a-ae0c-283c65251cef",
          "display": "Meaghan Neary"
        },
        "effectiveDateTime": "2021-09-06T22:11:04Z",
        "specimen": {
          "reference": "urn:uuid:a3c2ce9e-3364-4ba6-9d7b-c9bb36cb43f5"
        }
      }
    },
    {
      "fullUrl": "urn:uuid:c2bc3df5-cc43-4b22-a09d-e0cfd4b7d474",
      "resource": {
        "resourceType": "Observation",
        "id": "c2bc3df5-cc43-4b22-a09d-e0cfd4b7d474",
        "meta": {
          "profile": [
            "http://hl7.eu/fhir/laboratory/StructureDefinition/Observation-resultslab-eu-lab"
          ]
        },
        "performer": [
          {
            "display": "The Central European Lab"
          }
        ],
        "category": [
          {
            "coding": [
              {
                "system": "http://terminology.hl7.org/CodeSystem/observation-category",
                "code": "laboratory"
              }
            ]
          }
        ],
        "code": {
          "coding": [
            {
              "code": "2951-2",
              "system": "http://loinc.org",
              "display": "Sodium [Moles/volume] in Serum or Plasma"
            }
          ],
          "text": "Sodium [Moles/volume] in Serum or Plasma"
        },
        "valueQuantity": {
          "system": "http://unitsofmeasure.org",
          "value": 139.1,
          "unit": "mmol/L",
          "code": "mmol/L"
        },
        "referenceRange": [
          {
            "low": {
              "value": 135,
              "code": "mmol/L",
              "system": "http://unitsofmeasure.org"
            }
          },
          {
            "high": {
              "value": 145,
              "code": "mmol/L",
              "system": "http://unitsofmeasure.org"
            }
          }
        ],
        "text": {
          "status": "generated",
          "div": "<div xmlns=\"http://www.w3.org/1999/xhtml\"><table class=\"hl7__eu__lab__report\"><tr><th>Test</th><th>07-Sep-2021</th><th>Reference&#xA0;Range</th><th>Unit</th></tr><tr><td>Sodium [Moles/volume] in Serum or Plasma</td><td>139.1</td><td>135 - 145</td><td></td><td>mmol/L</td></tr></table></div>"
        },
        "status": "final",
        "subject": {
          "reference": "urn:uuid:c9a1554f-689f-472a-ae0c-283c65251cef",
          "display": "Meaghan Neary"
        },
        "effectiveDateTime": "2021-09-06T22:11:04Z",
        "specimen": {
          "reference": "urn:uuid:a3c2ce9e-3364-4ba6-9d7b-c9bb36cb43f5"
        }
      }
    },
    {
      "fullUrl": "urn:uuid:b652877f-e10c-47ef-9f04-7ceabdcf6061",
      "resource": {
        "resourceType": "Observation",
        "id": "b652877f-e10c-47ef-9f04-7ceabdcf6061",
        "meta": {
          "profile": [
            "http://hl7.eu/fhir/laboratory/StructureDefinition/Observation-resultslab-eu-lab"
          ]
        },
        "performer": [
          {
            "display": "The Central European Lab"
          }
        ],
        "category": [
          {
            "coding": [
              {
                "system": "http://terminology.hl7.org/CodeSystem/observation-category",
                "code": "laboratory"
              }
            ]
          }
        ],
        "code": {
          "coding": [
            {
              "code": "2823-3",
              "system": "http://loinc.org",
              "display": "Potassium [Moles/volume] in Serum or Plasma"
            }
          ],
          "text": "Potassium [Moles/volume] in Serum or Plasma"
        },
        "valueQuantity": {
          "system": "http://unitsofmeasure.org",
          "value": 4,
          "unit": "mmol/L",
          "code": "mmol/L"
        },
        "referenceRange": [
          {
            "low": {
              "value": 3.5,
              "code": "mmol/L",
              "system": "http://unitsofmeasure.org"
            }
          },
          {
            "high": {
              "value": 5.1,
              "code": "mmol/L",
              "system": "http://unitsofmeasure.org"
            }
          }
        ],
        "text": {
          "status": "generated",
          "div": "<div xmlns=\"http://www.w3.org/1999/xhtml\"><table class=\"hl7__eu__lab__report\"><tr><th>Test</th><th>07-Sep-2021</th><th>Reference&#xA0;Range</th><th>Unit</th></tr><tr><td>Potassium [Moles/volume] in Serum or Plasma</td><td>4.0</td><td>3.5 - 5.1</td><td></td><td>mmol/L</td></tr></table></div>"
        },
        "status": "final",
        "subject": {
          "reference": "urn:uuid:c9a1554f-689f-472a-ae0c-283c65251cef",
          "display": "Meaghan Neary"
        },
        "effectiveDateTime": "2021-09-06T22:11:04Z",
        "specimen": {
          "reference": "urn:uuid:a3c2ce9e-3364-4ba6-9d7b-c9bb36cb43f5"
        }
      }
    },
    {
      "fullUrl": "urn:uuid:f8eac40c-6219-408b-a28c-1b698c911225",
      "resource": {
        "resourceType": "Observation",
        "id": "f8eac40c-6219-408b-a28c-1b698c911225",
        "meta": {
          "profile": [
            "http://hl7.eu/fhir/laboratory/StructureDefinition/Observation-resultslab-eu-lab"
          ]
        },
        "performer": [
          {
            "display": "The Central European Lab"
          }
        ],
        "category": [
          {
            "coding": [
              {
                "system": "http://terminology.hl7.org/CodeSystem/observation-category",
                "code": "laboratory"
              }
            ]
          }
        ],
        "code": {
          "coding": [
            {
              "code": "2075-0",
              "system": "http://loinc.org",
              "display": "Chloride [Moles/volume] in Serum or Plasma"
            }
          ],
          "text": "Chloride [Moles/volume] in Serum or Plasma"
        },
        "valueQuantity": {
          "system": "http://unitsofmeasure.org",
          "value": 105.9,
          "unit": "mmol/L",
          "code": "mmol/L"
        },
        "referenceRange": [
          {
            "low": {
              "value": 98,
              "code": "mmol/L",
              "system": "http://unitsofmeasure.org"
            }
          },
          {
            "high": {
              "value": 108,
              "code": "mmol/L",
              "system": "http://unitsofmeasure.org"
            }
          }
        ],
        "text": {
          "status": "generated",
          "div": "<div xmlns=\"http://www.w3.org/1999/xhtml\"><table class=\"hl7__eu__lab__report\"><tr><th>Test</th><th>07-Sep-2021</th><th>Reference&#xA0;Range</th><th>Unit</th></tr><tr><td>Chloride [Moles/volume] in Serum or Plasma</td><td>105.9</td><td>98 - 108</td><td></td><td>mmol/L</td></tr></table></div>"
        },
        "status": "final",
        "subject": {
          "reference": "urn:uuid:c9a1554f-689f-472a-ae0c-283c65251cef",
          "display": "Meaghan Neary"
        },
        "effectiveDateTime": "2021-09-06T22:11:04Z",
        "specimen": {
          "reference": "urn:uuid:a3c2ce9e-3364-4ba6-9d7b-c9bb36cb43f5"
        }
      }
    },
    {
      "fullUrl": "urn:uuid:9a2d4071-64c5-4f5a-999b-55da54272d50",
      "resource": {
        "resourceType": "Observation",
        "id": "9a2d4071-64c5-4f5a-999b-55da54272d50",
        "meta": {
          "profile": [
            "http://hl7.eu/fhir/laboratory/StructureDefinition/Observation-resultslab-eu-lab"
          ]
        },
        "performer": [
          {
            "display": "The Central European Lab"
          }
        ],
        "category": [
          {
            "coding": [
              {
                "system": "http://terminology.hl7.org/CodeSystem/observation-category",
                "code": "laboratory"
              }
            ]
          }
        ],
        "code": {
          "coding": [
            {
              "code": "2028-9",
              "system": "http://loinc.org",
              "display": "Carbon dioxide, total [Moles/volume] in Serum or Plasma"
            }
          ],
          "text": "Carbon dioxide, total [Moles/volume] in Serum or Plasma"
        },
        "valueQuantity": {
          "system": "http://unitsofmeasure.org",
          "value": 27.4,
          "unit": "mmol/L",
          "code": "mmol/L"
        },
        "referenceRange": [
          {
            "low": {
              "value": 22,
              "code": "mmol/L",
              "system": "http://unitsofmeasure.org"
            }
          },
          {
            "high": {
              "value": 32,
              "code": "mmol/L",
              "system": "http://unitsofmeasure.org"
            }
          }
        ],
        "text": {
          "status": "generated",
          "div": "<div xmlns=\"http://www.w3.org/1999/xhtml\"><table class=\"hl7__eu__lab__report\"><tr><th>Test</th><th>07-Sep-2021</th><th>Reference&#xA0;Range</th><th>Unit</th></tr><tr><td>Carbon dioxide, total [Moles/volume] in Serum or Plasma</td><td>27.4</td><td>22 - 32</td><td></td><td>mmol/L</td></tr></table></div>"
        },
        "status": "final",
        "subject": {
          "reference": "urn:uuid:c9a1554f-689f-472a-ae0c-283c65251cef",
          "display": "Meaghan Neary"
        },
        "effectiveDateTime": "2021-09-06T22:11:04Z",
        "specimen": {
          "reference": "urn:uuid:a3c2ce9e-3364-4ba6-9d7b-c9bb36cb43f5"
        }
      }
    },
    {
      "fullUrl": "urn:uuid:f977906b-a9d2-460f-a05f-2735ba0f5949",
      "resource": {
        "resourceType": "Observation",
        "id": "f977906b-a9d2-460f-a05f-2735ba0f5949",
        "meta": {
          "profile": [
            "http://hl7.eu/fhir/laboratory/StructureDefinition/Observation-resultslab-eu-lab"
          ]
        },
        "performer": [
          {
            "display": "The Central European Lab"
          }
        ],
        "category": [
          {
            "coding": [
              {
                "system": "http://terminology.hl7.org/CodeSystem/observation-category",
                "code": "laboratory"
              }
            ]
          }
        ],
        "code": {
          "coding": [
            {
              "code": "5767-9",
              "system": "http://loinc.org",
              "display": "Appearance of Urine"
            }
          ],
          "text": "Appearance of Urine"
        },
        "text": {
          "status": "generated",
          "div": "<div xmlns=\"http://www.w3.org/1999/xhtml\"><table class=\"hl7__eu__lab__report\"><tr><th>Test</th><th>07-Sep-2021</th><th>Reference&#xA0;Range</th><th>Unit</th></tr><tr><td>Appearance of Urine</td></tr></table></div>"
        },
        "status": "final",
        "subject": {
          "reference": "urn:uuid:c9a1554f-689f-472a-ae0c-283c65251cef",
          "display": "Meaghan Neary"
        },
        "effectiveDateTime": "2021-09-06T22:11:04Z",
        "specimen": {
          "reference": "urn:uuid:aec2f53a-e0d1-453d-bf5b-c5e0bb530c82"
        }
      }
    },
    {
      "fullUrl": "urn:uuid:fb3b0b9e-7baa-4380-b23f-8e30ee9b6502",
      "resource": {
        "resourceType": "Observation",
        "id": "fb3b0b9e-7baa-4380-b23f-8e30ee9b6502",
        "meta": {
          "profile": [
            "http://hl7.eu/fhir/laboratory/StructureDefinition/Observation-resultslab-eu-lab"
          ]
        },
        "performer": [
          {
            "display": "The Central European Lab"
          }
        ],
        "category": [
          {
            "coding": [
              {
                "system": "http://terminology.hl7.org/CodeSystem/observation-category",
                "code": "laboratory"
              }
            ]
          }
        ],
        "code": {
          "coding": [
            {
              "code": "34533-0",
              "system": "http://loinc.org",
              "display": "Odor of Urine"
            }
          ],
          "text": "Odor of Urine"
        },
        "text": {
          "status": "generated",
          "div": "<div xmlns=\"http://www.w3.org/1999/xhtml\"><table class=\"hl7__eu__lab__report\"><tr><th>Test</th><th>07-Sep-2021</th><th>Reference&#xA0;Range</th><th>Unit</th></tr><tr><td>Odor of Urine</td></tr></table></div>"
        },
        "status": "final",
        "subject": {
          "reference": "urn:uuid:c9a1554f-689f-472a-ae0c-283c65251cef",
          "display": "Meaghan Neary"
        },
        "effectiveDateTime": "2021-09-06T22:11:04Z",
        "specimen": {
          "reference": "urn:uuid:aec2f53a-e0d1-453d-bf5b-c5e0bb530c82"
        }
      }
    },
    {
      "fullUrl": "urn:uuid:9ec6dc3e-d58e-474e-9b9c-a724eb2ce57d",
      "resource": {
        "resourceType": "Observation",
        "id": "9ec6dc3e-d58e-474e-9b9c-a724eb2ce57d",
        "meta": {
          "profile": [
            "http://hl7.eu/fhir/laboratory/StructureDefinition/Observation-resultslab-eu-lab"
          ]
        },
        "performer": [
          {
            "display": "The Central European Lab"
          }
        ],
        "category": [
          {
            "coding": [
              {
                "system": "http://terminology.hl7.org/CodeSystem/observation-category",
                "code": "laboratory"
              }
            ]
          }
        ],
        "code": {
          "coding": [
            {
              "code": "32167-9",
              "system": "http://loinc.org",
              "display": "Clarity of Urine"
            }
          ],
          "text": "Clarity of Urine"
        },
        "text": {
          "status": "generated",
          "div": "<div xmlns=\"http://www.w3.org/1999/xhtml\"><table class=\"hl7__eu__lab__report\"><tr><th>Test</th><th>07-Sep-2021</th><th>Reference&#xA0;Range</th><th>Unit</th></tr><tr><td>Clarity of Urine</td></tr></table></div>"
        },
        "status": "final",
        "subject": {
          "reference": "urn:uuid:c9a1554f-689f-472a-ae0c-283c65251cef",
          "display": "Meaghan Neary"
        },
        "effectiveDateTime": "2021-09-06T22:11:04Z",
        "specimen": {
          "reference": "urn:uuid:aec2f53a-e0d1-453d-bf5b-c5e0bb530c82"
        }
      }
    },
    {
      "fullUrl": "urn:uuid:44dc2fbc-96c0-4ca3-8580-382bdd9b5657",
      "resource": {
        "resourceType": "Observation",
        "id": "44dc2fbc-96c0-4ca3-8580-382bdd9b5657",
        "meta": {
          "profile": [
            "http://hl7.eu/fhir/laboratory/StructureDefinition/Observation-resultslab-eu-lab"
          ]
        },
        "performer": [
          {
            "display": "The Central European Lab"
          }
        ],
        "category": [
          {
            "coding": [
              {
                "system": "http://terminology.hl7.org/CodeSystem/observation-category",
                "code": "laboratory"
              }
            ]
          }
        ],
        "code": {
          "coding": [
            {
              "code": "5778-6",
              "system": "http://loinc.org",
              "display": "Color of Urine"
            }
          ],
          "text": "Color of Urine"
        },
        "text": {
          "status": "generated",
          "div": "<div xmlns=\"http://www.w3.org/1999/xhtml\"><table class=\"hl7__eu__lab__report\"><tr><th>Test</th><th>07-Sep-2021</th><th>Reference&#xA0;Range</th><th>Unit</th></tr><tr><td>Color of Urine</td></tr></table></div>"
        },
        "status": "final",
        "subject": {
          "reference": "urn:uuid:c9a1554f-689f-472a-ae0c-283c65251cef",
          "display": "Meaghan Neary"
        },
        "effectiveDateTime": "2021-09-06T22:11:04Z",
        "specimen": {
          "reference": "urn:uuid:aec2f53a-e0d1-453d-bf5b-c5e0bb530c82"
        }
      }
    },
    {
      "fullUrl": "urn:uuid:4bd76b02-7061-4aa4-a5f5-5d5617998eae",
      "resource": {
        "resourceType": "Observation",
        "id": "4bd76b02-7061-4aa4-a5f5-5d5617998eae",
        "meta": {
          "profile": [
            "http://hl7.eu/fhir/laboratory/StructureDefinition/Observation-resultslab-eu-lab"
          ]
        },
        "performer": [
          {
            "display": "The Central European Lab"
          }
        ],
        "category": [
          {
            "coding": [
              {
                "system": "http://terminology.hl7.org/CodeSystem/observation-category",
                "code": "laboratory"
              }
            ]
          }
        ],
        "code": {
          "coding": [
            {
              "code": "5792-7",
              "system": "http://loinc.org",
              "display": "Glucose [Mass/volume] in Urine by Test strip"
            }
          ],
          "text": "Glucose [Mass/volume] in Urine by Test strip"
        },
        "valueQuantity": {
          "system": "http://unitsofmeasure.org",
          "value": 1.2,
          "unit": "mg/dL",
          "code": "mg/dL"
        },
        "referenceRange": [
          {
            "low": {
              "value": 0.8,
              "code": "mg/dL",
              "system": "http://unitsofmeasure.org"
            }
          },
          {
            "high": {
              "value": 0,
              "code": "mg/dL",
              "system": "http://unitsofmeasure.org"
            }
          }
        ],
        "interpretation": [
          {
            "coding": [
              {
                "code": "H",
                "system": "http://terminology.hl7.org/CodeSystem/v3-ObservationInterpretation",
                "display": "High"
              }
            ]
          }
        ],
        "text": {
          "status": "generated",
          "div": "<div xmlns=\"http://www.w3.org/1999/xhtml\"><table class=\"hl7__eu__lab__report\"><tr><th>Test</th><th>07-Sep-2021</th><th>Reference&#xA0;Range</th><th>Unit</th></tr><tr><td>Glucose [Mass/volume] in Urine by Test strip</td><td>1.2</td><td>0.8 - 0</td><td>H</td><td>mg/dL</td></tr></table></div>"
        },
        "status": "final",
        "subject": {
          "reference": "urn:uuid:c9a1554f-689f-472a-ae0c-283c65251cef",
          "display": "Meaghan Neary"
        },
        "effectiveDateTime": "2021-09-06T22:11:04Z",
        "specimen": {
          "reference": "urn:uuid:aec2f53a-e0d1-453d-bf5b-c5e0bb530c82"
        }
      }
    },
    {
      "fullUrl": "urn:uuid:1cafa39c-40c6-4769-abaa-1d3d8fb5f183",
      "resource": {
        "resourceType": "Observation",
        "id": "1cafa39c-40c6-4769-abaa-1d3d8fb5f183",
        "meta": {
          "profile": [
            "http://hl7.eu/fhir/laboratory/StructureDefinition/Observation-resultslab-eu-lab"
          ]
        },
        "performer": [
          {
            "display": "The Central European Lab"
          }
        ],
        "category": [
          {
            "coding": [
              {
                "system": "http://terminology.hl7.org/CodeSystem/observation-category",
                "code": "laboratory"
              }
            ]
          }
        ],
        "code": {
          "coding": [
            {
              "code": "25428-4",
              "system": "http://loinc.org",
              "display": "Glucose [Presence] in Urine by Test strip"
            }
          ],
          "text": "Glucose [Presence] in Urine by Test strip"
        },
        "text": {
          "status": "generated",
          "div": "<div xmlns=\"http://www.w3.org/1999/xhtml\"><table class=\"hl7__eu__lab__report\"><tr><th>Test</th><th>07-Sep-2021</th><th>Reference&#xA0;Range</th><th>Unit</th></tr><tr><td>Glucose [Presence] in Urine by Test strip</td></tr></table></div>"
        },
        "status": "final",
        "subject": {
          "reference": "urn:uuid:c9a1554f-689f-472a-ae0c-283c65251cef",
          "display": "Meaghan Neary"
        },
        "effectiveDateTime": "2021-09-06T22:11:04Z",
        "specimen": {
          "reference": "urn:uuid:aec2f53a-e0d1-453d-bf5b-c5e0bb530c82"
        }
      }
    },
    {
      "fullUrl": "urn:uuid:b3f8726e-e7e6-4f3a-858a-3296aa25a3cf",
      "resource": {
        "resourceType": "Observation",
        "id": "b3f8726e-e7e6-4f3a-858a-3296aa25a3cf",
        "meta": {
          "profile": [
            "http://hl7.eu/fhir/laboratory/StructureDefinition/Observation-resultslab-eu-lab"
          ]
        },
        "performer": [
          {
            "display": "The Central European Lab"
          }
        ],
        "category": [
          {
            "coding": [
              {
                "system": "http://terminology.hl7.org/CodeSystem/observation-category",
                "code": "laboratory"
              }
            ]
          }
        ],
        "code": {
          "coding": [
            {
              "code": "20505-4",
              "system": "http://loinc.org",
              "display": "Bilirubin.total [Mass/volume] in Urine by Test strip"
            }
          ],
          "text": "Bilirubin.total [Mass/volume] in Urine by Test strip"
        },
        "valueQuantity": {
          "system": "http://unitsofmeasure.org",
          "value": 1.1,
          "unit": "mg/dL",
          "code": "mg/dL"
        },
        "referenceRange": [
          {
            "low": {
              "value": 0,
              "code": "mg/dL",
              "system": "http://unitsofmeasure.org"
            }
          },
          {
            "high": {
              "value": 1,
              "code": "mg/dL",
              "system": "http://unitsofmeasure.org"
            }
          }
        ],
        "interpretation": [
          {
            "coding": [
              {
                "code": "H",
                "system": "http://terminology.hl7.org/CodeSystem/v3-ObservationInterpretation",
                "display": "High"
              }
            ]
          }
        ],
        "text": {
          "status": "generated",
          "div": "<div xmlns=\"http://www.w3.org/1999/xhtml\"><table class=\"hl7__eu__lab__report\"><tr><th>Test</th><th>07-Sep-2021</th><th>Reference&#xA0;Range</th><th>Unit</th></tr><tr><td>Bilirubin.total [Mass/volume] in Urine by Test strip</td><td>1.1</td><td>0 - 1</td><td>H</td><td>mg/dL</td></tr></table></div>"
        },
        "status": "final",
        "subject": {
          "reference": "urn:uuid:c9a1554f-689f-472a-ae0c-283c65251cef",
          "display": "Meaghan Neary"
        },
        "effectiveDateTime": "2021-09-06T22:11:04Z",
        "specimen": {
          "reference": "urn:uuid:aec2f53a-e0d1-453d-bf5b-c5e0bb530c82"
        }
      }
    },
    {
      "fullUrl": "urn:uuid:cbc72c7f-a63d-44cb-9cd0-6eb5fa022cec",
      "resource": {
        "resourceType": "Observation",
        "id": "cbc72c7f-a63d-44cb-9cd0-6eb5fa022cec",
        "meta": {
          "profile": [
            "http://hl7.eu/fhir/laboratory/StructureDefinition/Observation-resultslab-eu-lab"
          ]
        },
        "performer": [
          {
            "display": "The Central European Lab"
          }
        ],
        "category": [
          {
            "coding": [
              {
                "system": "http://terminology.hl7.org/CodeSystem/observation-category",
                "code": "laboratory"
              }
            ]
          }
        ],
        "code": {
          "coding": [
            {
              "code": "5770-3",
              "system": "http://loinc.org",
              "display": "Bilirubin.total [Presence] in Urine by Test strip"
            }
          ],
          "text": "Bilirubin.total [Presence] in Urine by Test strip"
        },
        "text": {
          "status": "generated",
          "div": "<div xmlns=\"http://www.w3.org/1999/xhtml\"><table class=\"hl7__eu__lab__report\"><tr><th>Test</th><th>07-Sep-2021</th><th>Reference&#xA0;Range</th><th>Unit</th></tr><tr><td>Bilirubin.total [Presence] in Urine by Test strip</td></tr></table></div>"
        },
        "status": "final",
        "subject": {
          "reference": "urn:uuid:c9a1554f-689f-472a-ae0c-283c65251cef",
          "display": "Meaghan Neary"
        },
        "effectiveDateTime": "2021-09-06T22:11:04Z",
        "specimen": {
          "reference": "urn:uuid:aec2f53a-e0d1-453d-bf5b-c5e0bb530c82"
        }
      }
    },
    {
      "fullUrl": "urn:uuid:cdcf63fd-5dd6-4807-9f5a-c276fcc0c032",
      "resource": {
        "resourceType": "Observation",
        "id": "cdcf63fd-5dd6-4807-9f5a-c276fcc0c032",
        "meta": {
          "profile": [
            "http://hl7.eu/fhir/laboratory/StructureDefinition/Observation-resultslab-eu-lab"
          ]
        },
        "performer": [
          {
            "display": "The Central European Lab"
          }
        ],
        "category": [
          {
            "coding": [
              {
                "system": "http://terminology.hl7.org/CodeSystem/observation-category",
                "code": "laboratory"
              }
            ]
          }
        ],
        "code": {
          "coding": [
            {
              "code": "5797-6",
              "system": "http://loinc.org",
              "display": "Ketones [Mass/volume] in Urine by Test strip"
            }
          ],
          "text": "Ketones [Mass/volume] in Urine by Test strip"
        },
        "valueQuantity": {
          "system": "http://unitsofmeasure.org",
          "value": 18.5,
          "unit": "mg/dL",
          "code": "mg/dL"
        },
        "referenceRange": [
          {
            "low": {
              "value": 0,
              "code": "mg/dL",
              "system": "http://unitsofmeasure.org"
            }
          },
          {
            "high": {
              "value": 4,
              "code": "mg/dL",
              "system": "http://unitsofmeasure.org"
            }
          }
        ],
        "interpretation": [
          {
            "coding": [
              {
                "code": "H",
                "system": "http://terminology.hl7.org/CodeSystem/v3-ObservationInterpretation",
                "display": "High"
              }
            ]
          }
        ],
        "text": {
          "status": "generated",
          "div": "<div xmlns=\"http://www.w3.org/1999/xhtml\"><table class=\"hl7__eu__lab__report\"><tr><th>Test</th><th>07-Sep-2021</th><th>Reference&#xA0;Range</th><th>Unit</th></tr><tr><td>Ketones [Mass/volume] in Urine by Test strip</td><td>18.5</td><td>0 - 4</td><td>H</td><td>mg/dL</td></tr></table></div>"
        },
        "status": "final",
        "subject": {
          "reference": "urn:uuid:c9a1554f-689f-472a-ae0c-283c65251cef",
          "display": "Meaghan Neary"
        },
        "effectiveDateTime": "2021-09-06T22:11:04Z",
        "specimen": {
          "reference": "urn:uuid:aec2f53a-e0d1-453d-bf5b-c5e0bb530c82"
        }
      }
    },
    {
      "fullUrl": "urn:uuid:a711dd58-3b2a-422c-9c2a-4277ab0b3596",
      "resource": {
        "resourceType": "Observation",
        "id": "a711dd58-3b2a-422c-9c2a-4277ab0b3596",
        "meta": {
          "profile": [
            "http://hl7.eu/fhir/laboratory/StructureDefinition/Observation-resultslab-eu-lab"
          ]
        },
        "performer": [
          {
            "display": "The Central European Lab"
          }
        ],
        "category": [
          {
            "coding": [
              {
                "system": "http://terminology.hl7.org/CodeSystem/observation-category",
                "code": "laboratory"
              }
            ]
          }
        ],
        "code": {
          "coding": [
            {
              "code": "2514-8",
              "system": "http://loinc.org",
              "display": "Ketones [Presence] in Urine by Test strip"
            }
          ],
          "text": "Ketones [Presence] in Urine by Test strip"
        },
        "text": {
          "status": "generated",
          "div": "<div xmlns=\"http://www.w3.org/1999/xhtml\"><table class=\"hl7__eu__lab__report\"><tr><th>Test</th><th>07-Sep-2021</th><th>Reference&#xA0;Range</th><th>Unit</th></tr><tr><td>Ketones [Presence] in Urine by Test strip</td></tr></table></div>"
        },
        "status": "final",
        "subject": {
          "reference": "urn:uuid:c9a1554f-689f-472a-ae0c-283c65251cef",
          "display": "Meaghan Neary"
        },
        "effectiveDateTime": "2021-09-06T22:11:04Z",
        "specimen": {
          "reference": "urn:uuid:aec2f53a-e0d1-453d-bf5b-c5e0bb530c82"
        }
      }
    },
    {
      "fullUrl": "urn:uuid:1065d701-77e4-4320-8191-ecab41ba5dce",
      "resource": {
        "resourceType": "Observation",
        "id": "1065d701-77e4-4320-8191-ecab41ba5dce",
        "meta": {
          "profile": [
            "http://hl7.eu/fhir/laboratory/StructureDefinition/Observation-resultslab-eu-lab"
          ]
        },
        "performer": [
          {
            "display": "The Central European Lab"
          }
        ],
        "category": [
          {
            "coding": [
              {
                "system": "http://terminology.hl7.org/CodeSystem/observation-category",
                "code": "laboratory"
              }
            ]
          }
        ],
        "code": {
          "coding": [
            {
              "code": "5811-5",
              "system": "http://loinc.org",
              "display": "Specific gravity of Urine by Test strip"
            }
          ],
          "text": "Specific gravity of Urine by Test strip"
        },
        "valueQuantity": {
          "system": "http://unitsofmeasure.org",
          "value": 1,
          "unit": "{nominal}",
          "code": "{nominal}"
        },
        "referenceRange": [
          {
            "low": {
              "value": 1.005,
              "code": "g/mL",
              "system": "http://unitsofmeasure.org"
            }
          },
          {
            "high": {
              "value": 1.03,
              "code": "g/mL",
              "system": "http://unitsofmeasure.org"
            }
          }
        ],
        "interpretation": [
          {
            "coding": [
              {
                "code": "L",
                "system": "http://terminology.hl7.org/CodeSystem/v3-ObservationInterpretation",
                "display": "Low"
              }
            ]
          }
        ],
        "text": {
          "status": "generated",
          "div": "<div xmlns=\"http://www.w3.org/1999/xhtml\"><table class=\"hl7__eu__lab__report\"><tr><th>Test</th><th>07-Sep-2021</th><th>Reference&#xA0;Range</th><th>Unit</th></tr><tr><td>Specific gravity of Urine by Test strip</td><td>1.0</td><td>1.005 - 1.03</td><td>L</td><td>{nominal}</td></tr></table></div>"
        },
        "status": "final",
        "subject": {
          "reference": "urn:uuid:c9a1554f-689f-472a-ae0c-283c65251cef",
          "display": "Meaghan Neary"
        },
        "effectiveDateTime": "2021-09-06T22:11:04Z",
        "specimen": {
          "reference": "urn:uuid:aec2f53a-e0d1-453d-bf5b-c5e0bb530c82"
        }
      }
    },
    {
      "fullUrl": "urn:uuid:d83fd142-6c71-4a59-bacf-59a30c63f2da",
      "resource": {
        "resourceType": "Observation",
        "id": "d83fd142-6c71-4a59-bacf-59a30c63f2da",
        "meta": {
          "profile": [
            "http://hl7.eu/fhir/laboratory/StructureDefinition/Observation-resultslab-eu-lab"
          ]
        },
        "performer": [
          {
            "display": "The Central European Lab"
          }
        ],
        "category": [
          {
            "coding": [
              {
                "system": "http://terminology.hl7.org/CodeSystem/observation-category",
                "code": "laboratory"
              }
            ]
          }
        ],
        "code": {
          "coding": [
            {
              "code": "5803-2",
              "system": "http://loinc.org",
              "display": "pH of Urine by Test strip"
            }
          ],
          "text": "pH of Urine by Test strip"
        },
        "valueQuantity": {
          "system": "http://unitsofmeasure.org",
          "value": 5.2,
          "unit": "pH",
          "code": "pH"
        },
        "referenceRange": [
          {
            "low": {
              "value": 4.6,
              "code": "pH",
              "system": "http://unitsofmeasure.org"
            }
          },
          {
            "high": {
              "value": 7,
              "code": "pH",
              "system": "http://unitsofmeasure.org"
            }
          }
        ],
        "text": {
          "status": "generated",
          "div": "<div xmlns=\"http://www.w3.org/1999/xhtml\"><table class=\"hl7__eu__lab__report\"><tr><th>Test</th><th>07-Sep-2021</th><th>Reference&#xA0;Range</th><th>Unit</th></tr><tr><td>pH of Urine by Test strip</td><td>5.2</td><td>4.6 - 7</td><td></td><td>pH</td></tr></table></div>"
        },
        "status": "final",
        "subject": {
          "reference": "urn:uuid:c9a1554f-689f-472a-ae0c-283c65251cef",
          "display": "Meaghan Neary"
        },
        "effectiveDateTime": "2021-09-06T22:11:04Z",
        "specimen": {
          "reference": "urn:uuid:aec2f53a-e0d1-453d-bf5b-c5e0bb530c82"
        }
      }
    },
    {
      "fullUrl": "urn:uuid:437e23c4-9610-4625-9a32-899af7482ef6",
      "resource": {
        "resourceType": "Observation",
        "id": "437e23c4-9610-4625-9a32-899af7482ef6",
        "meta": {
          "profile": [
            "http://hl7.eu/fhir/laboratory/StructureDefinition/Observation-resultslab-eu-lab"
          ]
        },
        "performer": [
          {
            "display": "The Central European Lab"
          }
        ],
        "category": [
          {
            "coding": [
              {
                "system": "http://terminology.hl7.org/CodeSystem/observation-category",
                "code": "laboratory"
              }
            ]
          }
        ],
        "code": {
          "coding": [
            {
              "code": "5804-0",
              "system": "http://loinc.org",
              "display": "Protein [Mass/volume] in Urine by Test strip"
            }
          ],
          "text": "Protein [Mass/volume] in Urine by Test strip"
        },
        "valueQuantity": {
          "system": "http://unitsofmeasure.org",
          "value": 289.2,
          "unit": "mg/dL",
          "code": "mg/dL"
        },
        "referenceRange": [
          {
            "low": {
              "value": 0,
              "code": "mg/dL",
              "system": "http://unitsofmeasure.org"
            }
          },
          {
            "high": {
              "value": 14,
              "code": "mg/dL",
              "system": "http://unitsofmeasure.org"
            }
          }
        ],
        "interpretation": [
          {
            "coding": [
              {
                "code": "H",
                "system": "http://terminology.hl7.org/CodeSystem/v3-ObservationInterpretation",
                "display": "High"
              }
            ]
          }
        ],
        "text": {
          "status": "generated",
          "div": "<div xmlns=\"http://www.w3.org/1999/xhtml\"><table class=\"hl7__eu__lab__report\"><tr><th>Test</th><th>07-Sep-2021</th><th>Reference&#xA0;Range</th><th>Unit</th></tr><tr><td>Protein [Mass/volume] in Urine by Test strip</td><td>289.2</td><td>0 - 14</td><td>H</td><td>mg/dL</td></tr></table></div>"
        },
        "status": "final",
        "subject": {
          "reference": "urn:uuid:c9a1554f-689f-472a-ae0c-283c65251cef",
          "display": "Meaghan Neary"
        },
        "effectiveDateTime": "2021-09-06T22:11:04Z",
        "specimen": {
          "reference": "urn:uuid:aec2f53a-e0d1-453d-bf5b-c5e0bb530c82"
        }
      }
    },
    {
      "fullUrl": "urn:uuid:115900cc-2756-43c1-91e7-683f06c9fc3b",
      "resource": {
        "resourceType": "Observation",
        "id": "115900cc-2756-43c1-91e7-683f06c9fc3b",
        "meta": {
          "profile": [
            "http://hl7.eu/fhir/laboratory/StructureDefinition/Observation-resultslab-eu-lab"
          ]
        },
        "performer": [
          {
            "display": "The Central European Lab"
          }
        ],
        "category": [
          {
            "coding": [
              {
                "system": "http://terminology.hl7.org/CodeSystem/observation-category",
                "code": "laboratory"
              }
            ]
          }
        ],
        "code": {
          "coding": [
            {
              "code": "20454-5",
              "system": "http://loinc.org",
              "display": "Protein [Presence] in Urine by Test strip"
            }
          ],
          "text": "Protein [Presence] in Urine by Test strip"
        },
        "text": {
          "status": "generated",
          "div": "<div xmlns=\"http://www.w3.org/1999/xhtml\"><table class=\"hl7__eu__lab__report\"><tr><th>Test</th><th>07-Sep-2021</th><th>Reference&#xA0;Range</th><th>Unit</th></tr><tr><td>Protein [Presence] in Urine by Test strip</td></tr></table></div>"
        },
        "status": "final",
        "subject": {
          "reference": "urn:uuid:c9a1554f-689f-472a-ae0c-283c65251cef",
          "display": "Meaghan Neary"
        },
        "effectiveDateTime": "2021-09-06T22:11:04Z",
        "specimen": {
          "reference": "urn:uuid:aec2f53a-e0d1-453d-bf5b-c5e0bb530c82"
        }
      }
    },
    {
      "fullUrl": "urn:uuid:a58b450c-6ebc-4d7b-aea4-56de4050b6f7",
      "resource": {
        "resourceType": "Observation",
        "id": "a58b450c-6ebc-4d7b-aea4-56de4050b6f7",
        "meta": {
          "profile": [
            "http://hl7.eu/fhir/laboratory/StructureDefinition/Observation-resultslab-eu-lab"
          ]
        },
        "performer": [
          {
            "display": "The Central European Lab"
          }
        ],
        "category": [
          {
            "coding": [
              {
                "system": "http://terminology.hl7.org/CodeSystem/observation-category",
                "code": "laboratory"
              }
            ]
          }
        ],
        "code": {
          "coding": [
            {
              "code": "5802-4",
              "system": "http://loinc.org",
              "display": "Nitrite [Presence] in Urine by Test strip"
            }
          ],
          "text": "Nitrite [Presence] in Urine by Test strip"
        },
        "text": {
          "status": "generated",
          "div": "<div xmlns=\"http://www.w3.org/1999/xhtml\"><table class=\"hl7__eu__lab__report\"><tr><th>Test</th><th>07-Sep-2021</th><th>Reference&#xA0;Range</th><th>Unit</th></tr><tr><td>Nitrite [Presence] in Urine by Test strip</td></tr></table></div>"
        },
        "status": "final",
        "subject": {
          "reference": "urn:uuid:c9a1554f-689f-472a-ae0c-283c65251cef",
          "display": "Meaghan Neary"
        },
        "effectiveDateTime": "2021-09-06T22:11:04Z",
        "specimen": {
          "reference": "urn:uuid:aec2f53a-e0d1-453d-bf5b-c5e0bb530c82"
        }
      }
    },
    {
      "fullUrl": "urn:uuid:ba684aed-852a-4c4f-a33f-ef6af41fbd0c",
      "resource": {
        "resourceType": "Observation",
        "id": "ba684aed-852a-4c4f-a33f-ef6af41fbd0c",
        "meta": {
          "profile": [
            "http://hl7.eu/fhir/laboratory/StructureDefinition/Observation-resultslab-eu-lab"
          ]
        },
        "performer": [
          {
            "display": "The Central European Lab"
          }
        ],
        "category": [
          {
            "coding": [
              {
                "system": "http://terminology.hl7.org/CodeSystem/observation-category",
                "code": "laboratory"
              }
            ]
          }
        ],
        "code": {
          "coding": [
            {
              "code": "5794-3",
              "system": "http://loinc.org",
              "display": "Hemoglobin [Presence] in Urine by Test strip"
            }
          ],
          "text": "Hemoglobin [Presence] in Urine by Test strip"
        },
        "text": {
          "status": "generated",
          "div": "<div xmlns=\"http://www.w3.org/1999/xhtml\"><table class=\"hl7__eu__lab__report\"><tr><th>Test</th><th>07-Sep-2021</th><th>Reference&#xA0;Range</th><th>Unit</th></tr><tr><td>Hemoglobin [Presence] in Urine by Test strip</td></tr></table></div>"
        },
        "status": "final",
        "subject": {
          "reference": "urn:uuid:c9a1554f-689f-472a-ae0c-283c65251cef",
          "display": "Meaghan Neary"
        },
        "effectiveDateTime": "2021-09-06T22:11:04Z",
        "specimen": {
          "reference": "urn:uuid:aec2f53a-e0d1-453d-bf5b-c5e0bb530c82"
        }
      }
    },
    {
      "fullUrl": "urn:uuid:e1ec75a1-8e7d-4ec0-b2b7-bdc55aa4781b",
      "resource": {
        "resourceType": "Observation",
        "id": "e1ec75a1-8e7d-4ec0-b2b7-bdc55aa4781b",
        "meta": {
          "profile": [
            "http://hl7.eu/fhir/laboratory/StructureDefinition/Observation-resultslab-eu-lab"
          ]
        },
        "performer": [
          {
            "display": "The Central European Lab"
          }
        ],
        "category": [
          {
            "coding": [
              {
                "system": "http://terminology.hl7.org/CodeSystem/observation-category",
                "code": "laboratory"
              }
            ]
          }
        ],
        "code": {
          "coding": [
            {
              "code": "5799-2",
              "system": "http://loinc.org",
              "display": "Leukocyte esterase [Presence] in Urine by Test strip"
            }
          ],
          "text": "Leukocyte esterase [Presence] in Urine by Test strip"
        },
        "text": {
          "status": "generated",
          "div": "<div xmlns=\"http://www.w3.org/1999/xhtml\"><table class=\"hl7__eu__lab__report\"><tr><th>Test</th><th>07-Sep-2021</th><th>Reference&#xA0;Range</th><th>Unit</th></tr><tr><td>Leukocyte esterase [Presence] in Urine by Test strip</td></tr></table></div>"
        },
        "status": "final",
        "subject": {
          "reference": "urn:uuid:c9a1554f-689f-472a-ae0c-283c65251cef",
          "display": "Meaghan Neary"
        },
        "effectiveDateTime": "2021-09-06T22:11:04Z",
        "specimen": {
          "reference": "urn:uuid:aec2f53a-e0d1-453d-bf5b-c5e0bb530c82"
        }
      }
    },
    {
      "fullUrl": "urn:uuid:316ae074-2e7f-4262-b408-6ad9643c0ede",
      "resource": {
        "resourceType": "Observation",
        "id": "316ae074-2e7f-4262-b408-6ad9643c0ede",
        "meta": {
          "profile": [
            "http://hl7.eu/fhir/laboratory/StructureDefinition/Observation-resultslab-eu-lab"
          ]
        },
        "performer": [
          {
            "display": "The Central European Lab"
          }
        ],
        "category": [
          {
            "coding": [
              {
                "system": "http://terminology.hl7.org/CodeSystem/observation-category",
                "code": "laboratory"
              }
            ]
          }
        ],
        "code": {
          "coding": [
            {
              "code": "4548-4",
              "system": "http://loinc.org",
              "display": "Hemoglobin A1c/Hemoglobin.total in Blood"
            }
          ],
          "text": "Hemoglobin A1c/Hemoglobin.total in Blood"
        },
        "valueQuantity": {
          "system": "http://unitsofmeasure.org",
          "value": 3.2,
          "unit": "%",
          "code": "%"
        },
        "referenceRange": [
          {
            "low": {
              "value": 4,
              "code": "%",
              "system": "http://unitsofmeasure.org"
            }
          },
          {
            "high": {
              "value": 6.4,
              "code": "%",
              "system": "http://unitsofmeasure.org"
            }
          }
        ],
        "interpretation": [
          {
            "coding": [
              {
                "code": "L",
                "system": "http://terminology.hl7.org/CodeSystem/v3-ObservationInterpretation",
                "display": "Low"
              }
            ]
          }
        ],
        "text": {
          "status": "generated",
          "div": "<div xmlns=\"http://www.w3.org/1999/xhtml\"><table class=\"hl7__eu__lab__report\"><tr><th>Test</th><th>07-Sep-2021</th><th>Reference&#xA0;Range</th><th>Unit</th></tr><tr><td>Hemoglobin A1c/Hemoglobin.total in Blood</td><td>3.2</td><td>4 - 6.4</td><td>L</td><td>%</td></tr></table></div>"
        },
        "status": "final",
        "subject": {
          "reference": "urn:uuid:c9a1554f-689f-472a-ae0c-283c65251cef",
          "display": "Meaghan Neary"
        },
        "effectiveDateTime": "2021-09-06T22:11:04Z",
        "specimen": {
          "reference": "urn:uuid:69755bf6-dd84-4767-85f8-3b435dfd7ad2"
        }
      }
    },
    {
      "fullUrl": "urn:uuid:5c7a8794-dd7c-4062-ad12-866dafc194d7",
      "resource": {
        "resourceType": "Observation",
        "id": "5c7a8794-dd7c-4062-ad12-866dafc194d7",
        "meta": {
          "profile": [
            "http://hl7.eu/fhir/laboratory/StructureDefinition/Observation-resultslab-eu-lab"
          ]
        },
        "performer": [
          {
            "display": "The Central European Lab"
          }
        ],
        "category": [
          {
            "coding": [
              {
                "system": "http://terminology.hl7.org/CodeSystem/observation-category",
                "code": "laboratory"
              }
            ]
          }
        ],
        "code": {
          "coding": [
            {
              "code": "2339-0",
              "system": "http://loinc.org",
              "display": "Glucose [Mass/volume] in Blood"
            }
          ],
          "text": "Glucose [Mass/volume] in Blood"
        },
        "valueQuantity": {
          "system": "http://unitsofmeasure.org",
          "value": 99.2,
          "unit": "mg/dL",
          "code": "mg/dL"
        },
        "referenceRange": [
          {
            "low": {
              "value": 70,
              "code": "mg/dL",
              "system": "http://unitsofmeasure.org"
            }
          },
          {
            "high": {
              "value": 100,
              "code": "mg/dL",
              "system": "http://unitsofmeasure.org"
            }
          }
        ],
        "text": {
          "status": "generated",
          "div": "<div xmlns=\"http://www.w3.org/1999/xhtml\"><table class=\"hl7__eu__lab__report\"><tr><th>Test</th><th>07-Sep-2021</th><th>Reference&#xA0;Range</th><th>Unit</th></tr><tr><td>Glucose [Mass/volume] in Blood</td><td>99.2</td><td>70 - 100</td><td></td><td>mg/dL</td></tr></table></div>"
        },
        "status": "final",
        "subject": {
          "reference": "urn:uuid:c9a1554f-689f-472a-ae0c-283c65251cef",
          "display": "Meaghan Neary"
        },
        "effectiveDateTime": "2021-09-06T22:11:04Z",
        "specimen": {
          "reference": "urn:uuid:69755bf6-dd84-4767-85f8-3b435dfd7ad2"
        }
      }
    },
    {
      "fullUrl": "urn:uuid:91483626-b266-469b-ae78-bdf67d2f107d",
      "resource": {
        "resourceType": "Observation",
        "id": "91483626-b266-469b-ae78-bdf67d2f107d",
        "meta": {
          "profile": [
            "http://hl7.eu/fhir/laboratory/StructureDefinition/Observation-resultslab-eu-lab"
          ]
        },
        "performer": [
          {
            "display": "The Central European Lab"
          }
        ],
        "category": [
          {
            "coding": [
              {
                "system": "http://terminology.hl7.org/CodeSystem/observation-category",
                "code": "laboratory"
              }
            ]
          }
        ],
        "code": {
          "coding": [
            {
              "code": "6299-2",
              "system": "http://loinc.org",
              "display": "Urea nitrogen [Mass/volume] in Blood"
            }
          ],
          "text": "Urea nitrogen [Mass/volume] in Blood"
        },
        "valueQuantity": {
          "system": "http://unitsofmeasure.org",
          "value": 7.6,
          "unit": "mg/dL",
          "code": "mg/dL"
        },
        "referenceRange": [
          {
            "low": {
              "value": 7,
              "code": "mg/dL",
              "system": "http://unitsofmeasure.org"
            }
          },
          {
            "high": {
              "value": 43,
              "code": "mg/dL",
              "system": "http://unitsofmeasure.org"
            }
          }
        ],
        "text": {
          "status": "generated",
          "div": "<div xmlns=\"http://www.w3.org/1999/xhtml\"><table class=\"hl7__eu__lab__report\"><tr><th>Test</th><th>07-Sep-2021</th><th>Reference&#xA0;Range</th><th>Unit</th></tr><tr><td>Urea nitrogen [Mass/volume] in Blood</td><td>7.6</td><td>7 - 43</td><td></td><td>mg/dL</td></tr></table></div>"
        },
        "status": "final",
        "subject": {
          "reference": "urn:uuid:c9a1554f-689f-472a-ae0c-283c65251cef",
          "display": "Meaghan Neary"
        },
        "effectiveDateTime": "2021-09-06T22:11:04Z",
        "specimen": {
          "reference": "urn:uuid:69755bf6-dd84-4767-85f8-3b435dfd7ad2"
        }
      }
    },
    {
      "fullUrl": "urn:uuid:835baa6b-1eb5-42ba-84c9-e40fd37dab23",
      "resource": {
        "resourceType": "Observation",
        "id": "835baa6b-1eb5-42ba-84c9-e40fd37dab23",
        "meta": {
          "profile": [
            "http://hl7.eu/fhir/laboratory/StructureDefinition/Observation-resultslab-eu-lab"
          ]
        },
        "performer": [
          {
            "display": "The Central European Lab"
          }
        ],
        "category": [
          {
            "coding": [
              {
                "system": "http://terminology.hl7.org/CodeSystem/observation-category",
                "code": "laboratory"
              }
            ]
          }
        ],
        "code": {
          "coding": [
            {
              "code": "38483-4",
              "system": "http://loinc.org",
              "display": "Creatinine [Mass/volume] in Blood"
            }
          ],
          "text": "Creatinine [Mass/volume] in Blood"
        },
        "valueQuantity": {
          "system": "http://unitsofmeasure.org",
          "value": 2.8,
          "unit": "mg/dL",
          "code": "mg/dL"
        },
        "referenceRange": [
          {
            "low": {
              "value": 0.6,
              "code": "mg/dL",
              "system": "http://unitsofmeasure.org"
            }
          },
          {
            "high": {
              "value": 1.1,
              "code": "mg/dL",
              "system": "http://unitsofmeasure.org"
            }
          }
        ],
        "interpretation": [
          {
            "coding": [
              {
                "code": "H",
                "system": "http://terminology.hl7.org/CodeSystem/v3-ObservationInterpretation",
                "display": "High"
              }
            ]
          }
        ],
        "text": {
          "status": "generated",
          "div": "<div xmlns=\"http://www.w3.org/1999/xhtml\"><table class=\"hl7__eu__lab__report\"><tr><th>Test</th><th>07-Sep-2021</th><th>Reference&#xA0;Range</th><th>Unit</th></tr><tr><td>Creatinine [Mass/volume] in Blood</td><td>2.8</td><td>0.6 - 1.1</td><td>H</td><td>mg/dL</td></tr></table></div>"
        },
        "status": "final",
        "subject": {
          "reference": "urn:uuid:c9a1554f-689f-472a-ae0c-283c65251cef",
          "display": "Meaghan Neary"
        },
        "effectiveDateTime": "2021-09-06T22:11:04Z",
        "specimen": {
          "reference": "urn:uuid:69755bf6-dd84-4767-85f8-3b435dfd7ad2"
        }
      }
    },
    {
      "fullUrl": "urn:uuid:94c9a7d5-8cbb-4b81-82d7-aa222f049288",
      "resource": {
        "resourceType": "Observation",
        "id": "94c9a7d5-8cbb-4b81-82d7-aa222f049288",
        "meta": {
          "profile": [
            "http://hl7.eu/fhir/laboratory/StructureDefinition/Observation-resultslab-eu-lab"
          ]
        },
        "performer": [
          {
            "display": "The Central European Lab"
          }
        ],
        "category": [
          {
            "coding": [
              {
                "system": "http://terminology.hl7.org/CodeSystem/observation-category",
                "code": "laboratory"
              }
            ]
          }
        ],
        "code": {
          "coding": [
            {
              "code": "49765-1",
              "system": "http://loinc.org",
              "display": "Calcium [Mass/volume] in Blood"
            }
          ],
          "text": "Calcium [Mass/volume] in Blood"
        },
        "valueQuantity": {
          "system": "http://unitsofmeasure.org",
          "value": 9.1,
          "unit": "mg/dL",
          "code": "mg/dL"
        },
        "referenceRange": [
          {
            "low": {
              "value": 8.5,
              "code": "mg/dL",
              "system": "http://unitsofmeasure.org"
            }
          },
          {
            "high": {
              "value": 10.5,
              "code": "mg/dL",
              "system": "http://unitsofmeasure.org"
            }
          }
        ],
        "text": {
          "status": "generated",
          "div": "<div xmlns=\"http://www.w3.org/1999/xhtml\"><table class=\"hl7__eu__lab__report\"><tr><th>Test</th><th>07-Sep-2021</th><th>Reference&#xA0;Range</th><th>Unit</th></tr><tr><td>Calcium [Mass/volume] in Blood</td><td>9.1</td><td>8.5 - 10.5</td><td></td><td>mg/dL</td></tr></table></div>"
        },
        "status": "final",
        "subject": {
          "reference": "urn:uuid:c9a1554f-689f-472a-ae0c-283c65251cef",
          "display": "Meaghan Neary"
        },
        "effectiveDateTime": "2021-09-06T22:11:04Z",
        "specimen": {
          "reference": "urn:uuid:69755bf6-dd84-4767-85f8-3b435dfd7ad2"
        }
      }
    },
    {
      "fullUrl": "urn:uuid:e8f8ddb5-d3e5-4c1c-a378-6093775d0b33",
      "resource": {
        "resourceType": "Observation",
        "id": "e8f8ddb5-d3e5-4c1c-a378-6093775d0b33",
        "meta": {
          "profile": [
            "http://hl7.eu/fhir/laboratory/StructureDefinition/Observation-resultslab-eu-lab"
          ]
        },
        "performer": [
          {
            "display": "The Central European Lab"
          }
        ],
        "category": [
          {
            "coding": [
              {
                "system": "http://terminology.hl7.org/CodeSystem/observation-category",
                "code": "laboratory"
              }
            ]
          }
        ],
        "code": {
          "coding": [
            {
              "code": "2947-0",
              "system": "http://loinc.org",
              "display": "Sodium [Moles/volume] in Blood"
            }
          ],
          "text": "Sodium [Moles/volume] in Blood"
        },
        "valueQuantity": {
          "system": "http://unitsofmeasure.org",
          "value": 139.1,
          "unit": "mmol/L",
          "code": "mmol/L"
        },
        "referenceRange": [
          {
            "low": {
              "value": 135,
              "code": "mmol/L",
              "system": "http://unitsofmeasure.org"
            }
          },
          {
            "high": {
              "value": 145,
              "code": "mmol/L",
              "system": "http://unitsofmeasure.org"
            }
          }
        ],
        "text": {
          "status": "generated",
          "div": "<div xmlns=\"http://www.w3.org/1999/xhtml\"><table class=\"hl7__eu__lab__report\"><tr><th>Test</th><th>07-Sep-2021</th><th>Reference&#xA0;Range</th><th>Unit</th></tr><tr><td>Sodium [Moles/volume] in Blood</td><td>139.1</td><td>135 - 145</td><td></td><td>mmol/L</td></tr></table></div>"
        },
        "status": "final",
        "subject": {
          "reference": "urn:uuid:c9a1554f-689f-472a-ae0c-283c65251cef",
          "display": "Meaghan Neary"
        },
        "effectiveDateTime": "2021-09-06T22:11:04Z",
        "specimen": {
          "reference": "urn:uuid:69755bf6-dd84-4767-85f8-3b435dfd7ad2"
        }
      }
    },
    {
      "fullUrl": "urn:uuid:c78c0b09-5498-4ff8-a1f9-d7e495803aab",
      "resource": {
        "resourceType": "Observation",
        "id": "c78c0b09-5498-4ff8-a1f9-d7e495803aab",
        "meta": {
          "profile": [
            "http://hl7.eu/fhir/laboratory/StructureDefinition/Observation-resultslab-eu-lab"
          ]
        },
        "performer": [
          {
            "display": "The Central European Lab"
          }
        ],
        "category": [
          {
            "coding": [
              {
                "system": "http://terminology.hl7.org/CodeSystem/observation-category",
                "code": "laboratory"
              }
            ]
          }
        ],
        "code": {
          "coding": [
            {
              "code": "6298-4",
              "system": "http://loinc.org",
              "display": "Potassium [Moles/volume] in Blood"
            }
          ],
          "text": "Potassium [Moles/volume] in Blood"
        },
        "valueQuantity": {
          "system": "http://unitsofmeasure.org",
          "value": 4,
          "unit": "mmol/L",
          "code": "mmol/L"
        },
        "referenceRange": [
          {
            "low": {
              "value": 3.5,
              "code": "mmol/L",
              "system": "http://unitsofmeasure.org"
            }
          },
          {
            "high": {
              "value": 5.1,
              "code": "mmol/L",
              "system": "http://unitsofmeasure.org"
            }
          }
        ],
        "text": {
          "status": "generated",
          "div": "<div xmlns=\"http://www.w3.org/1999/xhtml\"><table class=\"hl7__eu__lab__report\"><tr><th>Test</th><th>07-Sep-2021</th><th>Reference&#xA0;Range</th><th>Unit</th></tr><tr><td>Potassium [Moles/volume] in Blood</td><td>4.0</td><td>3.5 - 5.1</td><td></td><td>mmol/L</td></tr></table></div>"
        },
        "status": "final",
        "subject": {
          "reference": "urn:uuid:c9a1554f-689f-472a-ae0c-283c65251cef",
          "display": "Meaghan Neary"
        },
        "effectiveDateTime": "2021-09-06T22:11:04Z",
        "specimen": {
          "reference": "urn:uuid:69755bf6-dd84-4767-85f8-3b435dfd7ad2"
        }
      }
    },
    {
      "fullUrl": "urn:uuid:8c0cd3d7-dbd9-4b1e-92e8-b908df4de21d",
      "resource": {
        "resourceType": "Observation",
        "id": "8c0cd3d7-dbd9-4b1e-92e8-b908df4de21d",
        "meta": {
          "profile": [
            "http://hl7.eu/fhir/laboratory/StructureDefinition/Observation-resultslab-eu-lab"
          ]
        },
        "performer": [
          {
            "display": "The Central European Lab"
          }
        ],
        "category": [
          {
            "coding": [
              {
                "system": "http://terminology.hl7.org/CodeSystem/observation-category",
                "code": "laboratory"
              }
            ]
          }
        ],
        "code": {
          "coding": [
            {
              "code": "2069-3",
              "system": "http://loinc.org",
              "display": "Chloride [Moles/volume] in Blood"
            }
          ],
          "text": "Chloride [Moles/volume] in Blood"
        },
        "valueQuantity": {
          "system": "http://unitsofmeasure.org",
          "value": 105.9,
          "unit": "mmol/L",
          "code": "mmol/L"
        },
        "referenceRange": [
          {
            "low": {
              "value": 98,
              "code": "mmol/L",
              "system": "http://unitsofmeasure.org"
            }
          },
          {
            "high": {
              "value": 108,
              "code": "mmol/L",
              "system": "http://unitsofmeasure.org"
            }
          }
        ],
        "text": {
          "status": "generated",
          "div": "<div xmlns=\"http://www.w3.org/1999/xhtml\"><table class=\"hl7__eu__lab__report\"><tr><th>Test</th><th>07-Sep-2021</th><th>Reference&#xA0;Range</th><th>Unit</th></tr><tr><td>Chloride [Moles/volume] in Blood</td><td>105.9</td><td>98 - 108</td><td></td><td>mmol/L</td></tr></table></div>"
        },
        "status": "final",
        "subject": {
          "reference": "urn:uuid:c9a1554f-689f-472a-ae0c-283c65251cef",
          "display": "Meaghan Neary"
        },
        "effectiveDateTime": "2021-09-06T22:11:04Z",
        "specimen": {
          "reference": "urn:uuid:69755bf6-dd84-4767-85f8-3b435dfd7ad2"
        }
      }
    },
    {
      "fullUrl": "urn:uuid:1a1c45c8-8abc-4875-a404-4af3fc0e5dc4",
      "resource": {
        "resourceType": "Observation",
        "id": "1a1c45c8-8abc-4875-a404-4af3fc0e5dc4",
        "meta": {
          "profile": [
            "http://hl7.eu/fhir/laboratory/StructureDefinition/Observation-resultslab-eu-lab"
          ]
        },
        "performer": [
          {
            "display": "The Central European Lab"
          }
        ],
        "category": [
          {
            "coding": [
              {
                "system": "http://terminology.hl7.org/CodeSystem/observation-category",
                "code": "laboratory"
              }
            ]
          }
        ],
        "code": {
          "coding": [
            {
              "code": "20565-8",
              "system": "http://loinc.org",
              "display": "Carbon dioxide, total [Moles/volume] in Blood"
            }
          ],
          "text": "Carbon dioxide, total [Moles/volume] in Blood"
        },
        "valueQuantity": {
          "system": "http://unitsofmeasure.org",
          "value": 27.4,
          "unit": "mmol/L",
          "code": "mmol/L"
        },
        "referenceRange": [
          {
            "low": {
              "value": 22,
              "code": "mmol/L",
              "system": "http://unitsofmeasure.org"
            }
          },
          {
            "high": {
              "value": 29,
              "code": "mmol/L",
              "system": "http://unitsofmeasure.org"
            }
          }
        ],
        "text": {
          "status": "generated",
          "div": "<div xmlns=\"http://www.w3.org/1999/xhtml\"><table class=\"hl7__eu__lab__report\"><tr><th>Test</th><th>07-Sep-2021</th><th>Reference&#xA0;Range</th><th>Unit</th></tr><tr><td>Carbon dioxide, total [Moles/volume] in Blood</td><td>27.4</td><td>22 - 29</td><td></td><td>mmol/L</td></tr></table></div>"
        },
        "status": "final",
        "subject": {
          "reference": "urn:uuid:c9a1554f-689f-472a-ae0c-283c65251cef",
          "display": "Meaghan Neary"
        },
        "effectiveDateTime": "2021-09-06T22:11:04Z",
        "specimen": {
          "reference": "urn:uuid:69755bf6-dd84-4767-85f8-3b435dfd7ad2"
        }
      }
    },
    {
      "fullUrl": "urn:uuid:9bb4811b-25e8-4532-9aa8-6525f3290693",
      "resource": {
        "resourceType": "Device",
        "id": "9bb4811b-25e8-4532-9aa8-6525f3290693",
        "deviceName": [
          {
            "name": "SYNDERAI Synthetic Generator",
            "type": "manufacturer-name"
          }
        ],
        "version": [
          {
            "value": "5.0"
          }
        ],
        "text": {
          "status": "generated",
          "div": "<div xmlns=\"http://www.w3.org/1999/xhtml\">SYNDERAI Synthetic Generator v5.0</div>"
        },
        "status": "active\"",
        "distinctIdentifier": "synderai-generator-50",
        "manufacturer": "SYNDERAI Project"
      }
    },
    {
      "fullUrl": "urn:uuid:531d3b51-78d6-469d-a8c0-598260f80e12",
      "resource": {
        "resourceType": "Provenance",
        "id": "531d3b51-78d6-469d-a8c0-598260f80e12",
        "target": [
          {
            "reference": "Patient/c9a1554f-689f-472a-ae0c-283c65251cef"
          },
          {
            "reference": "Bundle/f8a2129b-7896-43e2-9cd2-17a6dd363ba0"
          },
          {
            "reference": "Composition/f8a81938-5cee-4be2-a1ca-ca3cf83275da"
          },
          {
            "reference": "PractitionerRole/d41c7a7e-b96a-47c6-9fed-4fd484779333"
          },
          {
            "reference": "Practitioner/2481a78d-b32a-40d7-8830-80a1bca17509"
          },
          {
            "reference": "PractitionerRole/4f76615a-1995-4d11-98fb-1cf7b154d267"
          },
          {
            "reference": "Organization/17d2e506-c6d9-4369-95b8-1cac8cd3d2a1"
          }
        ],
        "activity": {
          "text": "Synthetic Example Data Generation"
        },
        "policy": [
          "https://synderai.net/synderai-synthetic-data-policy"
        ],
        "agent": [
          {
            "type": {
              "text": "author"
            },
            "who": {
              "reference": "Device/9bb4811b-25e8-4532-9aa8-6525f3290693"
            }
          }
        ],
        "reason": [
          {
            "text": "Interoperability Testing and Training (non-clinical use)"
          }
        ],
        "text": {
          "status": "generated",
          "div": "<div xmlns=\"http://www.w3.org/1999/xhtml\">Provenance for SYNDERAI Synthetic Example Data Resource</div>"
        },
        "recorded": "2021-09-07T00:11:04Z"
      }
    },
    {
      "fullUrl": "urn:uuid:d41c7a7e-b96a-47c6-9fed-4fd484779333",
      "resource": {
        "resourceType": "PractitionerRole",
        "id": "d41c7a7e-b96a-47c6-9fed-4fd484779333",
        "meta": {
          "profile": [
            "http://hl7.eu/fhir/base/StructureDefinition/practitionerRole-eu"
          ]
        },
        "text": {
          "status": "generated",
          "div": "<div xmlns=\"http://www.w3.org/1999/xhtml\">Laboratory Role Id: d41c7a7e-b96a-47c6-9fed-4fd484779333</div>"
        },
        "practitioner": {
          "reference": "urn:uuid:2481a78d-b32a-40d7-8830-80a1bca17509"
        }
      }
    },
    {
      "fullUrl": "urn:uuid:2481a78d-b32a-40d7-8830-80a1bca17509",
      "resource": {
        "resourceType": "Practitioner",
        "id": "2481a78d-b32a-40d7-8830-80a1bca17509",
        "meta": {
          "profile": [
            "http://hl7.eu/fhir/base/StructureDefinition/practitioner-eu"
          ]
        },
        "identifier": [
          {
            "assigner": {
              "display": "HL7 Europe"
            },
            "system": "urn:oid:2.16.840.1.113883.2.51.999",
            "value": "98555afe-f4f0-419d-a00b-7aa17e80706e"
          }
        ],
        "name": [
          {
            "prefix": [
              "dr"
            ],
            "given": [
              "Ex"
            ],
            "family": "Ample"
          }
        ],
        "address": [
          {
            "line": [
              "Laboratoire Central Européenne",
              "Boulevard du Jardin Botanique 32"
            ],
            "postalCode": "1000",
            "city": "Brussels",
            "country": "Belgium"
          }
        ],
        "text": {
          "status": "generated",
          "div": "<div xmlns=\"http://www.w3.org/1999/xhtml\">Laboratory: Laboratoire Central Européenne, 1000 Brussels, Belgium</div>"
        }
      }
    }
  ],
  "type": "document",
  "timestamp": "2021-09-07T00:11:04Z"
}
