{
  "resourceType": "Bundle",
  "id": "16fa2039-2f63-4baf-934b-82e04b943883",
  "meta": {
    "profile": [
      "http://hl7.eu/fhir/laboratory/StructureDefinition/Bundle-eu-lab"
    ]
  },
  "identifier": {
    "assigner": {
      "display": "HL7 Europe"
    },
    "system": "urn:oid:2.16.840.1.113883.2.51.999",
    "value": "3b09cb48-3460-4bc6-bf33-37db2031beae"
  },
  "entry": [
    {
      "fullUrl": "urn:uuid:f9f388e2-70af-4651-9667-b203e1ecabbc",
      "resource": {
        "resourceType": "Composition",
        "id": "f9f388e2-70af-4651-9667-b203e1ecabbc",
        "meta": {
          "profile": [
            "http://hl7.eu/fhir/laboratory/StructureDefinition/Composition-eu-lab"
          ]
        },
        "identifier": {
          "assigner": {
            "display": "HL7 Europe"
          },
          "system": "urn:oid:2.16.840.1.113883.2.51.999",
          "value": "65ef21fc-1c1b-4251-8ca3-3f12e711bfcc"
        },
        "author": [
          {
            "reference": "urn:uuid:47ca5858-2eb9-4248-a583-4f59fc840f7c"
          }
        ],
        "category": [
          {
            "coding": [
              {
                "code": "26436-6",
                "system": "http://loinc.org",
                "display": "Laboratory studies (set)"
              }
            ]
          }
        ],
        "type": {
          "coding": [
            {
              "code": "11502-2",
              "system": "http://loinc.org",
              "display": "Laboratory report"
            }
          ],
          "text": "Laboratory Report"
        },
        "section": [
          {
            "code": {
              "coding": [
                {
                  "code": "26436-6",
                  "system": "http://loinc.org",
                  "display": "Laboratory studies (set)"
                }
              ],
              "text": "Laboratory studies"
            },
            "section": [
              {
                "code": {
                  "coding": [
                    {
                      "code": "$18719-5",
                      "system": "http://loinc.org",
                      "display": "Chemistry studies (set)"
                    }
                  ],
                  "text": "Chemistry"
                },
                "entry": [
                  {
                    "reference": "urn:uuid:4c9719ab-2b86-4f13-b03f-6e25c06138c1"
                  },
                  {
                    "reference": "urn:uuid:ad86ce39-9471-41d1-8ef8-d43c5763c3b6"
                  },
                  {
                    "reference": "urn:uuid:2befea25-f344-4836-8132-ed91f805a382"
                  },
                  {
                    "reference": "urn:uuid:6e5e86fb-5af9-46e6-a67f-74dc85ca0b95"
                  }
                ],
                "text": {
                  "status": "generated",
                  "div": "<div xmlns=\"http://www.w3.org/1999/xhtml\"><h3>Chemistry</h3><table class=\"hl7__eu__lab__report\"><thead><tr><th>Test</th><th>07-JAN-2018</th><th>Reference&#xA0;Range</th><th>Unit</th></tr></thead><tbody><tr><td>Cholesterol [Mass/volume] in Serum or Plasma</td><td><strong>121.4 L</strong></td><td>125 - 200</td><td>mg/dL</td></tr><tr><td>Triglyceride [Mass/volume] in Serum or Plasma</td><td>104.5</td><td>35 - 150</td><td>mg/dL</td></tr><tr><td>Cholesterol in LDL [Mass/volume] in Serum or Plasma by Direct assay</td><td>44.0</td><td>0 - 130</td><td>mg/dL</td></tr><tr><td>Cholesterol in HDL [Mass/volume] in Serum or Plasma</td><td>56.5</td><td>40 - 100</td><td>mg/dL</td></tr></tbody></table></div>"
                },
                "title": "Chemistry"
              }
            ],
            "title": "Laboratory Report"
          },
          {
            "text": {
              "status": "generated",
              "div": "<div xmlns=\"http://www.w3.org/1999/xhtml\"><h3>Annotation</h3><table class=\"hl7__eu__lab__report\"><tr><th>Conclusion and Recommendations based on this report and previous findings known to us</th></tr><tr><td>All lipid parameters are within or close to normal ranges, with only mildly decreased total cholesterol. LDL and HDL cholesterol, as well as triglycerides, are within normal limits. No significant dyslipidemia is present; the mildly low total cholesterol is not clinically concerning in isolation. No further action required from a laboratory perspective.</td></tr></table></div>"
            },
            "code": {
              "coding": [
                {
                  "system": "http://loinc.org",
                  "code": "48767-8",
                  "display": "Annotation comment"
                }
              ]
            },
            "title": "Annotation comment"
          }
        ],
        "status": "final",
        "subject": {
          "reference": "urn:uuid:bf2b8b2c-a3b3-4840-a8cf-c3f8ef5bcdb2",
          "display": "Gülsen Dörschner"
        },
        "date": "2018-01-07T22:09:08Z",
        "title": "Laboratory Report",
        "confidentiality": "N"
      }
    },
    {
      "fullUrl": "urn:uuid:407d684b-a5f7-4eff-8b45-124aa325abfe",
      "resource": {
        "resourceType": "DiagnosticReport",
        "id": "407d684b-a5f7-4eff-8b45-124aa325abfe",
        "meta": {
          "profile": [
            "http://hl7.eu/fhir/laboratory/StructureDefinition/DiagnosticReport-eu-lab"
          ]
        },
        "identifier": [
          {
            "assigner": {
              "display": "HL7 Europe"
            },
            "system": "urn:oid:2.16.840.1.113883.2.51.999",
            "value": "79821d11-8afe-4562-8722-7baf9cfc9773"
          }
        ],
        "extension": [
          {
            "url": "http://hl7.org/fhir/5.0/StructureDefinition/extension-DiagnosticReport.composition",
            "valueReference": {
              "reference": "urn:uuid:65ef21fc-1c1b-4251-8ca3-3f12e711bfcc"
            }
          }
        ],
        "category": [
          {
            "coding": [
              {
                "code": "26436-6",
                "system": "http://loinc.org",
                "display": "Laboratory studies (set)"
              }
            ]
          }
        ],
        "specimen": [
          {
            "reference": "urn:uuid:dc566b31-bbcc-432f-9dbd-7c4bd894340c"
          }
        ],
        "result": [
          {
            "reference": "urn:uuid:4c9719ab-2b86-4f13-b03f-6e25c06138c1"
          },
          {
            "reference": "urn:uuid:ad86ce39-9471-41d1-8ef8-d43c5763c3b6"
          },
          {
            "reference": "urn:uuid:2befea25-f344-4836-8132-ed91f805a382"
          },
          {
            "reference": "urn:uuid:6e5e86fb-5af9-46e6-a67f-74dc85ca0b95"
          }
        ],
        "status": "registered",
        "code": {
          "coding": [
            {
              "code": "11502-2",
              "system": "http://loinc.org",
              "display": "Laboratory report"
            }
          ]
        },
        "subject": {
          "reference": "urn:uuid:bf2b8b2c-a3b3-4840-a8cf-c3f8ef5bcdb2",
          "display": "Gülsen Dörschner"
        }
      }
    },
    {
      "fullUrl": "urn:uuid:bf2b8b2c-a3b3-4840-a8cf-c3f8ef5bcdb2",
      "resource": {
        "resourceType": "Patient",
        "id": "bf2b8b2c-a3b3-4840-a8cf-c3f8ef5bcdb2",
        "meta": {
          "security": [
            {
              "system": "http://terminology.hl7.org/CodeSystem/v3-ActReason",
              "code": "HTEST"
            },
            {
              "system": "http://terminology.hl7.org/CodeSystem/v3-ActReason",
              "code": "TRAIN"
            }
          ],
          "tag": [
            {
              "system": "https://synderai.net/fhir/CodeSystem/tags",
              "code": "synthetic",
              "display": "SYNDERAI Synthetic data"
            }
          ],
          "profile": [
            "http://hl7.eu/fhir/base/StructureDefinition/patient-eu-core"
          ]
        },
        "identifier": [
          {
            "type": {
              "coding": [
                {
                  "code": "PT",
                  "system": "http://terminology.hl7.org/CodeSystem/v2-0203"
                }
              ]
            },
            "system": "http://ec.europa.eu/identifier/eci",
            "value": "3549-346619-3"
          },
          {
            "type": {
              "coding": [
                {
                  "code": "MR",
                  "system": "http://terminology.hl7.org/CodeSystem/v2-0203"
                }
              ]
            },
            "system": "http://local.setting.eu/identifier",
            "value": "bcd9933a-4b4f-f81c-ee50-85330dd204e6"
          }
        ],
        "name": [
          {
            "family": "Dörschner"
          },
          {
            "given": [
              "Gülsen"
            ]
          },
          {
            "text": "Gülsen Dörschner"
          }
        ],
        "address": [
          {
            "line": [
              "Patbergplatz 571"
            ],
            "use": "home",
            "type": "physical",
            "postalCode": "56068",
            "city": "Koblenz",
            "country": "Germany"
          }
        ],
        "telecom": [
          {
            "system": "phone",
            "value": "(05189) 62305"
          }
        ],
        "extension": [
          {
            "url": "http://hl7.org/fhir/StructureDefinition/patient-nationality",
            "valueCodeableConcept": {
              "coding": [
                {
                  "code": "DE",
                  "system": "http://hl7.org/fhir/ValueSet/country"
                }
              ]
            }
          }
        ],
        "text": {
          "status": "generated",
          "div": "<div xmlns=\"http://www.w3.org/1999/xhtml\"><table class=\"hl7__ips\"><tr><td>Gülsen Dörschner</td><td>female</td><td>30-Jul-1970</td></tr></table></div>"
        },
        "gender": "female",
        "birthDate": "1970-07-30"
      }
    },
    {
      "fullUrl": "urn:uuid:c8542342-6b86-4dfc-a572-7d7361afa9ff",
      "resource": {
        "resourceType": "ServiceRequest",
        "id": "c8542342-6b86-4dfc-a572-7d7361afa9ff",
        "meta": {
          "profile": [
            "http://hl7.eu/fhir/laboratory/StructureDefinition/ServiceRequest-eu-lab"
          ]
        },
        "identifier": [
          {
            "system": "http://example.org",
            "value": "1cdd0d10-bc84-4a1a-93a6-a9228a99d41c"
          }
        ],
        "specimen": [
          {
            "reference": "urn:uuid:dc566b31-bbcc-432f-9dbd-7c4bd894340c"
          }
        ],
        "reasonCode": [
          {
            "coding": [
              {
                "code": "239873007",
                "system": "http://snomed.info/sct",
                "display": "Osteoarthritis of knee"
              }
            ]
          },
          {
            "coding": [
              {
                "code": "87433001",
                "system": "http://snomed.info/sct",
                "display": "Pulmonary emphysema"
              }
            ]
          },
          {
            "coding": [
              {
                "code": "271737000",
                "system": "http://snomed.info/sct",
                "display": "Anemia"
              }
            ]
          },
          {
            "coding": [
              {
                "code": "59621000",
                "system": "http://snomed.info/sct",
                "display": "Essential hypertension"
              }
            ]
          }
        ],
        "status": "active",
        "intent": "order",
        "code": {
          "coding": [
            {
              "code": "108252007",
              "system": "http://snomed.info/sct",
              "display": "Laboratory procedure"
            }
          ]
        },
        "subject": {
          "reference": "urn:uuid:bf2b8b2c-a3b3-4840-a8cf-c3f8ef5bcdb2",
          "display": "Gülsen Dörschner"
        },
        "requester": {
          "reference": "urn:uuid:578d1d0b-89e5-4f04-bb2e-38e9eebaf885"
        }
      }
    },
    {
      "fullUrl": "urn:uuid:578d1d0b-89e5-4f04-bb2e-38e9eebaf885",
      "resource": {
        "resourceType": "PractitionerRole",
        "id": "578d1d0b-89e5-4f04-bb2e-38e9eebaf885",
        "meta": {
          "profile": [
            "http://hl7.eu/fhir/base/StructureDefinition/practitionerRole-eu"
          ]
        },
        "text": {
          "status": "generated",
          "div": "<div xmlns=\"http://www.w3.org/1999/xhtml\">Provider Role Id: 578d1d0b-89e5-4f04-bb2e-38e9eebaf885</div>"
        },
        "organization": {
          "reference": "urn:uuid:164b0b89-bf89-4b4a-89af-20811704b75a"
        }
      }
    },
    {
      "fullUrl": "urn:uuid:164b0b89-bf89-4b4a-89af-20811704b75a",
      "resource": {
        "resourceType": "Organization",
        "id": "164b0b89-bf89-4b4a-89af-20811704b75a",
        "meta": {
          "profile": [
            "http://hl7.eu/fhir/base/StructureDefinition/organization-eu"
          ]
        },
        "identifier": [
          {
            "assigner": {
              "display": "HL7 Europe"
            },
            "system": "urn:oid:2.16.840.1.113883.2.51.999",
            "value": "17d67562-4dd0-4a7a-b517-d95a0d343e2f"
          }
        ],
        "address": [
          {
            "line": [
              "Kardinal-Krementz-Straße 1-5"
            ],
            "city": "Koblenz",
            "postalCode": "56068",
            "country": "Germany"
          }
        ],
        "text": {
          "status": "generated",
          "div": "<div xmlns=\"http://www.w3.org/1999/xhtml\">Provider Organization: Brüderhaus Koblenz</div>"
        },
        "name": "Brüderhaus Koblenz"
      }
    },
    {
      "fullUrl": "urn:uuid:dc566b31-bbcc-432f-9dbd-7c4bd894340c",
      "resource": {
        "resourceType": "Specimen",
        "id": "dc566b31-bbcc-432f-9dbd-7c4bd894340c",
        "meta": {
          "profile": [
            "http://hl7.eu/fhir/laboratory/StructureDefinition/Specimen-eu-lab"
          ]
        },
        "collection": {
          "collectedDateTime": "2018-01-07"
        },
        "text": {
          "status": "generated",
          "div": "<div xmlns=\"http://www.w3.org/1999/xhtml\"><table class=\"hl7__eu__lab__report\"><tr><th>Specimen</th><th>Collection Date</th></tr><tr><td>Acellular blood (serum or plasma) specimen</td><td><span class=\"nb\">07-Jan-2018</span></td></tr></table></div>"
        },
        "type": {
          "coding": [
            {
              "code": "122592007",
              "system": "http://snomed.info/sct",
              "display": "Acellular blood (serum or plasma) specimen"
            }
          ]
        }
      }
    },
    {
      "fullUrl": "urn:uuid:4c9719ab-2b86-4f13-b03f-6e25c06138c1",
      "resource": {
        "resourceType": "Observation",
        "id": "4c9719ab-2b86-4f13-b03f-6e25c06138c1",
        "meta": {
          "profile": [
            "http://hl7.eu/fhir/laboratory/StructureDefinition/Observation-resultslab-eu-lab"
          ]
        },
        "performer": [
          {
            "display": "The Central European Lab"
          }
        ],
        "category": [
          {
            "coding": [
              {
                "system": "http://terminology.hl7.org/CodeSystem/observation-category",
                "code": "laboratory"
              }
            ]
          }
        ],
        "code": {
          "coding": [
            {
              "code": "2093-3",
              "system": "http://loinc.org",
              "display": "Cholesterol [Mass/volume] in Serum or Plasma"
            }
          ],
          "text": "Cholesterol [Mass/volume] in Serum or Plasma"
        },
        "valueQuantity": {
          "system": "http://unitsofmeasure.org",
          "value": 121.4,
          "unit": "mg/dL",
          "code": "mg/dL"
        },
        "referenceRange": [
          {
            "low": {
              "value": 125,
              "code": "mg/dL",
              "system": "http://unitsofmeasure.org"
            }
          },
          {
            "high": {
              "value": 200,
              "code": "mg/dL",
              "system": "http://unitsofmeasure.org"
            }
          }
        ],
        "interpretation": [
          {
            "coding": [
              {
                "code": "L",
                "system": "http://terminology.hl7.org/CodeSystem/v3-ObservationInterpretation",
                "display": "Low"
              }
            ]
          }
        ],
        "text": {
          "status": "generated",
          "div": "<div xmlns=\"http://www.w3.org/1999/xhtml\"><table class=\"hl7__eu__lab__report\"><tr><th>Test</th><th>07-Jan-2018</th><th>Reference&#xA0;Range</th><th>Unit</th></tr><tr><td>Cholesterol [Mass/volume] in Serum or Plasma</td><td>121.4</td><td>125 - 200</td><td>L</td><td>mg/dL</td></tr></table></div>"
        },
        "status": "final",
        "subject": {
          "reference": "urn:uuid:bf2b8b2c-a3b3-4840-a8cf-c3f8ef5bcdb2",
          "display": "Gülsen Dörschner"
        },
        "effectiveDateTime": "2018-01-07T21:09:08Z",
        "specimen": {
          "reference": "urn:uuid:dc566b31-bbcc-432f-9dbd-7c4bd894340c"
        }
      }
    },
    {
      "fullUrl": "urn:uuid:ad86ce39-9471-41d1-8ef8-d43c5763c3b6",
      "resource": {
        "resourceType": "Observation",
        "id": "ad86ce39-9471-41d1-8ef8-d43c5763c3b6",
        "meta": {
          "profile": [
            "http://hl7.eu/fhir/laboratory/StructureDefinition/Observation-resultslab-eu-lab"
          ]
        },
        "performer": [
          {
            "display": "The Central European Lab"
          }
        ],
        "category": [
          {
            "coding": [
              {
                "system": "http://terminology.hl7.org/CodeSystem/observation-category",
                "code": "laboratory"
              }
            ]
          }
        ],
        "code": {
          "coding": [
            {
              "code": "2571-8",
              "system": "http://loinc.org",
              "display": "Triglyceride [Mass/volume] in Serum or Plasma"
            }
          ],
          "text": "Triglyceride [Mass/volume] in Serum or Plasma"
        },
        "valueQuantity": {
          "system": "http://unitsofmeasure.org",
          "value": 104.5,
          "unit": "mg/dL",
          "code": "mg/dL"
        },
        "referenceRange": [
          {
            "low": {
              "value": 35,
              "code": "mg/dL",
              "system": "http://unitsofmeasure.org"
            }
          },
          {
            "high": {
              "value": 150,
              "code": "mg/dL",
              "system": "http://unitsofmeasure.org"
            }
          }
        ],
        "text": {
          "status": "generated",
          "div": "<div xmlns=\"http://www.w3.org/1999/xhtml\"><table class=\"hl7__eu__lab__report\"><tr><th>Test</th><th>07-Jan-2018</th><th>Reference&#xA0;Range</th><th>Unit</th></tr><tr><td>Triglyceride [Mass/volume] in Serum or Plasma</td><td>104.5</td><td>35 - 150</td><td></td><td>mg/dL</td></tr></table></div>"
        },
        "status": "final",
        "subject": {
          "reference": "urn:uuid:bf2b8b2c-a3b3-4840-a8cf-c3f8ef5bcdb2",
          "display": "Gülsen Dörschner"
        },
        "effectiveDateTime": "2018-01-07T21:09:08Z",
        "specimen": {
          "reference": "urn:uuid:dc566b31-bbcc-432f-9dbd-7c4bd894340c"
        }
      }
    },
    {
      "fullUrl": "urn:uuid:2befea25-f344-4836-8132-ed91f805a382",
      "resource": {
        "resourceType": "Observation",
        "id": "2befea25-f344-4836-8132-ed91f805a382",
        "meta": {
          "profile": [
            "http://hl7.eu/fhir/laboratory/StructureDefinition/Observation-resultslab-eu-lab"
          ]
        },
        "performer": [
          {
            "display": "The Central European Lab"
          }
        ],
        "category": [
          {
            "coding": [
              {
                "system": "http://terminology.hl7.org/CodeSystem/observation-category",
                "code": "laboratory"
              }
            ]
          }
        ],
        "code": {
          "coding": [
            {
              "code": "18262-6",
              "system": "http://loinc.org",
              "display": "Cholesterol in LDL [Mass/volume] in Serum or Plasma by Direct assay"
            }
          ],
          "text": "Cholesterol in LDL [Mass/volume] in Serum or Plasma by Direct assay"
        },
        "valueQuantity": {
          "system": "http://unitsofmeasure.org",
          "value": 44,
          "unit": "mg/dL",
          "code": "mg/dL"
        },
        "referenceRange": [
          {
            "low": {
              "value": 0,
              "code": "mg/dL",
              "system": "http://unitsofmeasure.org"
            }
          },
          {
            "high": {
              "value": 130,
              "code": "mg/dL",
              "system": "http://unitsofmeasure.org"
            }
          }
        ],
        "text": {
          "status": "generated",
          "div": "<div xmlns=\"http://www.w3.org/1999/xhtml\"><table class=\"hl7__eu__lab__report\"><tr><th>Test</th><th>07-Jan-2018</th><th>Reference&#xA0;Range</th><th>Unit</th></tr><tr><td>Cholesterol in LDL [Mass/volume] in Serum or Plasma by Direct assay</td><td>44.0</td><td>0 - 130</td><td></td><td>mg/dL</td></tr></table></div>"
        },
        "status": "final",
        "subject": {
          "reference": "urn:uuid:bf2b8b2c-a3b3-4840-a8cf-c3f8ef5bcdb2",
          "display": "Gülsen Dörschner"
        },
        "effectiveDateTime": "2018-01-07T21:09:08Z",
        "specimen": {
          "reference": "urn:uuid:dc566b31-bbcc-432f-9dbd-7c4bd894340c"
        }
      }
    },
    {
      "fullUrl": "urn:uuid:6e5e86fb-5af9-46e6-a67f-74dc85ca0b95",
      "resource": {
        "resourceType": "Observation",
        "id": "6e5e86fb-5af9-46e6-a67f-74dc85ca0b95",
        "meta": {
          "profile": [
            "http://hl7.eu/fhir/laboratory/StructureDefinition/Observation-resultslab-eu-lab"
          ]
        },
        "performer": [
          {
            "display": "The Central European Lab"
          }
        ],
        "category": [
          {
            "coding": [
              {
                "system": "http://terminology.hl7.org/CodeSystem/observation-category",
                "code": "laboratory"
              }
            ]
          }
        ],
        "code": {
          "coding": [
            {
              "code": "2085-9",
              "system": "http://loinc.org",
              "display": "Cholesterol in HDL [Mass/volume] in Serum or Plasma"
            }
          ],
          "text": "Cholesterol in HDL [Mass/volume] in Serum or Plasma"
        },
        "valueQuantity": {
          "system": "http://unitsofmeasure.org",
          "value": 56.5,
          "unit": "mg/dL",
          "code": "mg/dL"
        },
        "referenceRange": [
          {
            "low": {
              "value": 40,
              "code": "mg/dL",
              "system": "http://unitsofmeasure.org"
            }
          },
          {
            "high": {
              "value": 100,
              "code": "mg/dL",
              "system": "http://unitsofmeasure.org"
            }
          }
        ],
        "text": {
          "status": "generated",
          "div": "<div xmlns=\"http://www.w3.org/1999/xhtml\"><table class=\"hl7__eu__lab__report\"><tr><th>Test</th><th>07-Jan-2018</th><th>Reference&#xA0;Range</th><th>Unit</th></tr><tr><td>Cholesterol in HDL [Mass/volume] in Serum or Plasma</td><td>56.5</td><td>40 - 100</td><td></td><td>mg/dL</td></tr></table></div>"
        },
        "status": "final",
        "subject": {
          "reference": "urn:uuid:bf2b8b2c-a3b3-4840-a8cf-c3f8ef5bcdb2",
          "display": "Gülsen Dörschner"
        },
        "effectiveDateTime": "2018-01-07T21:09:08Z",
        "specimen": {
          "reference": "urn:uuid:dc566b31-bbcc-432f-9dbd-7c4bd894340c"
        }
      }
    },
    {
      "fullUrl": "urn:uuid:0c961b7f-4599-4662-aa29-c5b300708a44",
      "resource": {
        "resourceType": "Device",
        "id": "0c961b7f-4599-4662-aa29-c5b300708a44",
        "deviceName": [
          {
            "name": "SYNDERAI Synthetic Generator",
            "type": "manufacturer-name"
          }
        ],
        "version": [
          {
            "value": "5.0"
          }
        ],
        "text": {
          "status": "generated",
          "div": "<div xmlns=\"http://www.w3.org/1999/xhtml\">SYNDERAI Synthetic Generator v5.0</div>"
        },
        "status": "active\"",
        "distinctIdentifier": "synderai-generator-50",
        "manufacturer": "SYNDERAI Project"
      }
    },
    {
      "fullUrl": "urn:uuid:2f45c45d-930c-43c7-b319-0faa9d813c93",
      "resource": {
        "resourceType": "Provenance",
        "id": "2f45c45d-930c-43c7-b319-0faa9d813c93",
        "target": [
          {
            "reference": "Patient/bf2b8b2c-a3b3-4840-a8cf-c3f8ef5bcdb2"
          },
          {
            "reference": "Bundle/16fa2039-2f63-4baf-934b-82e04b943883"
          },
          {
            "reference": "Composition/f9f388e2-70af-4651-9667-b203e1ecabbc"
          },
          {
            "reference": "PractitionerRole/47ca5858-2eb9-4248-a583-4f59fc840f7c"
          },
          {
            "reference": "Practitioner/2e446dca-529f-4eca-b24b-dcc3131b4a0a"
          },
          {
            "reference": "PractitionerRole/578d1d0b-89e5-4f04-bb2e-38e9eebaf885"
          },
          {
            "reference": "Organization/164b0b89-bf89-4b4a-89af-20811704b75a"
          }
        ],
        "activity": {
          "text": "Synthetic Example Data Generation"
        },
        "policy": [
          "https://synderai.net/synderai-synthetic-data-policy"
        ],
        "agent": [
          {
            "type": {
              "text": "author"
            },
            "who": {
              "reference": "Device/0c961b7f-4599-4662-aa29-c5b300708a44"
            }
          }
        ],
        "reason": [
          {
            "text": "Interoperability Testing and Training (non-clinical use)"
          }
        ],
        "text": {
          "status": "generated",
          "div": "<div xmlns=\"http://www.w3.org/1999/xhtml\">Provenance for SYNDERAI Synthetic Example Data Resource</div>"
        },
        "recorded": "2018-01-07T22:09:08Z"
      }
    },
    {
      "fullUrl": "urn:uuid:47ca5858-2eb9-4248-a583-4f59fc840f7c",
      "resource": {
        "resourceType": "PractitionerRole",
        "id": "47ca5858-2eb9-4248-a583-4f59fc840f7c",
        "meta": {
          "profile": [
            "http://hl7.eu/fhir/base/StructureDefinition/practitionerRole-eu"
          ]
        },
        "text": {
          "status": "generated",
          "div": "<div xmlns=\"http://www.w3.org/1999/xhtml\">Laboratory Role Id: 47ca5858-2eb9-4248-a583-4f59fc840f7c</div>"
        },
        "practitioner": {
          "reference": "urn:uuid:2e446dca-529f-4eca-b24b-dcc3131b4a0a"
        }
      }
    },
    {
      "fullUrl": "urn:uuid:2e446dca-529f-4eca-b24b-dcc3131b4a0a",
      "resource": {
        "resourceType": "Practitioner",
        "id": "2e446dca-529f-4eca-b24b-dcc3131b4a0a",
        "meta": {
          "profile": [
            "http://hl7.eu/fhir/base/StructureDefinition/practitioner-eu"
          ]
        },
        "identifier": [
          {
            "assigner": {
              "display": "HL7 Europe"
            },
            "system": "urn:oid:2.16.840.1.113883.2.51.999",
            "value": "ae876ae2-b1af-4bbf-9e14-6613ef286cb1"
          }
        ],
        "name": [
          {
            "prefix": [
              "dr"
            ],
            "given": [
              "Ex"
            ],
            "family": "Ample"
          }
        ],
        "address": [
          {
            "line": [
              "Laboratoire Central Européenne",
              "Boulevard du Jardin Botanique 32"
            ],
            "postalCode": "1000",
            "city": "Brussels",
            "country": "Belgium"
          }
        ],
        "text": {
          "status": "generated",
          "div": "<div xmlns=\"http://www.w3.org/1999/xhtml\">Laboratory: Laboratoire Central Européenne, 1000 Brussels, Belgium</div>"
        }
      }
    }
  ],
  "type": "document",
  "timestamp": "2018-01-07T22:09:08Z"
}
