{
  "resourceType": "Bundle",
  "id": "97b064fc-a0c5-46b1-b2c0-b654a11eb3d6",
  "meta": {
    "profile": [
      "http://hl7.eu/fhir/laboratory/StructureDefinition/Bundle-eu-lab"
    ]
  },
  "identifier": {
    "assigner": {
      "display": "HL7 Europe"
    },
    "system": "urn:oid:2.16.840.1.113883.2.51.999",
    "value": "a6c746bd-fd01-4215-8274-86a15c0c9e21"
  },
  "entry": [
    {
      "fullUrl": "urn:uuid:0e453200-1ecb-49e1-985e-3081f81d8920",
      "resource": {
        "resourceType": "Composition",
        "id": "0e453200-1ecb-49e1-985e-3081f81d8920",
        "meta": {
          "profile": [
            "http://hl7.eu/fhir/laboratory/StructureDefinition/Composition-eu-lab"
          ]
        },
        "identifier": {
          "assigner": {
            "display": "HL7 Europe"
          },
          "system": "urn:oid:2.16.840.1.113883.2.51.999",
          "value": "ad685190-4627-403e-b247-a119218fb30e"
        },
        "author": [
          {
            "reference": "urn:uuid:d6604f69-7124-448f-89b3-edfa9c351e4f"
          }
        ],
        "category": [
          {
            "coding": [
              {
                "code": "26436-6",
                "system": "http://loinc.org",
                "display": "Laboratory studies (set)"
              }
            ]
          }
        ],
        "type": {
          "coding": [
            {
              "code": "11502-2",
              "system": "http://loinc.org",
              "display": "Laboratory report"
            }
          ],
          "text": "Laboratory Report"
        },
        "section": [
          {
            "code": {
              "coding": [
                {
                  "code": "26436-6",
                  "system": "http://loinc.org",
                  "display": "Laboratory studies (set)"
                }
              ],
              "text": "Laboratory studies"
            },
            "section": [
              {
                "code": {
                  "coding": [
                    {
                      "code": "$18719-5",
                      "system": "http://loinc.org",
                      "display": "Chemistry studies (set)"
                    }
                  ],
                  "text": "Chemistry"
                },
                "entry": [
                  {
                    "reference": "urn:uuid:7bb59e42-0c07-4581-b9a1-3dd1f6c93761"
                  },
                  {
                    "reference": "urn:uuid:820915ea-5a3b-44cc-9582-22ab815657ee"
                  },
                  {
                    "reference": "urn:uuid:f0a624ee-85b3-4d5d-b899-3162c8ff0f31"
                  },
                  {
                    "reference": "urn:uuid:d3a42f11-4639-4c62-a7da-fc937ff89cf8"
                  },
                  {
                    "reference": "urn:uuid:5f8295a7-8260-4aa4-8f6e-17a2610bfd01"
                  },
                  {
                    "reference": "urn:uuid:ade70157-33dc-49b5-ae05-a92b2f2b8b95"
                  },
                  {
                    "reference": "urn:uuid:a5aef366-dc70-487f-b16d-cf358a2caf3f"
                  },
                  {
                    "reference": "urn:uuid:ff534f75-d4d7-4090-a670-4ccc6ac374f3"
                  },
                  {
                    "reference": "urn:uuid:226fa758-b416-4273-8d20-4d239b94493a"
                  },
                  {
                    "reference": "urn:uuid:57ff3ffb-02b1-4f8e-9168-9657675e175e"
                  },
                  {
                    "reference": "urn:uuid:e3e107e8-5f51-4bd9-9d87-72ce00e566cf"
                  },
                  {
                    "reference": "urn:uuid:95502205-f5dc-48ff-902d-916605d70dcb"
                  },
                  {
                    "reference": "urn:uuid:ff289f68-f8f9-45b2-bfaa-4aaaa08f55e9"
                  },
                  {
                    "reference": "urn:uuid:3f92e098-4cd4-435c-8d1c-cdbc61102820"
                  },
                  {
                    "reference": "urn:uuid:e003b56a-3b57-4a0f-a00d-b032a5a7b6be"
                  },
                  {
                    "reference": "urn:uuid:a0914cfc-5fce-49a0-9d9c-ce8d66b9e1e7"
                  },
                  {
                    "reference": "urn:uuid:9d73e433-1c35-44ca-a86b-7d71dd7f4e1a"
                  },
                  {
                    "reference": "urn:uuid:34704482-d2ad-4ad6-90ca-5b5f2cde8c93"
                  },
                  {
                    "reference": "urn:uuid:a71829d2-94ef-48d9-914a-b43be04f2da8"
                  }
                ],
                "text": {
                  "status": "generated",
                  "div": "<div xmlns=\"http://www.w3.org/1999/xhtml\"><h3>Chemistry</h3><table class=\"hl7__eu__lab__report\"><thead><tr><th>Test</th><th>17-FEB-2017</th><th>Reference&#xA0;Range</th><th>Unit</th></tr></thead><tbody><tr><td>Glucose [Mass/volume] in Blood</td><td>83.7</td><td>70 - 99</td><td>mg/dL</td></tr><tr><td>Urea nitrogen [Mass/volume] in Blood</td><td>9.9</td><td>7 - 45</td><td>mg/dL</td></tr><tr><td>Creatinine [Mass/volume] in Blood</td><td><strong>3.5 H</strong></td><td>0.6 - 1.1</td><td>mg/dL</td></tr><tr><td>Calcium [Mass/volume] in Blood</td><td>9.9</td><td>8.5 - 10.4</td><td>mg/dL</td></tr><tr><td>Sodium [Moles/volume] in Blood</td><td>143.5</td><td>135 - 145</td><td>mmol/L</td></tr><tr><td>Potassium [Moles/volume] in Blood</td><td>4.2</td><td>3.5 - 5.1</td><td>mmol/L</td></tr><tr><td>Chloride [Moles/volume] in Blood</td><td>106.6</td><td>98 - 110</td><td>mmol/L</td></tr><tr><td>Carbon dioxide, total [Moles/volume] in Blood</td><td>27.0</td><td>22 - 29</td><td>mmol/L</td></tr><tr><td>Protein [Mass/volume] in Serum or Plasma</td><td>7.6</td><td>6 - 8.3</td><td>g/dL</td></tr><tr><td>Albumin [Mass/volume] in Serum or Plasma</td><td>5.2</td><td>3.5 - 5.5</td><td>g/dL</td></tr><tr><td>Globulin [Mass/volume] in Serum by calculation</td><td>2.9</td><td>2 - 3.5</td><td>g/L</td></tr><tr><td>Bilirubin.total [Mass/volume] in Serum or Plasma</td><td>1.0</td><td>0.3 - 1.2</td><td>mg/dL</td></tr><tr><td>Alkaline phosphatase [Enzymatic activity/volume] in Serum or Plasma</td><td>115.6</td><td>44 - 130</td><td>U/L</td></tr><tr><td>Alanine aminotransferase [Enzymatic activity/volume] in Serum or Plasma</td><td>28.0</td><td>7 - 33</td><td>U/L</td></tr><tr><td>Aspartate aminotransferase [Enzymatic activity/volume] in Serum or Plasma</td><td>34.0</td><td>10 - 40</td><td>U/L</td></tr><tr><td>Cholesterol [Mass/volume] in Serum or Plasma</td><td>165.0</td><td>125 - 200</td><td>mg/dL</td></tr><tr><td>Triglyceride [Mass/volume] in Serum or Plasma</td><td>158.8</td><td>10 - 175</td><td>mg/dL</td></tr><tr><td>Cholesterol in LDL [Mass/volume] in Serum or Plasma by Direct assay</td><td><strong>134.5 H</strong></td><td>0 - 130</td><td>mg/dL</td></tr><tr><td>Cholesterol in HDL [Mass/volume] in Serum or Plasma</td><td>55.9</td><td>40 - 100</td><td>mg/dL</td></tr></tbody></table></div>"
                },
                "title": "Chemistry"
              }
            ],
            "title": "Laboratory Report"
          },
          {
            "text": {
              "status": "generated",
              "div": "<div xmlns=\"http://www.w3.org/1999/xhtml\"><h3>Annotation</h3><table class=\"hl7__eu__lab__report\"><tr><th>Conclusion and Recommendations based on this report and previous findings known to us</th></tr><tr><td>The patient shows significantly elevated creatinine, indicating impaired renal function, and mildly elevated LDL cholesterol, suggesting increased cardiovascular risk. All other parameters, including glucose, electrolytes, liver enzymes, and proteins, are within normal limits. Renal function should be further evaluated and cardiovascular risk factors addressed.</td></tr></table></div>"
            },
            "code": {
              "coding": [
                {
                  "system": "http://loinc.org",
                  "code": "48767-8",
                  "display": "Annotation comment"
                }
              ]
            },
            "title": "Annotation comment"
          }
        ],
        "status": "final",
        "subject": {
          "reference": "urn:uuid:c09a24ab-f1a9-4d16-b605-1fa3fc118765",
          "display": "Marthe Gallet"
        },
        "date": "2017-02-17T20:05:43Z",
        "title": "Laboratory Report",
        "confidentiality": "N"
      }
    },
    {
      "fullUrl": "urn:uuid:a7036983-bde6-4da4-bd07-b26a3d9c5890",
      "resource": {
        "resourceType": "DiagnosticReport",
        "id": "a7036983-bde6-4da4-bd07-b26a3d9c5890",
        "meta": {
          "profile": [
            "http://hl7.eu/fhir/laboratory/StructureDefinition/DiagnosticReport-eu-lab"
          ]
        },
        "identifier": [
          {
            "assigner": {
              "display": "HL7 Europe"
            },
            "system": "urn:oid:2.16.840.1.113883.2.51.999",
            "value": "7ce50881-036b-4ddd-912a-3d577c59ae38"
          }
        ],
        "extension": [
          {
            "url": "http://hl7.org/fhir/5.0/StructureDefinition/extension-DiagnosticReport.composition",
            "valueReference": {
              "reference": "urn:uuid:ad685190-4627-403e-b247-a119218fb30e"
            }
          }
        ],
        "category": [
          {
            "coding": [
              {
                "code": "26436-6",
                "system": "http://loinc.org",
                "display": "Laboratory studies (set)"
              }
            ]
          }
        ],
        "specimen": [
          {
            "reference": "urn:uuid:089d3946-0e5c-4a21-8fb3-cc672ec74ec6"
          },
          {
            "reference": "urn:uuid:a14d57b4-166d-4edb-b869-1257cbadebb6"
          },
          {
            "reference": "urn:uuid:f59588f7-d350-4af0-a62f-bedc2b4a90d9"
          }
        ],
        "result": [
          {
            "reference": "urn:uuid:7bb59e42-0c07-4581-b9a1-3dd1f6c93761"
          },
          {
            "reference": "urn:uuid:820915ea-5a3b-44cc-9582-22ab815657ee"
          },
          {
            "reference": "urn:uuid:f0a624ee-85b3-4d5d-b899-3162c8ff0f31"
          },
          {
            "reference": "urn:uuid:d3a42f11-4639-4c62-a7da-fc937ff89cf8"
          },
          {
            "reference": "urn:uuid:5f8295a7-8260-4aa4-8f6e-17a2610bfd01"
          },
          {
            "reference": "urn:uuid:ade70157-33dc-49b5-ae05-a92b2f2b8b95"
          },
          {
            "reference": "urn:uuid:a5aef366-dc70-487f-b16d-cf358a2caf3f"
          },
          {
            "reference": "urn:uuid:ff534f75-d4d7-4090-a670-4ccc6ac374f3"
          },
          {
            "reference": "urn:uuid:226fa758-b416-4273-8d20-4d239b94493a"
          },
          {
            "reference": "urn:uuid:57ff3ffb-02b1-4f8e-9168-9657675e175e"
          },
          {
            "reference": "urn:uuid:e3e107e8-5f51-4bd9-9d87-72ce00e566cf"
          },
          {
            "reference": "urn:uuid:95502205-f5dc-48ff-902d-916605d70dcb"
          },
          {
            "reference": "urn:uuid:ff289f68-f8f9-45b2-bfaa-4aaaa08f55e9"
          },
          {
            "reference": "urn:uuid:3f92e098-4cd4-435c-8d1c-cdbc61102820"
          },
          {
            "reference": "urn:uuid:e003b56a-3b57-4a0f-a00d-b032a5a7b6be"
          },
          {
            "reference": "urn:uuid:a0914cfc-5fce-49a0-9d9c-ce8d66b9e1e7"
          },
          {
            "reference": "urn:uuid:9d73e433-1c35-44ca-a86b-7d71dd7f4e1a"
          },
          {
            "reference": "urn:uuid:34704482-d2ad-4ad6-90ca-5b5f2cde8c93"
          },
          {
            "reference": "urn:uuid:a71829d2-94ef-48d9-914a-b43be04f2da8"
          }
        ],
        "status": "registered",
        "code": {
          "coding": [
            {
              "code": "11502-2",
              "system": "http://loinc.org",
              "display": "Laboratory report"
            }
          ]
        },
        "subject": {
          "reference": "urn:uuid:c09a24ab-f1a9-4d16-b605-1fa3fc118765",
          "display": "Marthe Gallet"
        }
      }
    },
    {
      "fullUrl": "urn:uuid:c09a24ab-f1a9-4d16-b605-1fa3fc118765",
      "resource": {
        "resourceType": "Patient",
        "id": "c09a24ab-f1a9-4d16-b605-1fa3fc118765",
        "meta": {
          "security": [
            {
              "system": "http://terminology.hl7.org/CodeSystem/v3-ActReason",
              "code": "HTEST"
            },
            {
              "system": "http://terminology.hl7.org/CodeSystem/v3-ActReason",
              "code": "TRAIN"
            }
          ],
          "tag": [
            {
              "system": "https://synderai.net/fhir/CodeSystem/tags",
              "code": "synthetic",
              "display": "SYNDERAI Synthetic data"
            }
          ],
          "profile": [
            "http://hl7.eu/fhir/base/StructureDefinition/patient-eu-core"
          ]
        },
        "identifier": [
          {
            "type": {
              "coding": [
                {
                  "code": "PT",
                  "system": "http://terminology.hl7.org/CodeSystem/v2-0203"
                }
              ]
            },
            "system": "http://ec.europa.eu/identifier/eci",
            "value": "9444-947487-6"
          },
          {
            "type": {
              "coding": [
                {
                  "code": "MR",
                  "system": "http://terminology.hl7.org/CodeSystem/v2-0203"
                }
              ]
            },
            "system": "http://local.setting.eu/identifier",
            "value": "854228d5-a476-2d9c-a1d7-c3202375a617"
          }
        ],
        "name": [
          {
            "family": "Gallet"
          },
          {
            "given": [
              "Marthe"
            ]
          },
          {
            "text": "Marthe Gallet"
          }
        ],
        "address": [
          {
            "line": [
              "3, rue Emmanuel Goncalves"
            ],
            "use": "home",
            "type": "physical",
            "postalCode": "49490",
            "city": "Briand",
            "country": "France"
          }
        ],
        "telecom": [
          {
            "system": "phone",
            "value": "+33 1 70 99 82 74"
          }
        ],
        "extension": [
          {
            "url": "http://hl7.org/fhir/StructureDefinition/patient-nationality",
            "valueCodeableConcept": {
              "coding": [
                {
                  "code": "FR",
                  "system": "http://hl7.org/fhir/ValueSet/country"
                }
              ]
            }
          }
        ],
        "text": {
          "status": "generated",
          "div": "<div xmlns=\"http://www.w3.org/1999/xhtml\"><table class=\"hl7__ips\"><tr><td>Marthe Gallet</td><td>female</td><td>29-Oct-1950</td></tr></table></div>"
        },
        "gender": "female",
        "birthDate": "1950-10-29"
      }
    },
    {
      "fullUrl": "urn:uuid:4d963a0c-6b87-4710-8146-f1f4dc59c1a3",
      "resource": {
        "resourceType": "ServiceRequest",
        "id": "4d963a0c-6b87-4710-8146-f1f4dc59c1a3",
        "meta": {
          "profile": [
            "http://hl7.eu/fhir/laboratory/StructureDefinition/ServiceRequest-eu-lab"
          ]
        },
        "identifier": [
          {
            "system": "http://example.org",
            "value": "6cc6bba3-653a-4f2c-8880-3ddc29b9b9d5"
          }
        ],
        "specimen": [
          {
            "reference": "urn:uuid:089d3946-0e5c-4a21-8fb3-cc672ec74ec6"
          },
          {
            "reference": "urn:uuid:a14d57b4-166d-4edb-b869-1257cbadebb6"
          },
          {
            "reference": "urn:uuid:f59588f7-d350-4af0-a62f-bedc2b4a90d9"
          }
        ],
        "reasonCode": [
          {
            "coding": [
              {
                "code": "431856006",
                "system": "http://snomed.info/sct",
                "display": "Chronic kidney disease stage 2"
              }
            ]
          },
          {
            "coding": [
              {
                "code": "90781000119102",
                "system": "http://snomed.info/sct",
                "display": "Microalbuminuria due to type 2 diabetes mellitus"
              }
            ]
          },
          {
            "coding": [
              {
                "code": "127013003",
                "system": "http://snomed.info/sct",
                "display": "Disorder of kidney due to diabetes mellitus"
              }
            ]
          },
          {
            "coding": [
              {
                "code": "431855005",
                "system": "http://snomed.info/sct",
                "display": "Chronic kidney disease stage 1"
              }
            ]
          },
          {
            "coding": [
              {
                "code": "55822004",
                "system": "http://snomed.info/sct",
                "display": "Hyperlipidemia"
              }
            ]
          },
          {
            "coding": [
              {
                "code": "59621000",
                "system": "http://snomed.info/sct",
                "display": "Essential hypertension"
              }
            ]
          }
        ],
        "status": "active",
        "intent": "order",
        "code": {
          "coding": [
            {
              "code": "108252007",
              "system": "http://snomed.info/sct",
              "display": "Laboratory procedure"
            }
          ]
        },
        "subject": {
          "reference": "urn:uuid:c09a24ab-f1a9-4d16-b605-1fa3fc118765",
          "display": "Marthe Gallet"
        },
        "requester": {
          "reference": "urn:uuid:1f0f45d9-6130-43cb-9641-20a1dbeb2c53"
        }
      }
    },
    {
      "fullUrl": "urn:uuid:1f0f45d9-6130-43cb-9641-20a1dbeb2c53",
      "resource": {
        "resourceType": "PractitionerRole",
        "id": "1f0f45d9-6130-43cb-9641-20a1dbeb2c53",
        "meta": {
          "profile": [
            "http://hl7.eu/fhir/base/StructureDefinition/practitionerRole-eu"
          ]
        },
        "text": {
          "status": "generated",
          "div": "<div xmlns=\"http://www.w3.org/1999/xhtml\">Provider Role Id: 1f0f45d9-6130-43cb-9641-20a1dbeb2c53</div>"
        },
        "organization": {
          "reference": "urn:uuid:8c55675d-e717-491a-9354-57ce00f0d4ad"
        }
      }
    },
    {
      "fullUrl": "urn:uuid:8c55675d-e717-491a-9354-57ce00f0d4ad",
      "resource": {
        "resourceType": "Organization",
        "id": "8c55675d-e717-491a-9354-57ce00f0d4ad",
        "meta": {
          "profile": [
            "http://hl7.eu/fhir/base/StructureDefinition/organization-eu"
          ]
        },
        "identifier": [
          {
            "assigner": {
              "display": "HL7 Europe"
            },
            "system": "urn:oid:2.16.840.1.113883.2.51.999",
            "value": "d4ca22ab-c630-441c-a58a-77a241cc7ab5"
          }
        ],
        "address": [
          {
            "line": [
              "Rue Larrey nan"
            ],
            "city": "Angers",
            "postalCode": "49100",
            "country": "France"
          }
        ],
        "text": {
          "status": "generated",
          "div": "<div xmlns=\"http://www.w3.org/1999/xhtml\">Provider Organization: CHU d&#039;Angers</div>"
        },
        "name": "CHU d&#039;Angers"
      }
    },
    {
      "fullUrl": "urn:uuid:089d3946-0e5c-4a21-8fb3-cc672ec74ec6",
      "resource": {
        "resourceType": "Specimen",
        "id": "089d3946-0e5c-4a21-8fb3-cc672ec74ec6",
        "meta": {
          "profile": [
            "http://hl7.eu/fhir/laboratory/StructureDefinition/Specimen-eu-lab"
          ]
        },
        "collection": {
          "collectedDateTime": "2017-02-17"
        },
        "text": {
          "status": "generated",
          "div": "<div xmlns=\"http://www.w3.org/1999/xhtml\"><table class=\"hl7__eu__lab__report\"><tr><th>Specimen</th><th>Collection Date</th></tr><tr><td>Whole blood specimen (specimen)</td><td><span class=\"nb\">17-Feb-2017</span></td></tr></table></div>"
        },
        "type": {
          "coding": [
            {
              "code": "258580003",
              "system": "http://snomed.info/sct",
              "display": "Whole blood specimen (specimen)"
            }
          ]
        }
      }
    },
    {
      "fullUrl": "urn:uuid:a14d57b4-166d-4edb-b869-1257cbadebb6",
      "resource": {
        "resourceType": "Specimen",
        "id": "a14d57b4-166d-4edb-b869-1257cbadebb6",
        "meta": {
          "profile": [
            "http://hl7.eu/fhir/laboratory/StructureDefinition/Specimen-eu-lab"
          ]
        },
        "collection": {
          "collectedDateTime": "2017-02-17"
        },
        "text": {
          "status": "generated",
          "div": "<div xmlns=\"http://www.w3.org/1999/xhtml\"><table class=\"hl7__eu__lab__report\"><tr><th>Specimen</th><th>Collection Date</th></tr><tr><td>Acellular blood (serum or plasma) specimen</td><td><span class=\"nb\">17-Feb-2017</span></td></tr></table></div>"
        },
        "type": {
          "coding": [
            {
              "code": "122592007",
              "system": "http://snomed.info/sct",
              "display": "Acellular blood (serum or plasma) specimen"
            }
          ]
        }
      }
    },
    {
      "fullUrl": "urn:uuid:f59588f7-d350-4af0-a62f-bedc2b4a90d9",
      "resource": {
        "resourceType": "Specimen",
        "id": "f59588f7-d350-4af0-a62f-bedc2b4a90d9",
        "meta": {
          "profile": [
            "http://hl7.eu/fhir/laboratory/StructureDefinition/Specimen-eu-lab"
          ]
        },
        "collection": {
          "collectedDateTime": "2017-02-17"
        },
        "text": {
          "status": "generated",
          "div": "<div xmlns=\"http://www.w3.org/1999/xhtml\"><table class=\"hl7__eu__lab__report\"><tr><th>Specimen</th><th>Collection Date</th></tr><tr><td>Serum specimen</td><td><span class=\"nb\">17-Feb-2017</span></td></tr></table></div>"
        },
        "type": {
          "coding": [
            {
              "code": "119364003",
              "system": "http://snomed.info/sct",
              "display": "Serum specimen"
            }
          ]
        }
      }
    },
    {
      "fullUrl": "urn:uuid:7bb59e42-0c07-4581-b9a1-3dd1f6c93761",
      "resource": {
        "resourceType": "Observation",
        "id": "7bb59e42-0c07-4581-b9a1-3dd1f6c93761",
        "meta": {
          "profile": [
            "http://hl7.eu/fhir/laboratory/StructureDefinition/Observation-resultslab-eu-lab"
          ]
        },
        "performer": [
          {
            "display": "The Central European Lab"
          }
        ],
        "category": [
          {
            "coding": [
              {
                "system": "http://terminology.hl7.org/CodeSystem/observation-category",
                "code": "laboratory"
              }
            ]
          }
        ],
        "code": {
          "coding": [
            {
              "code": "2339-0",
              "system": "http://loinc.org",
              "display": "Glucose [Mass/volume] in Blood"
            }
          ],
          "text": "Glucose [Mass/volume] in Blood"
        },
        "valueQuantity": {
          "system": "http://unitsofmeasure.org",
          "value": 83.7,
          "unit": "mg/dL",
          "code": "mg/dL"
        },
        "referenceRange": [
          {
            "low": {
              "value": 70,
              "code": "mg/dL",
              "system": "http://unitsofmeasure.org"
            }
          },
          {
            "high": {
              "value": 99,
              "code": "mg/dL",
              "system": "http://unitsofmeasure.org"
            }
          }
        ],
        "text": {
          "status": "generated",
          "div": "<div xmlns=\"http://www.w3.org/1999/xhtml\"><table class=\"hl7__eu__lab__report\"><tr><th>Test</th><th>17-Feb-2017</th><th>Reference&#xA0;Range</th><th>Unit</th></tr><tr><td>Glucose [Mass/volume] in Blood</td><td>83.7</td><td>70 - 99</td><td></td><td>mg/dL</td></tr></table></div>"
        },
        "status": "final",
        "subject": {
          "reference": "urn:uuid:c09a24ab-f1a9-4d16-b605-1fa3fc118765",
          "display": "Marthe Gallet"
        },
        "effectiveDateTime": "2017-02-17T19:05:43Z",
        "specimen": {
          "reference": "urn:uuid:089d3946-0e5c-4a21-8fb3-cc672ec74ec6"
        }
      }
    },
    {
      "fullUrl": "urn:uuid:820915ea-5a3b-44cc-9582-22ab815657ee",
      "resource": {
        "resourceType": "Observation",
        "id": "820915ea-5a3b-44cc-9582-22ab815657ee",
        "meta": {
          "profile": [
            "http://hl7.eu/fhir/laboratory/StructureDefinition/Observation-resultslab-eu-lab"
          ]
        },
        "performer": [
          {
            "display": "The Central European Lab"
          }
        ],
        "category": [
          {
            "coding": [
              {
                "system": "http://terminology.hl7.org/CodeSystem/observation-category",
                "code": "laboratory"
              }
            ]
          }
        ],
        "code": {
          "coding": [
            {
              "code": "6299-2",
              "system": "http://loinc.org",
              "display": "Urea nitrogen [Mass/volume] in Blood"
            }
          ],
          "text": "Urea nitrogen [Mass/volume] in Blood"
        },
        "valueQuantity": {
          "system": "http://unitsofmeasure.org",
          "value": 9.9,
          "unit": "mg/dL",
          "code": "mg/dL"
        },
        "referenceRange": [
          {
            "low": {
              "value": 7,
              "code": "mg/dL",
              "system": "http://unitsofmeasure.org"
            }
          },
          {
            "high": {
              "value": 45,
              "code": "mg/dL",
              "system": "http://unitsofmeasure.org"
            }
          }
        ],
        "text": {
          "status": "generated",
          "div": "<div xmlns=\"http://www.w3.org/1999/xhtml\"><table class=\"hl7__eu__lab__report\"><tr><th>Test</th><th>17-Feb-2017</th><th>Reference&#xA0;Range</th><th>Unit</th></tr><tr><td>Urea nitrogen [Mass/volume] in Blood</td><td>9.9</td><td>7 - 45</td><td></td><td>mg/dL</td></tr></table></div>"
        },
        "status": "final",
        "subject": {
          "reference": "urn:uuid:c09a24ab-f1a9-4d16-b605-1fa3fc118765",
          "display": "Marthe Gallet"
        },
        "effectiveDateTime": "2017-02-17T19:05:43Z",
        "specimen": {
          "reference": "urn:uuid:089d3946-0e5c-4a21-8fb3-cc672ec74ec6"
        }
      }
    },
    {
      "fullUrl": "urn:uuid:f0a624ee-85b3-4d5d-b899-3162c8ff0f31",
      "resource": {
        "resourceType": "Observation",
        "id": "f0a624ee-85b3-4d5d-b899-3162c8ff0f31",
        "meta": {
          "profile": [
            "http://hl7.eu/fhir/laboratory/StructureDefinition/Observation-resultslab-eu-lab"
          ]
        },
        "performer": [
          {
            "display": "The Central European Lab"
          }
        ],
        "category": [
          {
            "coding": [
              {
                "system": "http://terminology.hl7.org/CodeSystem/observation-category",
                "code": "laboratory"
              }
            ]
          }
        ],
        "code": {
          "coding": [
            {
              "code": "38483-4",
              "system": "http://loinc.org",
              "display": "Creatinine [Mass/volume] in Blood"
            }
          ],
          "text": "Creatinine [Mass/volume] in Blood"
        },
        "valueQuantity": {
          "system": "http://unitsofmeasure.org",
          "value": 3.5,
          "unit": "mg/dL",
          "code": "mg/dL"
        },
        "referenceRange": [
          {
            "low": {
              "value": 0.6,
              "code": "mg/dL",
              "system": "http://unitsofmeasure.org"
            }
          },
          {
            "high": {
              "value": 1.1,
              "code": "mg/dL",
              "system": "http://unitsofmeasure.org"
            }
          }
        ],
        "interpretation": [
          {
            "coding": [
              {
                "code": "H",
                "system": "http://terminology.hl7.org/CodeSystem/v3-ObservationInterpretation",
                "display": "High"
              }
            ]
          }
        ],
        "text": {
          "status": "generated",
          "div": "<div xmlns=\"http://www.w3.org/1999/xhtml\"><table class=\"hl7__eu__lab__report\"><tr><th>Test</th><th>17-Feb-2017</th><th>Reference&#xA0;Range</th><th>Unit</th></tr><tr><td>Creatinine [Mass/volume] in Blood</td><td>3.5</td><td>0.6 - 1.1</td><td>H</td><td>mg/dL</td></tr></table></div>"
        },
        "status": "final",
        "subject": {
          "reference": "urn:uuid:c09a24ab-f1a9-4d16-b605-1fa3fc118765",
          "display": "Marthe Gallet"
        },
        "effectiveDateTime": "2017-02-17T19:05:43Z",
        "specimen": {
          "reference": "urn:uuid:089d3946-0e5c-4a21-8fb3-cc672ec74ec6"
        }
      }
    },
    {
      "fullUrl": "urn:uuid:d3a42f11-4639-4c62-a7da-fc937ff89cf8",
      "resource": {
        "resourceType": "Observation",
        "id": "d3a42f11-4639-4c62-a7da-fc937ff89cf8",
        "meta": {
          "profile": [
            "http://hl7.eu/fhir/laboratory/StructureDefinition/Observation-resultslab-eu-lab"
          ]
        },
        "performer": [
          {
            "display": "The Central European Lab"
          }
        ],
        "category": [
          {
            "coding": [
              {
                "system": "http://terminology.hl7.org/CodeSystem/observation-category",
                "code": "laboratory"
              }
            ]
          }
        ],
        "code": {
          "coding": [
            {
              "code": "49765-1",
              "system": "http://loinc.org",
              "display": "Calcium [Mass/volume] in Blood"
            }
          ],
          "text": "Calcium [Mass/volume] in Blood"
        },
        "valueQuantity": {
          "system": "http://unitsofmeasure.org",
          "value": 9.9,
          "unit": "mg/dL",
          "code": "mg/dL"
        },
        "referenceRange": [
          {
            "low": {
              "value": 8.5,
              "code": "mg/dL",
              "system": "http://unitsofmeasure.org"
            }
          },
          {
            "high": {
              "value": 10.4,
              "code": "mg/dL",
              "system": "http://unitsofmeasure.org"
            }
          }
        ],
        "text": {
          "status": "generated",
          "div": "<div xmlns=\"http://www.w3.org/1999/xhtml\"><table class=\"hl7__eu__lab__report\"><tr><th>Test</th><th>17-Feb-2017</th><th>Reference&#xA0;Range</th><th>Unit</th></tr><tr><td>Calcium [Mass/volume] in Blood</td><td>9.9</td><td>8.5 - 10.4</td><td></td><td>mg/dL</td></tr></table></div>"
        },
        "status": "final",
        "subject": {
          "reference": "urn:uuid:c09a24ab-f1a9-4d16-b605-1fa3fc118765",
          "display": "Marthe Gallet"
        },
        "effectiveDateTime": "2017-02-17T19:05:43Z",
        "specimen": {
          "reference": "urn:uuid:089d3946-0e5c-4a21-8fb3-cc672ec74ec6"
        }
      }
    },
    {
      "fullUrl": "urn:uuid:5f8295a7-8260-4aa4-8f6e-17a2610bfd01",
      "resource": {
        "resourceType": "Observation",
        "id": "5f8295a7-8260-4aa4-8f6e-17a2610bfd01",
        "meta": {
          "profile": [
            "http://hl7.eu/fhir/laboratory/StructureDefinition/Observation-resultslab-eu-lab"
          ]
        },
        "performer": [
          {
            "display": "The Central European Lab"
          }
        ],
        "category": [
          {
            "coding": [
              {
                "system": "http://terminology.hl7.org/CodeSystem/observation-category",
                "code": "laboratory"
              }
            ]
          }
        ],
        "code": {
          "coding": [
            {
              "code": "2947-0",
              "system": "http://loinc.org",
              "display": "Sodium [Moles/volume] in Blood"
            }
          ],
          "text": "Sodium [Moles/volume] in Blood"
        },
        "valueQuantity": {
          "system": "http://unitsofmeasure.org",
          "value": 143.5,
          "unit": "mmol/L",
          "code": "mmol/L"
        },
        "referenceRange": [
          {
            "low": {
              "value": 135,
              "code": "mmol/L",
              "system": "http://unitsofmeasure.org"
            }
          },
          {
            "high": {
              "value": 145,
              "code": "mmol/L",
              "system": "http://unitsofmeasure.org"
            }
          }
        ],
        "text": {
          "status": "generated",
          "div": "<div xmlns=\"http://www.w3.org/1999/xhtml\"><table class=\"hl7__eu__lab__report\"><tr><th>Test</th><th>17-Feb-2017</th><th>Reference&#xA0;Range</th><th>Unit</th></tr><tr><td>Sodium [Moles/volume] in Blood</td><td>143.5</td><td>135 - 145</td><td></td><td>mmol/L</td></tr></table></div>"
        },
        "status": "final",
        "subject": {
          "reference": "urn:uuid:c09a24ab-f1a9-4d16-b605-1fa3fc118765",
          "display": "Marthe Gallet"
        },
        "effectiveDateTime": "2017-02-17T19:05:43Z",
        "specimen": {
          "reference": "urn:uuid:089d3946-0e5c-4a21-8fb3-cc672ec74ec6"
        }
      }
    },
    {
      "fullUrl": "urn:uuid:ade70157-33dc-49b5-ae05-a92b2f2b8b95",
      "resource": {
        "resourceType": "Observation",
        "id": "ade70157-33dc-49b5-ae05-a92b2f2b8b95",
        "meta": {
          "profile": [
            "http://hl7.eu/fhir/laboratory/StructureDefinition/Observation-resultslab-eu-lab"
          ]
        },
        "performer": [
          {
            "display": "The Central European Lab"
          }
        ],
        "category": [
          {
            "coding": [
              {
                "system": "http://terminology.hl7.org/CodeSystem/observation-category",
                "code": "laboratory"
              }
            ]
          }
        ],
        "code": {
          "coding": [
            {
              "code": "6298-4",
              "system": "http://loinc.org",
              "display": "Potassium [Moles/volume] in Blood"
            }
          ],
          "text": "Potassium [Moles/volume] in Blood"
        },
        "valueQuantity": {
          "system": "http://unitsofmeasure.org",
          "value": 4.2,
          "unit": "mmol/L",
          "code": "mmol/L"
        },
        "referenceRange": [
          {
            "low": {
              "value": 3.5,
              "code": "mmol/L",
              "system": "http://unitsofmeasure.org"
            }
          },
          {
            "high": {
              "value": 5.1,
              "code": "mmol/L",
              "system": "http://unitsofmeasure.org"
            }
          }
        ],
        "text": {
          "status": "generated",
          "div": "<div xmlns=\"http://www.w3.org/1999/xhtml\"><table class=\"hl7__eu__lab__report\"><tr><th>Test</th><th>17-Feb-2017</th><th>Reference&#xA0;Range</th><th>Unit</th></tr><tr><td>Potassium [Moles/volume] in Blood</td><td>4.2</td><td>3.5 - 5.1</td><td></td><td>mmol/L</td></tr></table></div>"
        },
        "status": "final",
        "subject": {
          "reference": "urn:uuid:c09a24ab-f1a9-4d16-b605-1fa3fc118765",
          "display": "Marthe Gallet"
        },
        "effectiveDateTime": "2017-02-17T19:05:43Z",
        "specimen": {
          "reference": "urn:uuid:089d3946-0e5c-4a21-8fb3-cc672ec74ec6"
        }
      }
    },
    {
      "fullUrl": "urn:uuid:a5aef366-dc70-487f-b16d-cf358a2caf3f",
      "resource": {
        "resourceType": "Observation",
        "id": "a5aef366-dc70-487f-b16d-cf358a2caf3f",
        "meta": {
          "profile": [
            "http://hl7.eu/fhir/laboratory/StructureDefinition/Observation-resultslab-eu-lab"
          ]
        },
        "performer": [
          {
            "display": "The Central European Lab"
          }
        ],
        "category": [
          {
            "coding": [
              {
                "system": "http://terminology.hl7.org/CodeSystem/observation-category",
                "code": "laboratory"
              }
            ]
          }
        ],
        "code": {
          "coding": [
            {
              "code": "2069-3",
              "system": "http://loinc.org",
              "display": "Chloride [Moles/volume] in Blood"
            }
          ],
          "text": "Chloride [Moles/volume] in Blood"
        },
        "valueQuantity": {
          "system": "http://unitsofmeasure.org",
          "value": 106.6,
          "unit": "mmol/L",
          "code": "mmol/L"
        },
        "referenceRange": [
          {
            "low": {
              "value": 98,
              "code": "mmol/L",
              "system": "http://unitsofmeasure.org"
            }
          },
          {
            "high": {
              "value": 110,
              "code": "mmol/L",
              "system": "http://unitsofmeasure.org"
            }
          }
        ],
        "text": {
          "status": "generated",
          "div": "<div xmlns=\"http://www.w3.org/1999/xhtml\"><table class=\"hl7__eu__lab__report\"><tr><th>Test</th><th>17-Feb-2017</th><th>Reference&#xA0;Range</th><th>Unit</th></tr><tr><td>Chloride [Moles/volume] in Blood</td><td>106.6</td><td>98 - 110</td><td></td><td>mmol/L</td></tr></table></div>"
        },
        "status": "final",
        "subject": {
          "reference": "urn:uuid:c09a24ab-f1a9-4d16-b605-1fa3fc118765",
          "display": "Marthe Gallet"
        },
        "effectiveDateTime": "2017-02-17T19:05:43Z",
        "specimen": {
          "reference": "urn:uuid:089d3946-0e5c-4a21-8fb3-cc672ec74ec6"
        }
      }
    },
    {
      "fullUrl": "urn:uuid:ff534f75-d4d7-4090-a670-4ccc6ac374f3",
      "resource": {
        "resourceType": "Observation",
        "id": "ff534f75-d4d7-4090-a670-4ccc6ac374f3",
        "meta": {
          "profile": [
            "http://hl7.eu/fhir/laboratory/StructureDefinition/Observation-resultslab-eu-lab"
          ]
        },
        "performer": [
          {
            "display": "The Central European Lab"
          }
        ],
        "category": [
          {
            "coding": [
              {
                "system": "http://terminology.hl7.org/CodeSystem/observation-category",
                "code": "laboratory"
              }
            ]
          }
        ],
        "code": {
          "coding": [
            {
              "code": "20565-8",
              "system": "http://loinc.org",
              "display": "Carbon dioxide, total [Moles/volume] in Blood"
            }
          ],
          "text": "Carbon dioxide, total [Moles/volume] in Blood"
        },
        "valueQuantity": {
          "system": "http://unitsofmeasure.org",
          "value": 27,
          "unit": "mmol/L",
          "code": "mmol/L"
        },
        "referenceRange": [
          {
            "low": {
              "value": 22,
              "code": "mmol/L",
              "system": "http://unitsofmeasure.org"
            }
          },
          {
            "high": {
              "value": 29,
              "code": "mmol/L",
              "system": "http://unitsofmeasure.org"
            }
          }
        ],
        "text": {
          "status": "generated",
          "div": "<div xmlns=\"http://www.w3.org/1999/xhtml\"><table class=\"hl7__eu__lab__report\"><tr><th>Test</th><th>17-Feb-2017</th><th>Reference&#xA0;Range</th><th>Unit</th></tr><tr><td>Carbon dioxide, total [Moles/volume] in Blood</td><td>27.0</td><td>22 - 29</td><td></td><td>mmol/L</td></tr></table></div>"
        },
        "status": "final",
        "subject": {
          "reference": "urn:uuid:c09a24ab-f1a9-4d16-b605-1fa3fc118765",
          "display": "Marthe Gallet"
        },
        "effectiveDateTime": "2017-02-17T19:05:43Z",
        "specimen": {
          "reference": "urn:uuid:089d3946-0e5c-4a21-8fb3-cc672ec74ec6"
        }
      }
    },
    {
      "fullUrl": "urn:uuid:226fa758-b416-4273-8d20-4d239b94493a",
      "resource": {
        "resourceType": "Observation",
        "id": "226fa758-b416-4273-8d20-4d239b94493a",
        "meta": {
          "profile": [
            "http://hl7.eu/fhir/laboratory/StructureDefinition/Observation-resultslab-eu-lab"
          ]
        },
        "performer": [
          {
            "display": "The Central European Lab"
          }
        ],
        "category": [
          {
            "coding": [
              {
                "system": "http://terminology.hl7.org/CodeSystem/observation-category",
                "code": "laboratory"
              }
            ]
          }
        ],
        "code": {
          "coding": [
            {
              "code": "2885-2",
              "system": "http://loinc.org",
              "display": "Protein [Mass/volume] in Serum or Plasma"
            }
          ],
          "text": "Protein [Mass/volume] in Serum or Plasma"
        },
        "valueQuantity": {
          "system": "http://unitsofmeasure.org",
          "value": 7.6,
          "unit": "g/dL",
          "code": "g/dL"
        },
        "referenceRange": [
          {
            "low": {
              "value": 6,
              "code": "g/dL",
              "system": "http://unitsofmeasure.org"
            }
          },
          {
            "high": {
              "value": 8.3,
              "code": "g/dL",
              "system": "http://unitsofmeasure.org"
            }
          }
        ],
        "text": {
          "status": "generated",
          "div": "<div xmlns=\"http://www.w3.org/1999/xhtml\"><table class=\"hl7__eu__lab__report\"><tr><th>Test</th><th>17-Feb-2017</th><th>Reference&#xA0;Range</th><th>Unit</th></tr><tr><td>Protein [Mass/volume] in Serum or Plasma</td><td>7.6</td><td>6 - 8.3</td><td></td><td>g/dL</td></tr></table></div>"
        },
        "status": "final",
        "subject": {
          "reference": "urn:uuid:c09a24ab-f1a9-4d16-b605-1fa3fc118765",
          "display": "Marthe Gallet"
        },
        "effectiveDateTime": "2017-02-17T19:05:43Z",
        "specimen": {
          "reference": "urn:uuid:a14d57b4-166d-4edb-b869-1257cbadebb6"
        }
      }
    },
    {
      "fullUrl": "urn:uuid:57ff3ffb-02b1-4f8e-9168-9657675e175e",
      "resource": {
        "resourceType": "Observation",
        "id": "57ff3ffb-02b1-4f8e-9168-9657675e175e",
        "meta": {
          "profile": [
            "http://hl7.eu/fhir/laboratory/StructureDefinition/Observation-resultslab-eu-lab"
          ]
        },
        "performer": [
          {
            "display": "The Central European Lab"
          }
        ],
        "category": [
          {
            "coding": [
              {
                "system": "http://terminology.hl7.org/CodeSystem/observation-category",
                "code": "laboratory"
              }
            ]
          }
        ],
        "code": {
          "coding": [
            {
              "code": "1751-7",
              "system": "http://loinc.org",
              "display": "Albumin [Mass/volume] in Serum or Plasma"
            }
          ],
          "text": "Albumin [Mass/volume] in Serum or Plasma"
        },
        "valueQuantity": {
          "system": "http://unitsofmeasure.org",
          "value": 5.2,
          "unit": "g/dL",
          "code": "g/dL"
        },
        "referenceRange": [
          {
            "low": {
              "value": 3.5,
              "code": "g/dL",
              "system": "http://unitsofmeasure.org"
            }
          },
          {
            "high": {
              "value": 5.5,
              "code": "g/dL",
              "system": "http://unitsofmeasure.org"
            }
          }
        ],
        "text": {
          "status": "generated",
          "div": "<div xmlns=\"http://www.w3.org/1999/xhtml\"><table class=\"hl7__eu__lab__report\"><tr><th>Test</th><th>17-Feb-2017</th><th>Reference&#xA0;Range</th><th>Unit</th></tr><tr><td>Albumin [Mass/volume] in Serum or Plasma</td><td>5.2</td><td>3.5 - 5.5</td><td></td><td>g/dL</td></tr></table></div>"
        },
        "status": "final",
        "subject": {
          "reference": "urn:uuid:c09a24ab-f1a9-4d16-b605-1fa3fc118765",
          "display": "Marthe Gallet"
        },
        "effectiveDateTime": "2017-02-17T19:05:43Z",
        "specimen": {
          "reference": "urn:uuid:a14d57b4-166d-4edb-b869-1257cbadebb6"
        }
      }
    },
    {
      "fullUrl": "urn:uuid:e3e107e8-5f51-4bd9-9d87-72ce00e566cf",
      "resource": {
        "resourceType": "Observation",
        "id": "e3e107e8-5f51-4bd9-9d87-72ce00e566cf",
        "meta": {
          "profile": [
            "http://hl7.eu/fhir/laboratory/StructureDefinition/Observation-resultslab-eu-lab"
          ]
        },
        "performer": [
          {
            "display": "The Central European Lab"
          }
        ],
        "category": [
          {
            "coding": [
              {
                "system": "http://terminology.hl7.org/CodeSystem/observation-category",
                "code": "laboratory"
              }
            ]
          }
        ],
        "code": {
          "coding": [
            {
              "code": "10834-0",
              "system": "http://loinc.org",
              "display": "Globulin [Mass/volume] in Serum by calculation"
            }
          ],
          "text": "Globulin [Mass/volume] in Serum by calculation"
        },
        "valueQuantity": {
          "system": "http://unitsofmeasure.org",
          "value": 2.9,
          "unit": "g/L",
          "code": "g/L"
        },
        "referenceRange": [
          {
            "low": {
              "value": 2,
              "code": "g/L",
              "system": "http://unitsofmeasure.org"
            }
          },
          {
            "high": {
              "value": 3.5,
              "code": "g/L",
              "system": "http://unitsofmeasure.org"
            }
          }
        ],
        "text": {
          "status": "generated",
          "div": "<div xmlns=\"http://www.w3.org/1999/xhtml\"><table class=\"hl7__eu__lab__report\"><tr><th>Test</th><th>17-Feb-2017</th><th>Reference&#xA0;Range</th><th>Unit</th></tr><tr><td>Globulin [Mass/volume] in Serum by calculation</td><td>2.9</td><td>2 - 3.5</td><td></td><td>g/L</td></tr></table></div>"
        },
        "status": "final",
        "subject": {
          "reference": "urn:uuid:c09a24ab-f1a9-4d16-b605-1fa3fc118765",
          "display": "Marthe Gallet"
        },
        "effectiveDateTime": "2017-02-17T19:05:43Z",
        "specimen": {
          "reference": "urn:uuid:f59588f7-d350-4af0-a62f-bedc2b4a90d9"
        }
      }
    },
    {
      "fullUrl": "urn:uuid:95502205-f5dc-48ff-902d-916605d70dcb",
      "resource": {
        "resourceType": "Observation",
        "id": "95502205-f5dc-48ff-902d-916605d70dcb",
        "meta": {
          "profile": [
            "http://hl7.eu/fhir/laboratory/StructureDefinition/Observation-resultslab-eu-lab"
          ]
        },
        "performer": [
          {
            "display": "The Central European Lab"
          }
        ],
        "category": [
          {
            "coding": [
              {
                "system": "http://terminology.hl7.org/CodeSystem/observation-category",
                "code": "laboratory"
              }
            ]
          }
        ],
        "code": {
          "coding": [
            {
              "code": "1975-2",
              "system": "http://loinc.org",
              "display": "Bilirubin.total [Mass/volume] in Serum or Plasma"
            }
          ],
          "text": "Bilirubin.total [Mass/volume] in Serum or Plasma"
        },
        "valueQuantity": {
          "system": "http://unitsofmeasure.org",
          "value": 1,
          "unit": "mg/dL",
          "code": "mg/dL"
        },
        "referenceRange": [
          {
            "low": {
              "value": 0.3,
              "code": "mg/dL",
              "system": "http://unitsofmeasure.org"
            }
          },
          {
            "high": {
              "value": 1.2,
              "code": "mg/dL",
              "system": "http://unitsofmeasure.org"
            }
          }
        ],
        "text": {
          "status": "generated",
          "div": "<div xmlns=\"http://www.w3.org/1999/xhtml\"><table class=\"hl7__eu__lab__report\"><tr><th>Test</th><th>17-Feb-2017</th><th>Reference&#xA0;Range</th><th>Unit</th></tr><tr><td>Bilirubin.total [Mass/volume] in Serum or Plasma</td><td>1.0</td><td>0.3 - 1.2</td><td></td><td>mg/dL</td></tr></table></div>"
        },
        "status": "final",
        "subject": {
          "reference": "urn:uuid:c09a24ab-f1a9-4d16-b605-1fa3fc118765",
          "display": "Marthe Gallet"
        },
        "effectiveDateTime": "2017-02-17T19:05:43Z",
        "specimen": {
          "reference": "urn:uuid:a14d57b4-166d-4edb-b869-1257cbadebb6"
        }
      }
    },
    {
      "fullUrl": "urn:uuid:ff289f68-f8f9-45b2-bfaa-4aaaa08f55e9",
      "resource": {
        "resourceType": "Observation",
        "id": "ff289f68-f8f9-45b2-bfaa-4aaaa08f55e9",
        "meta": {
          "profile": [
            "http://hl7.eu/fhir/laboratory/StructureDefinition/Observation-resultslab-eu-lab"
          ]
        },
        "performer": [
          {
            "display": "The Central European Lab"
          }
        ],
        "category": [
          {
            "coding": [
              {
                "system": "http://terminology.hl7.org/CodeSystem/observation-category",
                "code": "laboratory"
              }
            ]
          }
        ],
        "code": {
          "coding": [
            {
              "code": "6768-6",
              "system": "http://loinc.org",
              "display": "Alkaline phosphatase [Enzymatic activity/volume] in Serum or Plasma"
            }
          ],
          "text": "Alkaline phosphatase [Enzymatic activity/volume] in Serum or Plasma"
        },
        "valueQuantity": {
          "system": "http://unitsofmeasure.org",
          "value": 115.6,
          "unit": "U/L",
          "code": "U/L"
        },
        "referenceRange": [
          {
            "low": {
              "value": 44,
              "code": "U/L",
              "system": "http://unitsofmeasure.org"
            }
          },
          {
            "high": {
              "value": 130,
              "code": "U/L",
              "system": "http://unitsofmeasure.org"
            }
          }
        ],
        "text": {
          "status": "generated",
          "div": "<div xmlns=\"http://www.w3.org/1999/xhtml\"><table class=\"hl7__eu__lab__report\"><tr><th>Test</th><th>17-Feb-2017</th><th>Reference&#xA0;Range</th><th>Unit</th></tr><tr><td>Alkaline phosphatase [Enzymatic activity/volume] in Serum or Plasma</td><td>115.6</td><td>44 - 130</td><td></td><td>U/L</td></tr></table></div>"
        },
        "status": "final",
        "subject": {
          "reference": "urn:uuid:c09a24ab-f1a9-4d16-b605-1fa3fc118765",
          "display": "Marthe Gallet"
        },
        "effectiveDateTime": "2017-02-17T19:05:43Z",
        "specimen": {
          "reference": "urn:uuid:a14d57b4-166d-4edb-b869-1257cbadebb6"
        }
      }
    },
    {
      "fullUrl": "urn:uuid:3f92e098-4cd4-435c-8d1c-cdbc61102820",
      "resource": {
        "resourceType": "Observation",
        "id": "3f92e098-4cd4-435c-8d1c-cdbc61102820",
        "meta": {
          "profile": [
            "http://hl7.eu/fhir/laboratory/StructureDefinition/Observation-resultslab-eu-lab"
          ]
        },
        "performer": [
          {
            "display": "The Central European Lab"
          }
        ],
        "category": [
          {
            "coding": [
              {
                "system": "http://terminology.hl7.org/CodeSystem/observation-category",
                "code": "laboratory"
              }
            ]
          }
        ],
        "code": {
          "coding": [
            {
              "code": "1742-6",
              "system": "http://loinc.org",
              "display": "Alanine aminotransferase [Enzymatic activity/volume] in Serum or Plasma"
            }
          ],
          "text": "Alanine aminotransferase [Enzymatic activity/volume] in Serum or Plasma"
        },
        "valueQuantity": {
          "system": "http://unitsofmeasure.org",
          "value": 28,
          "unit": "U/L",
          "code": "U/L"
        },
        "referenceRange": [
          {
            "low": {
              "value": 7,
              "code": "U/L",
              "system": "http://unitsofmeasure.org"
            }
          },
          {
            "high": {
              "value": 33,
              "code": "U/L",
              "system": "http://unitsofmeasure.org"
            }
          }
        ],
        "text": {
          "status": "generated",
          "div": "<div xmlns=\"http://www.w3.org/1999/xhtml\"><table class=\"hl7__eu__lab__report\"><tr><th>Test</th><th>17-Feb-2017</th><th>Reference&#xA0;Range</th><th>Unit</th></tr><tr><td>Alanine aminotransferase [Enzymatic activity/volume] in Serum or Plasma</td><td>28.0</td><td>7 - 33</td><td></td><td>U/L</td></tr></table></div>"
        },
        "status": "final",
        "subject": {
          "reference": "urn:uuid:c09a24ab-f1a9-4d16-b605-1fa3fc118765",
          "display": "Marthe Gallet"
        },
        "effectiveDateTime": "2017-02-17T19:05:43Z",
        "specimen": {
          "reference": "urn:uuid:a14d57b4-166d-4edb-b869-1257cbadebb6"
        }
      }
    },
    {
      "fullUrl": "urn:uuid:e003b56a-3b57-4a0f-a00d-b032a5a7b6be",
      "resource": {
        "resourceType": "Observation",
        "id": "e003b56a-3b57-4a0f-a00d-b032a5a7b6be",
        "meta": {
          "profile": [
            "http://hl7.eu/fhir/laboratory/StructureDefinition/Observation-resultslab-eu-lab"
          ]
        },
        "performer": [
          {
            "display": "The Central European Lab"
          }
        ],
        "category": [
          {
            "coding": [
              {
                "system": "http://terminology.hl7.org/CodeSystem/observation-category",
                "code": "laboratory"
              }
            ]
          }
        ],
        "code": {
          "coding": [
            {
              "code": "1920-8",
              "system": "http://loinc.org",
              "display": "Aspartate aminotransferase [Enzymatic activity/volume] in Serum or Plasma"
            }
          ],
          "text": "Aspartate aminotransferase [Enzymatic activity/volume] in Serum or Plasma"
        },
        "valueQuantity": {
          "system": "http://unitsofmeasure.org",
          "value": 34,
          "unit": "U/L",
          "code": "U/L"
        },
        "referenceRange": [
          {
            "low": {
              "value": 10,
              "code": "U/L",
              "system": "http://unitsofmeasure.org"
            }
          },
          {
            "high": {
              "value": 40,
              "code": "U/L",
              "system": "http://unitsofmeasure.org"
            }
          }
        ],
        "text": {
          "status": "generated",
          "div": "<div xmlns=\"http://www.w3.org/1999/xhtml\"><table class=\"hl7__eu__lab__report\"><tr><th>Test</th><th>17-Feb-2017</th><th>Reference&#xA0;Range</th><th>Unit</th></tr><tr><td>Aspartate aminotransferase [Enzymatic activity/volume] in Serum or Plasma</td><td>34.0</td><td>10 - 40</td><td></td><td>U/L</td></tr></table></div>"
        },
        "status": "final",
        "subject": {
          "reference": "urn:uuid:c09a24ab-f1a9-4d16-b605-1fa3fc118765",
          "display": "Marthe Gallet"
        },
        "effectiveDateTime": "2017-02-17T19:05:43Z",
        "specimen": {
          "reference": "urn:uuid:a14d57b4-166d-4edb-b869-1257cbadebb6"
        }
      }
    },
    {
      "fullUrl": "urn:uuid:a0914cfc-5fce-49a0-9d9c-ce8d66b9e1e7",
      "resource": {
        "resourceType": "Observation",
        "id": "a0914cfc-5fce-49a0-9d9c-ce8d66b9e1e7",
        "meta": {
          "profile": [
            "http://hl7.eu/fhir/laboratory/StructureDefinition/Observation-resultslab-eu-lab"
          ]
        },
        "performer": [
          {
            "display": "The Central European Lab"
          }
        ],
        "category": [
          {
            "coding": [
              {
                "system": "http://terminology.hl7.org/CodeSystem/observation-category",
                "code": "laboratory"
              }
            ]
          }
        ],
        "code": {
          "coding": [
            {
              "code": "2093-3",
              "system": "http://loinc.org",
              "display": "Cholesterol [Mass/volume] in Serum or Plasma"
            }
          ],
          "text": "Cholesterol [Mass/volume] in Serum or Plasma"
        },
        "valueQuantity": {
          "system": "http://unitsofmeasure.org",
          "value": 165,
          "unit": "mg/dL",
          "code": "mg/dL"
        },
        "referenceRange": [
          {
            "low": {
              "value": 125,
              "code": "mg/dL",
              "system": "http://unitsofmeasure.org"
            }
          },
          {
            "high": {
              "value": 200,
              "code": "mg/dL",
              "system": "http://unitsofmeasure.org"
            }
          }
        ],
        "text": {
          "status": "generated",
          "div": "<div xmlns=\"http://www.w3.org/1999/xhtml\"><table class=\"hl7__eu__lab__report\"><tr><th>Test</th><th>17-Feb-2017</th><th>Reference&#xA0;Range</th><th>Unit</th></tr><tr><td>Cholesterol [Mass/volume] in Serum or Plasma</td><td>165.0</td><td>125 - 200</td><td></td><td>mg/dL</td></tr></table></div>"
        },
        "status": "final",
        "subject": {
          "reference": "urn:uuid:c09a24ab-f1a9-4d16-b605-1fa3fc118765",
          "display": "Marthe Gallet"
        },
        "effectiveDateTime": "2017-02-17T19:05:43Z",
        "specimen": {
          "reference": "urn:uuid:a14d57b4-166d-4edb-b869-1257cbadebb6"
        }
      }
    },
    {
      "fullUrl": "urn:uuid:9d73e433-1c35-44ca-a86b-7d71dd7f4e1a",
      "resource": {
        "resourceType": "Observation",
        "id": "9d73e433-1c35-44ca-a86b-7d71dd7f4e1a",
        "meta": {
          "profile": [
            "http://hl7.eu/fhir/laboratory/StructureDefinition/Observation-resultslab-eu-lab"
          ]
        },
        "performer": [
          {
            "display": "The Central European Lab"
          }
        ],
        "category": [
          {
            "coding": [
              {
                "system": "http://terminology.hl7.org/CodeSystem/observation-category",
                "code": "laboratory"
              }
            ]
          }
        ],
        "code": {
          "coding": [
            {
              "code": "2571-8",
              "system": "http://loinc.org",
              "display": "Triglyceride [Mass/volume] in Serum or Plasma"
            }
          ],
          "text": "Triglyceride [Mass/volume] in Serum or Plasma"
        },
        "valueQuantity": {
          "system": "http://unitsofmeasure.org",
          "value": 158.8,
          "unit": "mg/dL",
          "code": "mg/dL"
        },
        "referenceRange": [
          {
            "low": {
              "value": 10,
              "code": "mg/dL",
              "system": "http://unitsofmeasure.org"
            }
          },
          {
            "high": {
              "value": 175,
              "code": "mg/dL",
              "system": "http://unitsofmeasure.org"
            }
          }
        ],
        "text": {
          "status": "generated",
          "div": "<div xmlns=\"http://www.w3.org/1999/xhtml\"><table class=\"hl7__eu__lab__report\"><tr><th>Test</th><th>17-Feb-2017</th><th>Reference&#xA0;Range</th><th>Unit</th></tr><tr><td>Triglyceride [Mass/volume] in Serum or Plasma</td><td>158.8</td><td>10 - 175</td><td></td><td>mg/dL</td></tr></table></div>"
        },
        "status": "final",
        "subject": {
          "reference": "urn:uuid:c09a24ab-f1a9-4d16-b605-1fa3fc118765",
          "display": "Marthe Gallet"
        },
        "effectiveDateTime": "2017-02-17T19:05:43Z",
        "specimen": {
          "reference": "urn:uuid:a14d57b4-166d-4edb-b869-1257cbadebb6"
        }
      }
    },
    {
      "fullUrl": "urn:uuid:34704482-d2ad-4ad6-90ca-5b5f2cde8c93",
      "resource": {
        "resourceType": "Observation",
        "id": "34704482-d2ad-4ad6-90ca-5b5f2cde8c93",
        "meta": {
          "profile": [
            "http://hl7.eu/fhir/laboratory/StructureDefinition/Observation-resultslab-eu-lab"
          ]
        },
        "performer": [
          {
            "display": "The Central European Lab"
          }
        ],
        "category": [
          {
            "coding": [
              {
                "system": "http://terminology.hl7.org/CodeSystem/observation-category",
                "code": "laboratory"
              }
            ]
          }
        ],
        "code": {
          "coding": [
            {
              "code": "18262-6",
              "system": "http://loinc.org",
              "display": "Cholesterol in LDL [Mass/volume] in Serum or Plasma by Direct assay"
            }
          ],
          "text": "Cholesterol in LDL [Mass/volume] in Serum or Plasma by Direct assay"
        },
        "valueQuantity": {
          "system": "http://unitsofmeasure.org",
          "value": 134.5,
          "unit": "mg/dL",
          "code": "mg/dL"
        },
        "referenceRange": [
          {
            "low": {
              "value": 0,
              "code": "mg/dL",
              "system": "http://unitsofmeasure.org"
            }
          },
          {
            "high": {
              "value": 130,
              "code": "mg/dL",
              "system": "http://unitsofmeasure.org"
            }
          }
        ],
        "interpretation": [
          {
            "coding": [
              {
                "code": "H",
                "system": "http://terminology.hl7.org/CodeSystem/v3-ObservationInterpretation",
                "display": "High"
              }
            ]
          }
        ],
        "text": {
          "status": "generated",
          "div": "<div xmlns=\"http://www.w3.org/1999/xhtml\"><table class=\"hl7__eu__lab__report\"><tr><th>Test</th><th>17-Feb-2017</th><th>Reference&#xA0;Range</th><th>Unit</th></tr><tr><td>Cholesterol in LDL [Mass/volume] in Serum or Plasma by Direct assay</td><td>134.5</td><td>0 - 130</td><td>H</td><td>mg/dL</td></tr></table></div>"
        },
        "status": "final",
        "subject": {
          "reference": "urn:uuid:c09a24ab-f1a9-4d16-b605-1fa3fc118765",
          "display": "Marthe Gallet"
        },
        "effectiveDateTime": "2017-02-17T19:05:43Z",
        "specimen": {
          "reference": "urn:uuid:a14d57b4-166d-4edb-b869-1257cbadebb6"
        }
      }
    },
    {
      "fullUrl": "urn:uuid:a71829d2-94ef-48d9-914a-b43be04f2da8",
      "resource": {
        "resourceType": "Observation",
        "id": "a71829d2-94ef-48d9-914a-b43be04f2da8",
        "meta": {
          "profile": [
            "http://hl7.eu/fhir/laboratory/StructureDefinition/Observation-resultslab-eu-lab"
          ]
        },
        "performer": [
          {
            "display": "The Central European Lab"
          }
        ],
        "category": [
          {
            "coding": [
              {
                "system": "http://terminology.hl7.org/CodeSystem/observation-category",
                "code": "laboratory"
              }
            ]
          }
        ],
        "code": {
          "coding": [
            {
              "code": "2085-9",
              "system": "http://loinc.org",
              "display": "Cholesterol in HDL [Mass/volume] in Serum or Plasma"
            }
          ],
          "text": "Cholesterol in HDL [Mass/volume] in Serum or Plasma"
        },
        "valueQuantity": {
          "system": "http://unitsofmeasure.org",
          "value": 55.9,
          "unit": "mg/dL",
          "code": "mg/dL"
        },
        "referenceRange": [
          {
            "low": {
              "value": 40,
              "code": "mg/dL",
              "system": "http://unitsofmeasure.org"
            }
          },
          {
            "high": {
              "value": 100,
              "code": "mg/dL",
              "system": "http://unitsofmeasure.org"
            }
          }
        ],
        "text": {
          "status": "generated",
          "div": "<div xmlns=\"http://www.w3.org/1999/xhtml\"><table class=\"hl7__eu__lab__report\"><tr><th>Test</th><th>17-Feb-2017</th><th>Reference&#xA0;Range</th><th>Unit</th></tr><tr><td>Cholesterol in HDL [Mass/volume] in Serum or Plasma</td><td>55.9</td><td>40 - 100</td><td></td><td>mg/dL</td></tr></table></div>"
        },
        "status": "final",
        "subject": {
          "reference": "urn:uuid:c09a24ab-f1a9-4d16-b605-1fa3fc118765",
          "display": "Marthe Gallet"
        },
        "effectiveDateTime": "2017-02-17T19:05:43Z",
        "specimen": {
          "reference": "urn:uuid:a14d57b4-166d-4edb-b869-1257cbadebb6"
        }
      }
    },
    {
      "fullUrl": "urn:uuid:d36c0f9d-181d-438d-8901-89c8443b7eea",
      "resource": {
        "resourceType": "Device",
        "id": "d36c0f9d-181d-438d-8901-89c8443b7eea",
        "deviceName": [
          {
            "name": "SYNDERAI Synthetic Generator",
            "type": "manufacturer-name"
          }
        ],
        "version": [
          {
            "value": "5.0"
          }
        ],
        "text": {
          "status": "generated",
          "div": "<div xmlns=\"http://www.w3.org/1999/xhtml\">SYNDERAI Synthetic Generator v5.0</div>"
        },
        "status": "active\"",
        "distinctIdentifier": "synderai-generator-50",
        "manufacturer": "SYNDERAI Project"
      }
    },
    {
      "fullUrl": "urn:uuid:12c972cc-b75d-41e6-8f6f-6e87a83a9c04",
      "resource": {
        "resourceType": "Provenance",
        "id": "12c972cc-b75d-41e6-8f6f-6e87a83a9c04",
        "target": [
          {
            "reference": "Patient/c09a24ab-f1a9-4d16-b605-1fa3fc118765"
          },
          {
            "reference": "Bundle/97b064fc-a0c5-46b1-b2c0-b654a11eb3d6"
          },
          {
            "reference": "Composition/0e453200-1ecb-49e1-985e-3081f81d8920"
          },
          {
            "reference": "PractitionerRole/d6604f69-7124-448f-89b3-edfa9c351e4f"
          },
          {
            "reference": "Practitioner/6bbb6a04-b754-4622-a0fb-6a3ffd082678"
          },
          {
            "reference": "PractitionerRole/1f0f45d9-6130-43cb-9641-20a1dbeb2c53"
          },
          {
            "reference": "Organization/8c55675d-e717-491a-9354-57ce00f0d4ad"
          }
        ],
        "activity": {
          "text": "Synthetic Example Data Generation"
        },
        "policy": [
          "https://synderai.net/synderai-synthetic-data-policy"
        ],
        "agent": [
          {
            "type": {
              "text": "author"
            },
            "who": {
              "reference": "Device/d36c0f9d-181d-438d-8901-89c8443b7eea"
            }
          }
        ],
        "reason": [
          {
            "text": "Interoperability Testing and Training (non-clinical use)"
          }
        ],
        "text": {
          "status": "generated",
          "div": "<div xmlns=\"http://www.w3.org/1999/xhtml\">Provenance for SYNDERAI Synthetic Example Data Resource</div>"
        },
        "recorded": "2017-02-17T20:05:43Z"
      }
    },
    {
      "fullUrl": "urn:uuid:d6604f69-7124-448f-89b3-edfa9c351e4f",
      "resource": {
        "resourceType": "PractitionerRole",
        "id": "d6604f69-7124-448f-89b3-edfa9c351e4f",
        "meta": {
          "profile": [
            "http://hl7.eu/fhir/base/StructureDefinition/practitionerRole-eu"
          ]
        },
        "text": {
          "status": "generated",
          "div": "<div xmlns=\"http://www.w3.org/1999/xhtml\">Laboratory Role Id: d6604f69-7124-448f-89b3-edfa9c351e4f</div>"
        },
        "practitioner": {
          "reference": "urn:uuid:6bbb6a04-b754-4622-a0fb-6a3ffd082678"
        }
      }
    },
    {
      "fullUrl": "urn:uuid:6bbb6a04-b754-4622-a0fb-6a3ffd082678",
      "resource": {
        "resourceType": "Practitioner",
        "id": "6bbb6a04-b754-4622-a0fb-6a3ffd082678",
        "meta": {
          "profile": [
            "http://hl7.eu/fhir/base/StructureDefinition/practitioner-eu"
          ]
        },
        "identifier": [
          {
            "assigner": {
              "display": "HL7 Europe"
            },
            "system": "urn:oid:2.16.840.1.113883.2.51.999",
            "value": "6295f84a-a040-4204-bef8-f7f587e3f3a4"
          }
        ],
        "name": [
          {
            "prefix": [
              "dr"
            ],
            "given": [
              "Ex"
            ],
            "family": "Ample"
          }
        ],
        "address": [
          {
            "line": [
              "Laboratoire Central Europenne",
              "Boulevard du Jardin Botanique 32"
            ],
            "postalCode": "1000",
            "city": "Brussels",
            "country": "Belgium"
          }
        ],
        "text": {
          "status": "generated",
          "div": "<div xmlns=\"http://www.w3.org/1999/xhtml\">Laboratory: Laboratoire Central Europenne, 1000 Brussels, Belgium</div>"
        }
      }
    }
  ],
  "type": "document",
  "timestamp": "2017-02-17T20:05:43Z"
}
