{
  "resourceType": "Bundle",
  "id": "612a001f-6db7-4dc2-af38-3b11606c8cf1",
  "meta": {
    "profile": [
      "http://hl7.eu/fhir/laboratory/StructureDefinition/Bundle-eu-lab"
    ]
  },
  "identifier": {
    "assigner": {
      "display": "HL7 Europe"
    },
    "system": "urn:oid:2.16.840.1.113883.2.51.999",
    "value": "cd0de541-4a4b-4918-9260-85ed8f08ae1f"
  },
  "entry": [
    {
      "fullUrl": "urn:uuid:3b4f9914-b19b-4c1c-872b-f332996a3069",
      "resource": {
        "resourceType": "Composition",
        "id": "3b4f9914-b19b-4c1c-872b-f332996a3069",
        "meta": {
          "profile": [
            "http://hl7.eu/fhir/laboratory/StructureDefinition/Composition-eu-lab"
          ]
        },
        "identifier": {
          "assigner": {
            "display": "HL7 Europe"
          },
          "system": "urn:oid:2.16.840.1.113883.2.51.999",
          "value": "f83a0a7b-0089-4840-ad17-755dee5745f4"
        },
        "author": [
          {
            "reference": "urn:uuid:507dd10a-7d29-455c-bc5d-e5b862e456f9"
          }
        ],
        "category": [
          {
            "coding": [
              {
                "code": "26436-6",
                "system": "http://loinc.org",
                "display": "Laboratory studies (set)"
              }
            ]
          }
        ],
        "type": {
          "coding": [
            {
              "code": "11502-2",
              "system": "http://loinc.org",
              "display": "Laboratory report"
            }
          ],
          "text": "Laboratory Report"
        },
        "section": [
          {
            "code": {
              "coding": [
                {
                  "code": "26436-6",
                  "system": "http://loinc.org",
                  "display": "Laboratory studies (set)"
                }
              ],
              "text": "Laboratory studies"
            },
            "section": [
              {
                "code": {
                  "coding": [
                    {
                      "code": "$18719-5",
                      "system": "http://loinc.org",
                      "display": "Chemistry studies (set)"
                    }
                  ],
                  "text": "Chemistry"
                },
                "entry": [
                  {
                    "reference": "urn:uuid:2fec93ea-7f95-44dc-a3ce-23537b33dd12"
                  },
                  {
                    "reference": "urn:uuid:79da2b2b-679a-4bf1-967a-c6a719921fc8"
                  },
                  {
                    "reference": "urn:uuid:09d9bf1e-6fae-4dde-8873-79dd4ca0b9cb"
                  },
                  {
                    "reference": "urn:uuid:0274fc25-c2b8-4a84-bad4-7014997a001b"
                  },
                  {
                    "reference": "urn:uuid:ed0cb928-09ab-42ff-bd77-a1496f8bde63"
                  },
                  {
                    "reference": "urn:uuid:027808ee-6419-4fd6-854e-d458dbaeb9e9"
                  },
                  {
                    "reference": "urn:uuid:6cd01459-d528-4cf4-b6f9-2ed0d31b8203"
                  },
                  {
                    "reference": "urn:uuid:b9a0085e-114e-4d9f-b58c-19ac4a4ff869"
                  },
                  {
                    "reference": "urn:uuid:dfc681e2-41e2-4adb-b7b6-4381be5e9dd2"
                  },
                  {
                    "reference": "urn:uuid:67237767-7854-42b8-acc4-fd55f14484e7"
                  },
                  {
                    "reference": "urn:uuid:0bfd9c67-e0e4-4687-9bed-578f4943ec23"
                  },
                  {
                    "reference": "urn:uuid:fff355b1-dbc1-45df-b789-42a83bc77964"
                  },
                  {
                    "reference": "urn:uuid:82a7e06b-9702-40ec-87c1-31dfce5dc89b"
                  },
                  {
                    "reference": "urn:uuid:69ad4cf2-b06f-43e1-9c20-a46d587c9d41"
                  },
                  {
                    "reference": "urn:uuid:9b3aca41-2f53-457f-942a-077c2302ba5f"
                  },
                  {
                    "reference": "urn:uuid:ec8e06b3-eaa7-4f35-a68f-cfc8dcffc3cd"
                  },
                  {
                    "reference": "urn:uuid:c41c7434-53b8-4561-afa0-1aee586969cf"
                  },
                  {
                    "reference": "urn:uuid:60e46713-a371-44f9-a013-40dafa230748"
                  }
                ],
                "text": {
                  "status": "generated",
                  "div": "<div xmlns=\"http://www.w3.org/1999/xhtml\"><h3>Chemistry</h3><table class=\"hl7__eu__lab__report\"><thead><tr><th>Test</th><th>10-JUN-2021</th><th>Reference&#xA0;Range</th><th>Unit</th></tr></thead><tbody><tr><td>Glucose [Mass/volume] in Serum or Plasma</td><td>86.7</td><td>70 - 140</td><td>mg/dL</td></tr><tr><td>Urea nitrogen [Mass/volume] in Serum or Plasma</td><td>13.4</td><td>7 - 25</td><td>mg/dL</td></tr><tr><td>Creatinine [Mass/volume] in Serum or Plasma</td><td><strong>2.0 H</strong></td><td>0.9 - 1.3</td><td>mg/dL</td></tr><tr><td>Calcium [Mass/volume] in Serum or Plasma</td><td>9.9</td><td>8.5 - 10.5</td><td>mg/dL</td></tr><tr><td>Sodium [Moles/volume] in Serum or Plasma</td><td>140.6</td><td>135 - 145</td><td>mmol/L</td></tr><tr><td>Potassium [Moles/volume] in Serum or Plasma</td><td>3.8</td><td>3.5 - 5.3</td><td>mmol/L</td></tr><tr><td>Chloride [Moles/volume] in Serum or Plasma</td><td>106.5</td><td>98 - 107</td><td>mmol/L</td></tr><tr><td>Carbon dioxide, total [Moles/volume] in Serum or Plasma</td><td><strong>21.8 L</strong></td><td>22 - 29</td><td>mmol/L</td></tr><tr><td>Ketones [Presence] in Urine by Test strip</td><td>Urine ketone test = +</td><td></td><td></td></tr><tr><td>Hemoglobin A1c/Hemoglobin.total in Blood</td><td><strong>3.3 L</strong></td><td>4.5 - 6.4</td><td>%</td></tr><tr><td>Glucose [Mass/volume] in Blood</td><td>86.7</td><td>70 - 140</td><td>mg/dL</td></tr><tr><td>Urea nitrogen [Mass/volume] in Blood</td><td>13.4</td><td>7 - 25</td><td>mg/dL</td></tr><tr><td>Creatinine [Mass/volume] in Blood</td><td><strong>1.4 H</strong></td><td>0.9 - 1.3</td><td>mg/dL</td></tr><tr><td>Calcium [Mass/volume] in Blood</td><td>9.9</td><td>8.6 - 10.2</td><td>mg/dL</td></tr><tr><td>Sodium [Moles/volume] in Blood</td><td>140.6</td><td>135 - 145</td><td>mmol/L</td></tr><tr><td>Potassium [Moles/volume] in Blood</td><td>3.8</td><td>3.5 - 5.1</td><td>mmol/L</td></tr><tr><td>Chloride [Moles/volume] in Blood</td><td>106.5</td><td>98 - 108</td><td>mmol/L</td></tr><tr><td>Carbon dioxide, total [Moles/volume] in Blood</td><td><strong>21.8 L</strong></td><td>22 - 32</td><td>mmol/L</td></tr></tbody></table></div>"
                },
                "title": "Chemistry"
              },
              {
                "code": {
                  "coding": [
                    {
                      "code": "$18729-4",
                      "system": "http://loinc.org",
                      "display": "Urinalysis studies (set)"
                    }
                  ],
                  "text": "Urinalysis"
                },
                "entry": [
                  {
                    "reference": "urn:uuid:1f33e0bb-b67a-4096-b73a-d09bebb6b395"
                  },
                  {
                    "reference": "urn:uuid:6f371aa4-4388-43ee-b7c7-2ee93b89596e"
                  },
                  {
                    "reference": "urn:uuid:02733946-ca00-4d85-9ba6-f206fb1f05b5"
                  },
                  {
                    "reference": "urn:uuid:31475691-96c9-4029-8672-5aac78ccd3a4"
                  },
                  {
                    "reference": "urn:uuid:08c133c0-bce4-4819-8b53-857ddc329f0a"
                  },
                  {
                    "reference": "urn:uuid:9f8278e9-6c8f-40a9-8f98-8674d0fbeb82"
                  },
                  {
                    "reference": "urn:uuid:bade4ce7-5ac1-4c30-93da-0baf7b3a177c"
                  },
                  {
                    "reference": "urn:uuid:e1c9b2de-e963-4151-a445-5831e24ab3fa"
                  },
                  {
                    "reference": "urn:uuid:23e12fba-6d62-459f-ae89-67e32b135158"
                  },
                  {
                    "reference": "urn:uuid:8cfa0fdc-d9a6-479b-95ef-2151946db242"
                  },
                  {
                    "reference": "urn:uuid:95364c5e-7a30-4ccc-873e-d26e98b59763"
                  },
                  {
                    "reference": "urn:uuid:43d5d6a4-c540-481d-8dda-7dc8519589d8"
                  }
                ],
                "text": {
                  "status": "generated",
                  "div": "<div xmlns=\"http://www.w3.org/1999/xhtml\"><h3>Urinalysis</h3><table class=\"hl7__eu__lab__report\"><thead><tr><th>Test</th><th>10-JUN-2021</th><th>Reference&#xA0;Range</th><th>Unit</th></tr></thead><tbody><tr><td>Glucose [Mass/volume] in Urine by Test strip</td><td><strong>0.7 L</strong></td><td>0.8 - 0</td><td>mg/dL</td></tr><tr><td>Glucose [Presence] in Urine by Test strip</td><td>++</td><td></td><td></td></tr><tr><td>Bilirubin.total [Mass/volume] in Urine by Test strip</td><td>0.5</td><td>0.2 - 1.5</td><td>mg/dL</td></tr><tr><td>Bilirubin.total [Presence] in Urine by Test strip</td><td>Finding of bilirubin in urine</td><td></td><td></td></tr><tr><td>Ketones [Mass/volume] in Urine by Test strip</td><td><strong>16.1 H</strong></td><td>0 - 4</td><td>mg/dL</td></tr><tr><td>Specific gravity of Urine by Test strip</td><td><strong>1.0 L</strong></td><td>1.01 - 1.03</td><td>{nominal}</td></tr><tr><td>pH of Urine by Test strip</td><td>5.8</td><td>4.5 - 7.5</td><td>pH</td></tr><tr><td>Protein [Mass/volume] in Urine by Test strip</td><td><strong>215.4 H</strong></td><td>0 - 150</td><td>mg/dL</td></tr><tr><td>Protein [Presence] in Urine by Test strip</td><td>Urine protein test = ++</td><td></td><td></td></tr><tr><td>Nitrite [Presence] in Urine by Test strip</td><td>Urine nitrite negative</td><td></td><td></td></tr><tr><td>Hemoglobin [Presence] in Urine by Test strip</td><td>Urine blood test = negative</td><td></td><td></td></tr><tr><td>Leukocyte esterase [Presence] in Urine by Test strip</td><td>Urine leukocyte test negative</td><td></td><td></td></tr></tbody></table></div>"
                },
                "title": "Urinalysis"
              },
              {
                "code": {
                  "coding": [
                    {
                      "code": "$LP7846-1",
                      "system": "http://loinc.org",
                      "display": "Specimen information"
                    }
                  ],
                  "text": "Specimen information"
                },
                "entry": [
                  {
                    "reference": "urn:uuid:ca6e4d32-1071-4c1c-9659-bab2028ec592"
                  },
                  {
                    "reference": "urn:uuid:ebaef0f9-23fc-4fa8-9821-dcf24dfd113b"
                  },
                  {
                    "reference": "urn:uuid:e3f7e215-1f77-4195-bfb1-4525f69c1c42"
                  },
                  {
                    "reference": "urn:uuid:4a1dc5a3-d6a7-4c88-ad12-6d5ec9560b82"
                  }
                ],
                "text": {
                  "status": "generated",
                  "div": "<div xmlns=\"http://www.w3.org/1999/xhtml\"><h3>Specimen information</h3><table class=\"hl7__eu__lab__report\"><thead><tr><th>Test</th><th>10-JUN-2021</th><th>Specimen</th><th></th></tr></thead><tbody><tr><td>Appearance of Urine</td><td>Cloudy urine</td><td>Urine</td><td></td></tr><tr><td>Odor of Urine</td><td>Urine smell ammoniacal</td><td>Urine</td><td></td></tr><tr><td>Clarity of Urine</td><td>Translucent</td><td>Urine</td><td></td></tr><tr><td>Color of Urine</td><td>Brown color</td><td>Urine</td><td></td></tr></tbody></table></div>"
                },
                "title": "Specimen information"
              }
            ],
            "title": "Laboratory Report"
          },
          {
            "text": {
              "status": "generated",
              "div": "<div xmlns=\"http://www.w3.org/1999/xhtml\"><h3>Annotation</h3><table class=\"hl7__eu__lab__report\"><tr><th>Conclusion and Recommendations based on this report and previous findings known to us</th></tr><tr><td>The patient shows mildly elevated creatinine, low total CO₂, and significant proteinuria, ketonuria, and glucosuria, with low urine specific gravity and abnormal urine appearance (cloudy, brown, ammoniacal). HbA1c is low, suggesting no chronic hyperglycemia. Findings indicate possible acute or chronic kidney dysfunction with impaired concentrating ability and possible tubular damage. Urine findings may also suggest urinary tract pathology. Clinical correlation and further nephrological/urological evaluation are recommended.</td></tr></table></div>"
            },
            "code": {
              "coding": [
                {
                  "system": "http://loinc.org",
                  "code": "48767-8",
                  "display": "Annotation comment"
                }
              ]
            },
            "title": "Annotation comment"
          }
        ],
        "status": "final",
        "subject": {
          "reference": "urn:uuid:bbb01769-322f-4a6c-9214-73f1f16a486f",
          "display": "Pelayo Casal"
        },
        "date": "2021-06-10T07:38:59Z",
        "title": "Laboratory Report",
        "confidentiality": "N"
      }
    },
    {
      "fullUrl": "urn:uuid:22245344-7729-46d3-ae86-1486160ddeeb",
      "resource": {
        "resourceType": "DiagnosticReport",
        "id": "22245344-7729-46d3-ae86-1486160ddeeb",
        "meta": {
          "profile": [
            "http://hl7.eu/fhir/laboratory/StructureDefinition/DiagnosticReport-eu-lab"
          ]
        },
        "identifier": [
          {
            "assigner": {
              "display": "HL7 Europe"
            },
            "system": "urn:oid:2.16.840.1.113883.2.51.999",
            "value": "77eec305-c1a0-4e0d-a64f-2a8378f830e7"
          }
        ],
        "extension": [
          {
            "url": "http://hl7.org/fhir/5.0/StructureDefinition/extension-DiagnosticReport.composition",
            "valueReference": {
              "reference": "urn:uuid:f83a0a7b-0089-4840-ad17-755dee5745f4"
            }
          }
        ],
        "category": [
          {
            "coding": [
              {
                "code": "26436-6",
                "system": "http://loinc.org",
                "display": "Laboratory studies (set)"
              }
            ]
          }
        ],
        "specimen": [
          {
            "reference": "urn:uuid:ade15049-d4d6-4520-8abf-fad1b209aeeb"
          },
          {
            "reference": "urn:uuid:6b9922c2-b3c3-44c6-9c06-855b7a7119d8"
          },
          {
            "reference": "urn:uuid:b2ce43f3-8180-49af-a27f-670c46ec8c2b"
          }
        ],
        "result": [
          {
            "reference": "urn:uuid:2fec93ea-7f95-44dc-a3ce-23537b33dd12"
          },
          {
            "reference": "urn:uuid:79da2b2b-679a-4bf1-967a-c6a719921fc8"
          },
          {
            "reference": "urn:uuid:09d9bf1e-6fae-4dde-8873-79dd4ca0b9cb"
          },
          {
            "reference": "urn:uuid:0274fc25-c2b8-4a84-bad4-7014997a001b"
          },
          {
            "reference": "urn:uuid:ed0cb928-09ab-42ff-bd77-a1496f8bde63"
          },
          {
            "reference": "urn:uuid:027808ee-6419-4fd6-854e-d458dbaeb9e9"
          },
          {
            "reference": "urn:uuid:6cd01459-d528-4cf4-b6f9-2ed0d31b8203"
          },
          {
            "reference": "urn:uuid:b9a0085e-114e-4d9f-b58c-19ac4a4ff869"
          },
          {
            "reference": "urn:uuid:ca6e4d32-1071-4c1c-9659-bab2028ec592"
          },
          {
            "reference": "urn:uuid:ebaef0f9-23fc-4fa8-9821-dcf24dfd113b"
          },
          {
            "reference": "urn:uuid:e3f7e215-1f77-4195-bfb1-4525f69c1c42"
          },
          {
            "reference": "urn:uuid:4a1dc5a3-d6a7-4c88-ad12-6d5ec9560b82"
          },
          {
            "reference": "urn:uuid:1f33e0bb-b67a-4096-b73a-d09bebb6b395"
          },
          {
            "reference": "urn:uuid:6f371aa4-4388-43ee-b7c7-2ee93b89596e"
          },
          {
            "reference": "urn:uuid:02733946-ca00-4d85-9ba6-f206fb1f05b5"
          },
          {
            "reference": "urn:uuid:31475691-96c9-4029-8672-5aac78ccd3a4"
          },
          {
            "reference": "urn:uuid:08c133c0-bce4-4819-8b53-857ddc329f0a"
          },
          {
            "reference": "urn:uuid:dfc681e2-41e2-4adb-b7b6-4381be5e9dd2"
          },
          {
            "reference": "urn:uuid:9f8278e9-6c8f-40a9-8f98-8674d0fbeb82"
          },
          {
            "reference": "urn:uuid:bade4ce7-5ac1-4c30-93da-0baf7b3a177c"
          },
          {
            "reference": "urn:uuid:e1c9b2de-e963-4151-a445-5831e24ab3fa"
          },
          {
            "reference": "urn:uuid:23e12fba-6d62-459f-ae89-67e32b135158"
          },
          {
            "reference": "urn:uuid:8cfa0fdc-d9a6-479b-95ef-2151946db242"
          },
          {
            "reference": "urn:uuid:95364c5e-7a30-4ccc-873e-d26e98b59763"
          },
          {
            "reference": "urn:uuid:43d5d6a4-c540-481d-8dda-7dc8519589d8"
          },
          {
            "reference": "urn:uuid:67237767-7854-42b8-acc4-fd55f14484e7"
          },
          {
            "reference": "urn:uuid:0bfd9c67-e0e4-4687-9bed-578f4943ec23"
          },
          {
            "reference": "urn:uuid:fff355b1-dbc1-45df-b789-42a83bc77964"
          },
          {
            "reference": "urn:uuid:82a7e06b-9702-40ec-87c1-31dfce5dc89b"
          },
          {
            "reference": "urn:uuid:69ad4cf2-b06f-43e1-9c20-a46d587c9d41"
          },
          {
            "reference": "urn:uuid:9b3aca41-2f53-457f-942a-077c2302ba5f"
          },
          {
            "reference": "urn:uuid:ec8e06b3-eaa7-4f35-a68f-cfc8dcffc3cd"
          },
          {
            "reference": "urn:uuid:c41c7434-53b8-4561-afa0-1aee586969cf"
          },
          {
            "reference": "urn:uuid:60e46713-a371-44f9-a013-40dafa230748"
          }
        ],
        "status": "registered",
        "code": {
          "coding": [
            {
              "code": "11502-2",
              "system": "http://loinc.org",
              "display": "Laboratory report"
            }
          ]
        },
        "subject": {
          "reference": "urn:uuid:bbb01769-322f-4a6c-9214-73f1f16a486f",
          "display": "Pelayo Casal"
        }
      }
    },
    {
      "fullUrl": "urn:uuid:bbb01769-322f-4a6c-9214-73f1f16a486f",
      "resource": {
        "resourceType": "Patient",
        "id": "bbb01769-322f-4a6c-9214-73f1f16a486f",
        "meta": {
          "security": [
            {
              "system": "http://terminology.hl7.org/CodeSystem/v3-ActReason",
              "code": "HTEST"
            },
            {
              "system": "http://terminology.hl7.org/CodeSystem/v3-ActReason",
              "code": "TRAIN"
            }
          ],
          "tag": [
            {
              "system": "https://synderai.net/fhir/CodeSystem/tags",
              "code": "synthetic",
              "display": "SYNDERAI Synthetic data"
            }
          ],
          "profile": [
            "http://hl7.eu/fhir/base/StructureDefinition/patient-eu-core"
          ]
        },
        "identifier": [
          {
            "type": {
              "coding": [
                {
                  "code": "PT",
                  "system": "http://terminology.hl7.org/CodeSystem/v2-0203"
                }
              ]
            },
            "system": "http://ec.europa.eu/identifier/eci",
            "value": "7707-510028-7"
          },
          {
            "type": {
              "coding": [
                {
                  "code": "MR",
                  "system": "http://terminology.hl7.org/CodeSystem/v2-0203"
                }
              ]
            },
            "system": "http://local.setting.eu/identifier",
            "value": "d88e82c6-df33-82d2-8538-f8b57da06491"
          }
        ],
        "name": [
          {
            "family": "Casal"
          },
          {
            "given": [
              "Pelayo"
            ]
          },
          {
            "text": "Pelayo Casal"
          }
        ],
        "address": [
          {
            "line": [
              "Callejón de Ignacio Pedrosa 67 Apt. 68 "
            ],
            "use": "home",
            "type": "physical",
            "postalCode": "35001",
            "city": "Las Palmas",
            "country": "Spain"
          }
        ],
        "telecom": [
          {
            "system": "phone",
            "value": "+34 875724898"
          }
        ],
        "extension": [
          {
            "url": "http://hl7.org/fhir/StructureDefinition/patient-nationality",
            "valueCodeableConcept": {
              "coding": [
                {
                  "code": "ES",
                  "system": "http://hl7.org/fhir/ValueSet/country"
                }
              ]
            }
          }
        ],
        "text": {
          "status": "generated",
          "div": "<div xmlns=\"http://www.w3.org/1999/xhtml\"><table class=\"hl7__ips\"><tr><td>Pelayo Casal</td><td>male</td><td>19-Apr-1940</td></tr></table></div>"
        },
        "gender": "male",
        "birthDate": "1940-04-19"
      }
    },
    {
      "fullUrl": "urn:uuid:8b9a2f6b-097b-4ff8-a852-9eecf2d54a4e",
      "resource": {
        "resourceType": "ServiceRequest",
        "id": "8b9a2f6b-097b-4ff8-a852-9eecf2d54a4e",
        "meta": {
          "profile": [
            "http://hl7.eu/fhir/laboratory/StructureDefinition/ServiceRequest-eu-lab"
          ]
        },
        "identifier": [
          {
            "system": "http://example.org",
            "value": "251611ac-ece5-4ae8-b073-5751d3729278"
          }
        ],
        "specimen": [
          {
            "reference": "urn:uuid:ade15049-d4d6-4520-8abf-fad1b209aeeb"
          },
          {
            "reference": "urn:uuid:6b9922c2-b3c3-44c6-9c06-855b7a7119d8"
          },
          {
            "reference": "urn:uuid:b2ce43f3-8180-49af-a27f-670c46ec8c2b"
          }
        ],
        "reasonCode": [
          {
            "coding": [
              {
                "code": "431856006",
                "system": "http://snomed.info/sct",
                "display": "Chronic kidney disease stage 2"
              }
            ]
          },
          {
            "coding": [
              {
                "code": "90781000119102",
                "system": "http://snomed.info/sct",
                "display": "Microalbuminuria due to type 2 diabetes mellitus"
              }
            ]
          },
          {
            "coding": [
              {
                "code": "127013003",
                "system": "http://snomed.info/sct",
                "display": "Disorder of kidney due to diabetes mellitus"
              }
            ]
          },
          {
            "coding": [
              {
                "code": "431855005",
                "system": "http://snomed.info/sct",
                "display": "Chronic kidney disease stage 1"
              }
            ]
          },
          {
            "coding": [
              {
                "code": "64859006",
                "system": "http://snomed.info/sct",
                "display": "Osteoporosis"
              }
            ]
          },
          {
            "coding": [
              {
                "code": "414545008",
                "system": "http://snomed.info/sct",
                "display": "Ischemic heart disease"
              }
            ]
          },
          {
            "coding": [
              {
                "code": "237602007",
                "system": "http://snomed.info/sct",
                "display": "Metabolic syndrome X"
              }
            ]
          },
          {
            "coding": [
              {
                "code": "59621000",
                "system": "http://snomed.info/sct",
                "display": "Essential hypertension"
              }
            ]
          },
          {
            "coding": [
              {
                "code": "271737000",
                "system": "http://snomed.info/sct",
                "display": "Anemia"
              }
            ]
          },
          {
            "coding": [
              {
                "code": "15777000",
                "system": "http://snomed.info/sct",
                "display": "Prediabetes"
              }
            ]
          }
        ],
        "status": "active",
        "intent": "order",
        "code": {
          "coding": [
            {
              "code": "108252007",
              "system": "http://snomed.info/sct",
              "display": "Laboratory procedure"
            }
          ]
        },
        "subject": {
          "reference": "urn:uuid:bbb01769-322f-4a6c-9214-73f1f16a486f",
          "display": "Pelayo Casal"
        },
        "requester": {
          "reference": "urn:uuid:9e4883a6-3124-443e-9872-766bd571080e"
        }
      }
    },
    {
      "fullUrl": "urn:uuid:9e4883a6-3124-443e-9872-766bd571080e",
      "resource": {
        "resourceType": "PractitionerRole",
        "id": "9e4883a6-3124-443e-9872-766bd571080e",
        "meta": {
          "profile": [
            "http://hl7.eu/fhir/base/StructureDefinition/practitionerRole-eu"
          ]
        },
        "text": {
          "status": "generated",
          "div": "<div xmlns=\"http://www.w3.org/1999/xhtml\">Provider Role Id: 9e4883a6-3124-443e-9872-766bd571080e</div>"
        },
        "organization": {
          "reference": "urn:uuid:8ac46f22-4755-4332-a7f5-d71ed5b30411"
        }
      }
    },
    {
      "fullUrl": "urn:uuid:8ac46f22-4755-4332-a7f5-d71ed5b30411",
      "resource": {
        "resourceType": "Organization",
        "id": "8ac46f22-4755-4332-a7f5-d71ed5b30411",
        "meta": {
          "profile": [
            "http://hl7.eu/fhir/base/StructureDefinition/organization-eu"
          ]
        },
        "identifier": [
          {
            "assigner": {
              "display": "HL7 Europe"
            },
            "system": "urn:oid:2.16.840.1.113883.2.51.999",
            "value": "af5157c0-51c4-494d-9d31-03ac87b48c1b"
          }
        ],
        "address": [
          {
            "country": "Spain"
          }
        ],
        "text": {
          "status": "generated",
          "div": "<div xmlns=\"http://www.w3.org/1999/xhtml\">Provider Organization: Centro de Salud de Guanarteme</div>"
        },
        "name": "Centro de Salud de Guanarteme"
      }
    },
    {
      "fullUrl": "urn:uuid:ade15049-d4d6-4520-8abf-fad1b209aeeb",
      "resource": {
        "resourceType": "Specimen",
        "id": "ade15049-d4d6-4520-8abf-fad1b209aeeb",
        "meta": {
          "profile": [
            "http://hl7.eu/fhir/laboratory/StructureDefinition/Specimen-eu-lab"
          ]
        },
        "collection": {
          "collectedDateTime": "2021-06-10"
        },
        "text": {
          "status": "generated",
          "div": "<div xmlns=\"http://www.w3.org/1999/xhtml\"><table class=\"hl7__eu__lab__report\"><tr><th>Specimen</th><th>Collection Date</th></tr><tr><td>Acellular blood (serum or plasma) specimen</td><td><span class=\"nb\">10-Jun-2021</span></td></tr></table></div>"
        },
        "type": {
          "coding": [
            {
              "code": "122592007",
              "system": "http://snomed.info/sct",
              "display": "Acellular blood (serum or plasma) specimen"
            }
          ]
        }
      }
    },
    {
      "fullUrl": "urn:uuid:6b9922c2-b3c3-44c6-9c06-855b7a7119d8",
      "resource": {
        "resourceType": "Specimen",
        "id": "6b9922c2-b3c3-44c6-9c06-855b7a7119d8",
        "meta": {
          "profile": [
            "http://hl7.eu/fhir/laboratory/StructureDefinition/Specimen-eu-lab"
          ]
        },
        "collection": {
          "collectedDateTime": "2021-06-10"
        },
        "text": {
          "status": "generated",
          "div": "<div xmlns=\"http://www.w3.org/1999/xhtml\"><table class=\"hl7__eu__lab__report\"><tr><th>Specimen</th><th>Collection Date</th></tr><tr><td>Urine specimen</td><td><span class=\"nb\">10-Jun-2021</span></td></tr></table></div>"
        },
        "type": {
          "coding": [
            {
              "code": "122575003",
              "system": "http://snomed.info/sct",
              "display": "Urine specimen"
            }
          ]
        }
      }
    },
    {
      "fullUrl": "urn:uuid:b2ce43f3-8180-49af-a27f-670c46ec8c2b",
      "resource": {
        "resourceType": "Specimen",
        "id": "b2ce43f3-8180-49af-a27f-670c46ec8c2b",
        "meta": {
          "profile": [
            "http://hl7.eu/fhir/laboratory/StructureDefinition/Specimen-eu-lab"
          ]
        },
        "collection": {
          "collectedDateTime": "2021-06-10"
        },
        "text": {
          "status": "generated",
          "div": "<div xmlns=\"http://www.w3.org/1999/xhtml\"><table class=\"hl7__eu__lab__report\"><tr><th>Specimen</th><th>Collection Date</th></tr><tr><td>Whole blood specimen (specimen)</td><td><span class=\"nb\">10-Jun-2021</span></td></tr></table></div>"
        },
        "type": {
          "coding": [
            {
              "code": "258580003",
              "system": "http://snomed.info/sct",
              "display": "Whole blood specimen (specimen)"
            }
          ]
        }
      }
    },
    {
      "fullUrl": "urn:uuid:2fec93ea-7f95-44dc-a3ce-23537b33dd12",
      "resource": {
        "resourceType": "Observation",
        "id": "2fec93ea-7f95-44dc-a3ce-23537b33dd12",
        "meta": {
          "profile": [
            "http://hl7.eu/fhir/laboratory/StructureDefinition/Observation-resultslab-eu-lab"
          ]
        },
        "performer": [
          {
            "display": "The Central European Lab"
          }
        ],
        "category": [
          {
            "coding": [
              {
                "system": "http://terminology.hl7.org/CodeSystem/observation-category",
                "code": "laboratory"
              }
            ]
          }
        ],
        "code": {
          "coding": [
            {
              "code": "2345-7",
              "system": "http://loinc.org",
              "display": "Glucose [Mass/volume] in Serum or Plasma"
            }
          ],
          "text": "Glucose [Mass/volume] in Serum or Plasma"
        },
        "valueQuantity": {
          "system": "http://unitsofmeasure.org",
          "value": 86.7,
          "unit": "mg/dL",
          "code": "mg/dL"
        },
        "referenceRange": [
          {
            "low": {
              "value": 70,
              "code": "mg/dL",
              "system": "http://unitsofmeasure.org"
            }
          },
          {
            "high": {
              "value": 140,
              "code": "mg/dL",
              "system": "http://unitsofmeasure.org"
            }
          }
        ],
        "text": {
          "status": "generated",
          "div": "<div xmlns=\"http://www.w3.org/1999/xhtml\"><table class=\"hl7__eu__lab__report\"><tr><th>Test</th><th>10-Jun-2021</th><th>Reference&#xA0;Range</th><th>Unit</th></tr><tr><td>Glucose [Mass/volume] in Serum or Plasma</td><td>86.7</td><td>70 - 140</td><td></td><td>mg/dL</td></tr></table></div>"
        },
        "status": "final",
        "subject": {
          "reference": "urn:uuid:bbb01769-322f-4a6c-9214-73f1f16a486f",
          "display": "Pelayo Casal"
        },
        "effectiveDateTime": "2021-06-10T05:38:59Z",
        "specimen": {
          "reference": "urn:uuid:ade15049-d4d6-4520-8abf-fad1b209aeeb"
        }
      }
    },
    {
      "fullUrl": "urn:uuid:79da2b2b-679a-4bf1-967a-c6a719921fc8",
      "resource": {
        "resourceType": "Observation",
        "id": "79da2b2b-679a-4bf1-967a-c6a719921fc8",
        "meta": {
          "profile": [
            "http://hl7.eu/fhir/laboratory/StructureDefinition/Observation-resultslab-eu-lab"
          ]
        },
        "performer": [
          {
            "display": "The Central European Lab"
          }
        ],
        "category": [
          {
            "coding": [
              {
                "system": "http://terminology.hl7.org/CodeSystem/observation-category",
                "code": "laboratory"
              }
            ]
          }
        ],
        "code": {
          "coding": [
            {
              "code": "3094-0",
              "system": "http://loinc.org",
              "display": "Urea nitrogen [Mass/volume] in Serum or Plasma"
            }
          ],
          "text": "Urea nitrogen [Mass/volume] in Serum or Plasma"
        },
        "valueQuantity": {
          "system": "http://unitsofmeasure.org",
          "value": 13.4,
          "unit": "mg/dL",
          "code": "mg/dL"
        },
        "referenceRange": [
          {
            "low": {
              "value": 7,
              "code": "mg/dL",
              "system": "http://unitsofmeasure.org"
            }
          },
          {
            "high": {
              "value": 25,
              "code": "mg/dL",
              "system": "http://unitsofmeasure.org"
            }
          }
        ],
        "text": {
          "status": "generated",
          "div": "<div xmlns=\"http://www.w3.org/1999/xhtml\"><table class=\"hl7__eu__lab__report\"><tr><th>Test</th><th>10-Jun-2021</th><th>Reference&#xA0;Range</th><th>Unit</th></tr><tr><td>Urea nitrogen [Mass/volume] in Serum or Plasma</td><td>13.4</td><td>7 - 25</td><td></td><td>mg/dL</td></tr></table></div>"
        },
        "status": "final",
        "subject": {
          "reference": "urn:uuid:bbb01769-322f-4a6c-9214-73f1f16a486f",
          "display": "Pelayo Casal"
        },
        "effectiveDateTime": "2021-06-10T05:38:59Z",
        "specimen": {
          "reference": "urn:uuid:ade15049-d4d6-4520-8abf-fad1b209aeeb"
        }
      }
    },
    {
      "fullUrl": "urn:uuid:09d9bf1e-6fae-4dde-8873-79dd4ca0b9cb",
      "resource": {
        "resourceType": "Observation",
        "id": "09d9bf1e-6fae-4dde-8873-79dd4ca0b9cb",
        "meta": {
          "profile": [
            "http://hl7.eu/fhir/laboratory/StructureDefinition/Observation-resultslab-eu-lab"
          ]
        },
        "performer": [
          {
            "display": "The Central European Lab"
          }
        ],
        "category": [
          {
            "coding": [
              {
                "system": "http://terminology.hl7.org/CodeSystem/observation-category",
                "code": "laboratory"
              }
            ]
          }
        ],
        "code": {
          "coding": [
            {
              "code": "2160-0",
              "system": "http://loinc.org",
              "display": "Creatinine [Mass/volume] in Serum or Plasma"
            }
          ],
          "text": "Creatinine [Mass/volume] in Serum or Plasma"
        },
        "valueQuantity": {
          "system": "http://unitsofmeasure.org",
          "value": 2,
          "unit": "mg/dL",
          "code": "mg/dL"
        },
        "referenceRange": [
          {
            "low": {
              "value": 0.9,
              "code": "mg/dL",
              "system": "http://unitsofmeasure.org"
            }
          },
          {
            "high": {
              "value": 1.3,
              "code": "mg/dL",
              "system": "http://unitsofmeasure.org"
            }
          }
        ],
        "interpretation": [
          {
            "coding": [
              {
                "code": "H",
                "system": "http://terminology.hl7.org/CodeSystem/v3-ObservationInterpretation",
                "display": "High"
              }
            ]
          }
        ],
        "text": {
          "status": "generated",
          "div": "<div xmlns=\"http://www.w3.org/1999/xhtml\"><table class=\"hl7__eu__lab__report\"><tr><th>Test</th><th>10-Jun-2021</th><th>Reference&#xA0;Range</th><th>Unit</th></tr><tr><td>Creatinine [Mass/volume] in Serum or Plasma</td><td>2.0</td><td>0.9 - 1.3</td><td>H</td><td>mg/dL</td></tr></table></div>"
        },
        "status": "final",
        "subject": {
          "reference": "urn:uuid:bbb01769-322f-4a6c-9214-73f1f16a486f",
          "display": "Pelayo Casal"
        },
        "effectiveDateTime": "2021-06-10T05:38:59Z",
        "specimen": {
          "reference": "urn:uuid:ade15049-d4d6-4520-8abf-fad1b209aeeb"
        }
      }
    },
    {
      "fullUrl": "urn:uuid:0274fc25-c2b8-4a84-bad4-7014997a001b",
      "resource": {
        "resourceType": "Observation",
        "id": "0274fc25-c2b8-4a84-bad4-7014997a001b",
        "meta": {
          "profile": [
            "http://hl7.eu/fhir/laboratory/StructureDefinition/Observation-resultslab-eu-lab"
          ]
        },
        "performer": [
          {
            "display": "The Central European Lab"
          }
        ],
        "category": [
          {
            "coding": [
              {
                "system": "http://terminology.hl7.org/CodeSystem/observation-category",
                "code": "laboratory"
              }
            ]
          }
        ],
        "code": {
          "coding": [
            {
              "code": "17861-6",
              "system": "http://loinc.org",
              "display": "Calcium [Mass/volume] in Serum or Plasma"
            }
          ],
          "text": "Calcium [Mass/volume] in Serum or Plasma"
        },
        "valueQuantity": {
          "system": "http://unitsofmeasure.org",
          "value": 9.9,
          "unit": "mg/dL",
          "code": "mg/dL"
        },
        "referenceRange": [
          {
            "low": {
              "value": 8.5,
              "code": "mg/dL",
              "system": "http://unitsofmeasure.org"
            }
          },
          {
            "high": {
              "value": 10.5,
              "code": "mg/dL",
              "system": "http://unitsofmeasure.org"
            }
          }
        ],
        "text": {
          "status": "generated",
          "div": "<div xmlns=\"http://www.w3.org/1999/xhtml\"><table class=\"hl7__eu__lab__report\"><tr><th>Test</th><th>10-Jun-2021</th><th>Reference&#xA0;Range</th><th>Unit</th></tr><tr><td>Calcium [Mass/volume] in Serum or Plasma</td><td>9.9</td><td>8.5 - 10.5</td><td></td><td>mg/dL</td></tr></table></div>"
        },
        "status": "final",
        "subject": {
          "reference": "urn:uuid:bbb01769-322f-4a6c-9214-73f1f16a486f",
          "display": "Pelayo Casal"
        },
        "effectiveDateTime": "2021-06-10T05:38:59Z",
        "specimen": {
          "reference": "urn:uuid:ade15049-d4d6-4520-8abf-fad1b209aeeb"
        }
      }
    },
    {
      "fullUrl": "urn:uuid:ed0cb928-09ab-42ff-bd77-a1496f8bde63",
      "resource": {
        "resourceType": "Observation",
        "id": "ed0cb928-09ab-42ff-bd77-a1496f8bde63",
        "meta": {
          "profile": [
            "http://hl7.eu/fhir/laboratory/StructureDefinition/Observation-resultslab-eu-lab"
          ]
        },
        "performer": [
          {
            "display": "The Central European Lab"
          }
        ],
        "category": [
          {
            "coding": [
              {
                "system": "http://terminology.hl7.org/CodeSystem/observation-category",
                "code": "laboratory"
              }
            ]
          }
        ],
        "code": {
          "coding": [
            {
              "code": "2951-2",
              "system": "http://loinc.org",
              "display": "Sodium [Moles/volume] in Serum or Plasma"
            }
          ],
          "text": "Sodium [Moles/volume] in Serum or Plasma"
        },
        "valueQuantity": {
          "system": "http://unitsofmeasure.org",
          "value": 140.6,
          "unit": "mmol/L",
          "code": "mmol/L"
        },
        "referenceRange": [
          {
            "low": {
              "value": 135,
              "code": "mmol/L",
              "system": "http://unitsofmeasure.org"
            }
          },
          {
            "high": {
              "value": 145,
              "code": "mmol/L",
              "system": "http://unitsofmeasure.org"
            }
          }
        ],
        "text": {
          "status": "generated",
          "div": "<div xmlns=\"http://www.w3.org/1999/xhtml\"><table class=\"hl7__eu__lab__report\"><tr><th>Test</th><th>10-Jun-2021</th><th>Reference&#xA0;Range</th><th>Unit</th></tr><tr><td>Sodium [Moles/volume] in Serum or Plasma</td><td>140.6</td><td>135 - 145</td><td></td><td>mmol/L</td></tr></table></div>"
        },
        "status": "final",
        "subject": {
          "reference": "urn:uuid:bbb01769-322f-4a6c-9214-73f1f16a486f",
          "display": "Pelayo Casal"
        },
        "effectiveDateTime": "2021-06-10T05:38:59Z",
        "specimen": {
          "reference": "urn:uuid:ade15049-d4d6-4520-8abf-fad1b209aeeb"
        }
      }
    },
    {
      "fullUrl": "urn:uuid:027808ee-6419-4fd6-854e-d458dbaeb9e9",
      "resource": {
        "resourceType": "Observation",
        "id": "027808ee-6419-4fd6-854e-d458dbaeb9e9",
        "meta": {
          "profile": [
            "http://hl7.eu/fhir/laboratory/StructureDefinition/Observation-resultslab-eu-lab"
          ]
        },
        "performer": [
          {
            "display": "The Central European Lab"
          }
        ],
        "category": [
          {
            "coding": [
              {
                "system": "http://terminology.hl7.org/CodeSystem/observation-category",
                "code": "laboratory"
              }
            ]
          }
        ],
        "code": {
          "coding": [
            {
              "code": "2823-3",
              "system": "http://loinc.org",
              "display": "Potassium [Moles/volume] in Serum or Plasma"
            }
          ],
          "text": "Potassium [Moles/volume] in Serum or Plasma"
        },
        "valueQuantity": {
          "system": "http://unitsofmeasure.org",
          "value": 3.8,
          "unit": "mmol/L",
          "code": "mmol/L"
        },
        "referenceRange": [
          {
            "low": {
              "value": 3.5,
              "code": "mmol/L",
              "system": "http://unitsofmeasure.org"
            }
          },
          {
            "high": {
              "value": 5.3,
              "code": "mmol/L",
              "system": "http://unitsofmeasure.org"
            }
          }
        ],
        "text": {
          "status": "generated",
          "div": "<div xmlns=\"http://www.w3.org/1999/xhtml\"><table class=\"hl7__eu__lab__report\"><tr><th>Test</th><th>10-Jun-2021</th><th>Reference&#xA0;Range</th><th>Unit</th></tr><tr><td>Potassium [Moles/volume] in Serum or Plasma</td><td>3.8</td><td>3.5 - 5.3</td><td></td><td>mmol/L</td></tr></table></div>"
        },
        "status": "final",
        "subject": {
          "reference": "urn:uuid:bbb01769-322f-4a6c-9214-73f1f16a486f",
          "display": "Pelayo Casal"
        },
        "effectiveDateTime": "2021-06-10T05:38:59Z",
        "specimen": {
          "reference": "urn:uuid:ade15049-d4d6-4520-8abf-fad1b209aeeb"
        }
      }
    },
    {
      "fullUrl": "urn:uuid:6cd01459-d528-4cf4-b6f9-2ed0d31b8203",
      "resource": {
        "resourceType": "Observation",
        "id": "6cd01459-d528-4cf4-b6f9-2ed0d31b8203",
        "meta": {
          "profile": [
            "http://hl7.eu/fhir/laboratory/StructureDefinition/Observation-resultslab-eu-lab"
          ]
        },
        "performer": [
          {
            "display": "The Central European Lab"
          }
        ],
        "category": [
          {
            "coding": [
              {
                "system": "http://terminology.hl7.org/CodeSystem/observation-category",
                "code": "laboratory"
              }
            ]
          }
        ],
        "code": {
          "coding": [
            {
              "code": "2075-0",
              "system": "http://loinc.org",
              "display": "Chloride [Moles/volume] in Serum or Plasma"
            }
          ],
          "text": "Chloride [Moles/volume] in Serum or Plasma"
        },
        "valueQuantity": {
          "system": "http://unitsofmeasure.org",
          "value": 106.5,
          "unit": "mmol/L",
          "code": "mmol/L"
        },
        "referenceRange": [
          {
            "low": {
              "value": 98,
              "code": "mmol/L",
              "system": "http://unitsofmeasure.org"
            }
          },
          {
            "high": {
              "value": 107,
              "code": "mmol/L",
              "system": "http://unitsofmeasure.org"
            }
          }
        ],
        "text": {
          "status": "generated",
          "div": "<div xmlns=\"http://www.w3.org/1999/xhtml\"><table class=\"hl7__eu__lab__report\"><tr><th>Test</th><th>10-Jun-2021</th><th>Reference&#xA0;Range</th><th>Unit</th></tr><tr><td>Chloride [Moles/volume] in Serum or Plasma</td><td>106.5</td><td>98 - 107</td><td></td><td>mmol/L</td></tr></table></div>"
        },
        "status": "final",
        "subject": {
          "reference": "urn:uuid:bbb01769-322f-4a6c-9214-73f1f16a486f",
          "display": "Pelayo Casal"
        },
        "effectiveDateTime": "2021-06-10T05:38:59Z",
        "specimen": {
          "reference": "urn:uuid:ade15049-d4d6-4520-8abf-fad1b209aeeb"
        }
      }
    },
    {
      "fullUrl": "urn:uuid:b9a0085e-114e-4d9f-b58c-19ac4a4ff869",
      "resource": {
        "resourceType": "Observation",
        "id": "b9a0085e-114e-4d9f-b58c-19ac4a4ff869",
        "meta": {
          "profile": [
            "http://hl7.eu/fhir/laboratory/StructureDefinition/Observation-resultslab-eu-lab"
          ]
        },
        "performer": [
          {
            "display": "The Central European Lab"
          }
        ],
        "category": [
          {
            "coding": [
              {
                "system": "http://terminology.hl7.org/CodeSystem/observation-category",
                "code": "laboratory"
              }
            ]
          }
        ],
        "code": {
          "coding": [
            {
              "code": "2028-9",
              "system": "http://loinc.org",
              "display": "Carbon dioxide, total [Moles/volume] in Serum or Plasma"
            }
          ],
          "text": "Carbon dioxide, total [Moles/volume] in Serum or Plasma"
        },
        "valueQuantity": {
          "system": "http://unitsofmeasure.org",
          "value": 21.8,
          "unit": "mmol/L",
          "code": "mmol/L"
        },
        "referenceRange": [
          {
            "low": {
              "value": 22,
              "code": "mmol/L",
              "system": "http://unitsofmeasure.org"
            }
          },
          {
            "high": {
              "value": 29,
              "code": "mmol/L",
              "system": "http://unitsofmeasure.org"
            }
          }
        ],
        "interpretation": [
          {
            "coding": [
              {
                "code": "L",
                "system": "http://terminology.hl7.org/CodeSystem/v3-ObservationInterpretation",
                "display": "Low"
              }
            ]
          }
        ],
        "text": {
          "status": "generated",
          "div": "<div xmlns=\"http://www.w3.org/1999/xhtml\"><table class=\"hl7__eu__lab__report\"><tr><th>Test</th><th>10-Jun-2021</th><th>Reference&#xA0;Range</th><th>Unit</th></tr><tr><td>Carbon dioxide, total [Moles/volume] in Serum or Plasma</td><td>21.8</td><td>22 - 29</td><td>L</td><td>mmol/L</td></tr></table></div>"
        },
        "status": "final",
        "subject": {
          "reference": "urn:uuid:bbb01769-322f-4a6c-9214-73f1f16a486f",
          "display": "Pelayo Casal"
        },
        "effectiveDateTime": "2021-06-10T05:38:59Z",
        "specimen": {
          "reference": "urn:uuid:ade15049-d4d6-4520-8abf-fad1b209aeeb"
        }
      }
    },
    {
      "fullUrl": "urn:uuid:ca6e4d32-1071-4c1c-9659-bab2028ec592",
      "resource": {
        "resourceType": "Observation",
        "id": "ca6e4d32-1071-4c1c-9659-bab2028ec592",
        "meta": {
          "profile": [
            "http://hl7.eu/fhir/laboratory/StructureDefinition/Observation-resultslab-eu-lab"
          ]
        },
        "performer": [
          {
            "display": "The Central European Lab"
          }
        ],
        "category": [
          {
            "coding": [
              {
                "system": "http://terminology.hl7.org/CodeSystem/observation-category",
                "code": "laboratory"
              }
            ]
          }
        ],
        "code": {
          "coding": [
            {
              "code": "5767-9",
              "system": "http://loinc.org",
              "display": "Appearance of Urine"
            }
          ],
          "text": "Appearance of Urine"
        },
        "text": {
          "status": "generated",
          "div": "<div xmlns=\"http://www.w3.org/1999/xhtml\"><table class=\"hl7__eu__lab__report\"><tr><th>Test</th><th>10-Jun-2021</th><th>Reference&#xA0;Range</th><th>Unit</th></tr><tr><td>Appearance of Urine</td></tr></table></div>"
        },
        "status": "final",
        "subject": {
          "reference": "urn:uuid:bbb01769-322f-4a6c-9214-73f1f16a486f",
          "display": "Pelayo Casal"
        },
        "effectiveDateTime": "2021-06-10T05:38:59Z",
        "specimen": {
          "reference": "urn:uuid:6b9922c2-b3c3-44c6-9c06-855b7a7119d8"
        }
      }
    },
    {
      "fullUrl": "urn:uuid:ebaef0f9-23fc-4fa8-9821-dcf24dfd113b",
      "resource": {
        "resourceType": "Observation",
        "id": "ebaef0f9-23fc-4fa8-9821-dcf24dfd113b",
        "meta": {
          "profile": [
            "http://hl7.eu/fhir/laboratory/StructureDefinition/Observation-resultslab-eu-lab"
          ]
        },
        "performer": [
          {
            "display": "The Central European Lab"
          }
        ],
        "category": [
          {
            "coding": [
              {
                "system": "http://terminology.hl7.org/CodeSystem/observation-category",
                "code": "laboratory"
              }
            ]
          }
        ],
        "code": {
          "coding": [
            {
              "code": "34533-0",
              "system": "http://loinc.org",
              "display": "Odor of Urine"
            }
          ],
          "text": "Odor of Urine"
        },
        "text": {
          "status": "generated",
          "div": "<div xmlns=\"http://www.w3.org/1999/xhtml\"><table class=\"hl7__eu__lab__report\"><tr><th>Test</th><th>10-Jun-2021</th><th>Reference&#xA0;Range</th><th>Unit</th></tr><tr><td>Odor of Urine</td></tr></table></div>"
        },
        "status": "final",
        "subject": {
          "reference": "urn:uuid:bbb01769-322f-4a6c-9214-73f1f16a486f",
          "display": "Pelayo Casal"
        },
        "effectiveDateTime": "2021-06-10T05:38:59Z",
        "specimen": {
          "reference": "urn:uuid:6b9922c2-b3c3-44c6-9c06-855b7a7119d8"
        }
      }
    },
    {
      "fullUrl": "urn:uuid:e3f7e215-1f77-4195-bfb1-4525f69c1c42",
      "resource": {
        "resourceType": "Observation",
        "id": "e3f7e215-1f77-4195-bfb1-4525f69c1c42",
        "meta": {
          "profile": [
            "http://hl7.eu/fhir/laboratory/StructureDefinition/Observation-resultslab-eu-lab"
          ]
        },
        "performer": [
          {
            "display": "The Central European Lab"
          }
        ],
        "category": [
          {
            "coding": [
              {
                "system": "http://terminology.hl7.org/CodeSystem/observation-category",
                "code": "laboratory"
              }
            ]
          }
        ],
        "code": {
          "coding": [
            {
              "code": "32167-9",
              "system": "http://loinc.org",
              "display": "Clarity of Urine"
            }
          ],
          "text": "Clarity of Urine"
        },
        "text": {
          "status": "generated",
          "div": "<div xmlns=\"http://www.w3.org/1999/xhtml\"><table class=\"hl7__eu__lab__report\"><tr><th>Test</th><th>10-Jun-2021</th><th>Reference&#xA0;Range</th><th>Unit</th></tr><tr><td>Clarity of Urine</td></tr></table></div>"
        },
        "status": "final",
        "subject": {
          "reference": "urn:uuid:bbb01769-322f-4a6c-9214-73f1f16a486f",
          "display": "Pelayo Casal"
        },
        "effectiveDateTime": "2021-06-10T05:38:59Z",
        "specimen": {
          "reference": "urn:uuid:6b9922c2-b3c3-44c6-9c06-855b7a7119d8"
        }
      }
    },
    {
      "fullUrl": "urn:uuid:4a1dc5a3-d6a7-4c88-ad12-6d5ec9560b82",
      "resource": {
        "resourceType": "Observation",
        "id": "4a1dc5a3-d6a7-4c88-ad12-6d5ec9560b82",
        "meta": {
          "profile": [
            "http://hl7.eu/fhir/laboratory/StructureDefinition/Observation-resultslab-eu-lab"
          ]
        },
        "performer": [
          {
            "display": "The Central European Lab"
          }
        ],
        "category": [
          {
            "coding": [
              {
                "system": "http://terminology.hl7.org/CodeSystem/observation-category",
                "code": "laboratory"
              }
            ]
          }
        ],
        "code": {
          "coding": [
            {
              "code": "5778-6",
              "system": "http://loinc.org",
              "display": "Color of Urine"
            }
          ],
          "text": "Color of Urine"
        },
        "text": {
          "status": "generated",
          "div": "<div xmlns=\"http://www.w3.org/1999/xhtml\"><table class=\"hl7__eu__lab__report\"><tr><th>Test</th><th>10-Jun-2021</th><th>Reference&#xA0;Range</th><th>Unit</th></tr><tr><td>Color of Urine</td></tr></table></div>"
        },
        "status": "final",
        "subject": {
          "reference": "urn:uuid:bbb01769-322f-4a6c-9214-73f1f16a486f",
          "display": "Pelayo Casal"
        },
        "effectiveDateTime": "2021-06-10T05:38:59Z",
        "specimen": {
          "reference": "urn:uuid:6b9922c2-b3c3-44c6-9c06-855b7a7119d8"
        }
      }
    },
    {
      "fullUrl": "urn:uuid:1f33e0bb-b67a-4096-b73a-d09bebb6b395",
      "resource": {
        "resourceType": "Observation",
        "id": "1f33e0bb-b67a-4096-b73a-d09bebb6b395",
        "meta": {
          "profile": [
            "http://hl7.eu/fhir/laboratory/StructureDefinition/Observation-resultslab-eu-lab"
          ]
        },
        "performer": [
          {
            "display": "The Central European Lab"
          }
        ],
        "category": [
          {
            "coding": [
              {
                "system": "http://terminology.hl7.org/CodeSystem/observation-category",
                "code": "laboratory"
              }
            ]
          }
        ],
        "code": {
          "coding": [
            {
              "code": "5792-7",
              "system": "http://loinc.org",
              "display": "Glucose [Mass/volume] in Urine by Test strip"
            }
          ],
          "text": "Glucose [Mass/volume] in Urine by Test strip"
        },
        "valueQuantity": {
          "system": "http://unitsofmeasure.org",
          "value": 0.7,
          "unit": "mg/dL",
          "code": "mg/dL"
        },
        "referenceRange": [
          {
            "low": {
              "value": 0.8,
              "code": "mg/dL",
              "system": "http://unitsofmeasure.org"
            }
          },
          {
            "high": {
              "value": 0,
              "code": "mg/dL",
              "system": "http://unitsofmeasure.org"
            }
          }
        ],
        "interpretation": [
          {
            "coding": [
              {
                "code": "L",
                "system": "http://terminology.hl7.org/CodeSystem/v3-ObservationInterpretation",
                "display": "Low"
              }
            ]
          }
        ],
        "text": {
          "status": "generated",
          "div": "<div xmlns=\"http://www.w3.org/1999/xhtml\"><table class=\"hl7__eu__lab__report\"><tr><th>Test</th><th>10-Jun-2021</th><th>Reference&#xA0;Range</th><th>Unit</th></tr><tr><td>Glucose [Mass/volume] in Urine by Test strip</td><td>0.7</td><td>0.8 - 0</td><td>L</td><td>mg/dL</td></tr></table></div>"
        },
        "status": "final",
        "subject": {
          "reference": "urn:uuid:bbb01769-322f-4a6c-9214-73f1f16a486f",
          "display": "Pelayo Casal"
        },
        "effectiveDateTime": "2021-06-10T05:38:59Z",
        "specimen": {
          "reference": "urn:uuid:6b9922c2-b3c3-44c6-9c06-855b7a7119d8"
        }
      }
    },
    {
      "fullUrl": "urn:uuid:6f371aa4-4388-43ee-b7c7-2ee93b89596e",
      "resource": {
        "resourceType": "Observation",
        "id": "6f371aa4-4388-43ee-b7c7-2ee93b89596e",
        "meta": {
          "profile": [
            "http://hl7.eu/fhir/laboratory/StructureDefinition/Observation-resultslab-eu-lab"
          ]
        },
        "performer": [
          {
            "display": "The Central European Lab"
          }
        ],
        "category": [
          {
            "coding": [
              {
                "system": "http://terminology.hl7.org/CodeSystem/observation-category",
                "code": "laboratory"
              }
            ]
          }
        ],
        "code": {
          "coding": [
            {
              "code": "25428-4",
              "system": "http://loinc.org",
              "display": "Glucose [Presence] in Urine by Test strip"
            }
          ],
          "text": "Glucose [Presence] in Urine by Test strip"
        },
        "text": {
          "status": "generated",
          "div": "<div xmlns=\"http://www.w3.org/1999/xhtml\"><table class=\"hl7__eu__lab__report\"><tr><th>Test</th><th>10-Jun-2021</th><th>Reference&#xA0;Range</th><th>Unit</th></tr><tr><td>Glucose [Presence] in Urine by Test strip</td></tr></table></div>"
        },
        "status": "final",
        "subject": {
          "reference": "urn:uuid:bbb01769-322f-4a6c-9214-73f1f16a486f",
          "display": "Pelayo Casal"
        },
        "effectiveDateTime": "2021-06-10T05:38:59Z",
        "specimen": {
          "reference": "urn:uuid:6b9922c2-b3c3-44c6-9c06-855b7a7119d8"
        }
      }
    },
    {
      "fullUrl": "urn:uuid:02733946-ca00-4d85-9ba6-f206fb1f05b5",
      "resource": {
        "resourceType": "Observation",
        "id": "02733946-ca00-4d85-9ba6-f206fb1f05b5",
        "meta": {
          "profile": [
            "http://hl7.eu/fhir/laboratory/StructureDefinition/Observation-resultslab-eu-lab"
          ]
        },
        "performer": [
          {
            "display": "The Central European Lab"
          }
        ],
        "category": [
          {
            "coding": [
              {
                "system": "http://terminology.hl7.org/CodeSystem/observation-category",
                "code": "laboratory"
              }
            ]
          }
        ],
        "code": {
          "coding": [
            {
              "code": "20505-4",
              "system": "http://loinc.org",
              "display": "Bilirubin.total [Mass/volume] in Urine by Test strip"
            }
          ],
          "text": "Bilirubin.total [Mass/volume] in Urine by Test strip"
        },
        "valueQuantity": {
          "system": "http://unitsofmeasure.org",
          "value": 0.5,
          "unit": "mg/dL",
          "code": "mg/dL"
        },
        "referenceRange": [
          {
            "low": {
              "value": 0.2,
              "code": "mg/dL",
              "system": "http://unitsofmeasure.org"
            }
          },
          {
            "high": {
              "value": 1.5,
              "code": "mg/dL",
              "system": "http://unitsofmeasure.org"
            }
          }
        ],
        "text": {
          "status": "generated",
          "div": "<div xmlns=\"http://www.w3.org/1999/xhtml\"><table class=\"hl7__eu__lab__report\"><tr><th>Test</th><th>10-Jun-2021</th><th>Reference&#xA0;Range</th><th>Unit</th></tr><tr><td>Bilirubin.total [Mass/volume] in Urine by Test strip</td><td>0.5</td><td>0.2 - 1.5</td><td></td><td>mg/dL</td></tr></table></div>"
        },
        "status": "final",
        "subject": {
          "reference": "urn:uuid:bbb01769-322f-4a6c-9214-73f1f16a486f",
          "display": "Pelayo Casal"
        },
        "effectiveDateTime": "2021-06-10T05:38:59Z",
        "specimen": {
          "reference": "urn:uuid:6b9922c2-b3c3-44c6-9c06-855b7a7119d8"
        }
      }
    },
    {
      "fullUrl": "urn:uuid:31475691-96c9-4029-8672-5aac78ccd3a4",
      "resource": {
        "resourceType": "Observation",
        "id": "31475691-96c9-4029-8672-5aac78ccd3a4",
        "meta": {
          "profile": [
            "http://hl7.eu/fhir/laboratory/StructureDefinition/Observation-resultslab-eu-lab"
          ]
        },
        "performer": [
          {
            "display": "The Central European Lab"
          }
        ],
        "category": [
          {
            "coding": [
              {
                "system": "http://terminology.hl7.org/CodeSystem/observation-category",
                "code": "laboratory"
              }
            ]
          }
        ],
        "code": {
          "coding": [
            {
              "code": "5770-3",
              "system": "http://loinc.org",
              "display": "Bilirubin.total [Presence] in Urine by Test strip"
            }
          ],
          "text": "Bilirubin.total [Presence] in Urine by Test strip"
        },
        "text": {
          "status": "generated",
          "div": "<div xmlns=\"http://www.w3.org/1999/xhtml\"><table class=\"hl7__eu__lab__report\"><tr><th>Test</th><th>10-Jun-2021</th><th>Reference&#xA0;Range</th><th>Unit</th></tr><tr><td>Bilirubin.total [Presence] in Urine by Test strip</td></tr></table></div>"
        },
        "status": "final",
        "subject": {
          "reference": "urn:uuid:bbb01769-322f-4a6c-9214-73f1f16a486f",
          "display": "Pelayo Casal"
        },
        "effectiveDateTime": "2021-06-10T05:38:59Z",
        "specimen": {
          "reference": "urn:uuid:6b9922c2-b3c3-44c6-9c06-855b7a7119d8"
        }
      }
    },
    {
      "fullUrl": "urn:uuid:08c133c0-bce4-4819-8b53-857ddc329f0a",
      "resource": {
        "resourceType": "Observation",
        "id": "08c133c0-bce4-4819-8b53-857ddc329f0a",
        "meta": {
          "profile": [
            "http://hl7.eu/fhir/laboratory/StructureDefinition/Observation-resultslab-eu-lab"
          ]
        },
        "performer": [
          {
            "display": "The Central European Lab"
          }
        ],
        "category": [
          {
            "coding": [
              {
                "system": "http://terminology.hl7.org/CodeSystem/observation-category",
                "code": "laboratory"
              }
            ]
          }
        ],
        "code": {
          "coding": [
            {
              "code": "5797-6",
              "system": "http://loinc.org",
              "display": "Ketones [Mass/volume] in Urine by Test strip"
            }
          ],
          "text": "Ketones [Mass/volume] in Urine by Test strip"
        },
        "valueQuantity": {
          "system": "http://unitsofmeasure.org",
          "value": 16.1,
          "unit": "mg/dL",
          "code": "mg/dL"
        },
        "referenceRange": [
          {
            "low": {
              "value": 0,
              "code": "mg/dL",
              "system": "http://unitsofmeasure.org"
            }
          },
          {
            "high": {
              "value": 4,
              "code": "mg/dL",
              "system": "http://unitsofmeasure.org"
            }
          }
        ],
        "interpretation": [
          {
            "coding": [
              {
                "code": "H",
                "system": "http://terminology.hl7.org/CodeSystem/v3-ObservationInterpretation",
                "display": "High"
              }
            ]
          }
        ],
        "text": {
          "status": "generated",
          "div": "<div xmlns=\"http://www.w3.org/1999/xhtml\"><table class=\"hl7__eu__lab__report\"><tr><th>Test</th><th>10-Jun-2021</th><th>Reference&#xA0;Range</th><th>Unit</th></tr><tr><td>Ketones [Mass/volume] in Urine by Test strip</td><td>16.1</td><td>0 - 4</td><td>H</td><td>mg/dL</td></tr></table></div>"
        },
        "status": "final",
        "subject": {
          "reference": "urn:uuid:bbb01769-322f-4a6c-9214-73f1f16a486f",
          "display": "Pelayo Casal"
        },
        "effectiveDateTime": "2021-06-10T05:38:59Z",
        "specimen": {
          "reference": "urn:uuid:6b9922c2-b3c3-44c6-9c06-855b7a7119d8"
        }
      }
    },
    {
      "fullUrl": "urn:uuid:dfc681e2-41e2-4adb-b7b6-4381be5e9dd2",
      "resource": {
        "resourceType": "Observation",
        "id": "dfc681e2-41e2-4adb-b7b6-4381be5e9dd2",
        "meta": {
          "profile": [
            "http://hl7.eu/fhir/laboratory/StructureDefinition/Observation-resultslab-eu-lab"
          ]
        },
        "performer": [
          {
            "display": "The Central European Lab"
          }
        ],
        "category": [
          {
            "coding": [
              {
                "system": "http://terminology.hl7.org/CodeSystem/observation-category",
                "code": "laboratory"
              }
            ]
          }
        ],
        "code": {
          "coding": [
            {
              "code": "2514-8",
              "system": "http://loinc.org",
              "display": "Ketones [Presence] in Urine by Test strip"
            }
          ],
          "text": "Ketones [Presence] in Urine by Test strip"
        },
        "text": {
          "status": "generated",
          "div": "<div xmlns=\"http://www.w3.org/1999/xhtml\"><table class=\"hl7__eu__lab__report\"><tr><th>Test</th><th>10-Jun-2021</th><th>Reference&#xA0;Range</th><th>Unit</th></tr><tr><td>Ketones [Presence] in Urine by Test strip</td></tr></table></div>"
        },
        "status": "final",
        "subject": {
          "reference": "urn:uuid:bbb01769-322f-4a6c-9214-73f1f16a486f",
          "display": "Pelayo Casal"
        },
        "effectiveDateTime": "2021-06-10T05:38:59Z",
        "specimen": {
          "reference": "urn:uuid:6b9922c2-b3c3-44c6-9c06-855b7a7119d8"
        }
      }
    },
    {
      "fullUrl": "urn:uuid:9f8278e9-6c8f-40a9-8f98-8674d0fbeb82",
      "resource": {
        "resourceType": "Observation",
        "id": "9f8278e9-6c8f-40a9-8f98-8674d0fbeb82",
        "meta": {
          "profile": [
            "http://hl7.eu/fhir/laboratory/StructureDefinition/Observation-resultslab-eu-lab"
          ]
        },
        "performer": [
          {
            "display": "The Central European Lab"
          }
        ],
        "category": [
          {
            "coding": [
              {
                "system": "http://terminology.hl7.org/CodeSystem/observation-category",
                "code": "laboratory"
              }
            ]
          }
        ],
        "code": {
          "coding": [
            {
              "code": "5811-5",
              "system": "http://loinc.org",
              "display": "Specific gravity of Urine by Test strip"
            }
          ],
          "text": "Specific gravity of Urine by Test strip"
        },
        "valueQuantity": {
          "system": "http://unitsofmeasure.org",
          "value": 1,
          "unit": "{nominal}",
          "code": "{nominal}"
        },
        "referenceRange": [
          {
            "low": {
              "value": 1.01,
              "code": "g/mL",
              "system": "http://unitsofmeasure.org"
            }
          },
          {
            "high": {
              "value": 1.03,
              "code": "g/mL",
              "system": "http://unitsofmeasure.org"
            }
          }
        ],
        "interpretation": [
          {
            "coding": [
              {
                "code": "L",
                "system": "http://terminology.hl7.org/CodeSystem/v3-ObservationInterpretation",
                "display": "Low"
              }
            ]
          }
        ],
        "text": {
          "status": "generated",
          "div": "<div xmlns=\"http://www.w3.org/1999/xhtml\"><table class=\"hl7__eu__lab__report\"><tr><th>Test</th><th>10-Jun-2021</th><th>Reference&#xA0;Range</th><th>Unit</th></tr><tr><td>Specific gravity of Urine by Test strip</td><td>1.0</td><td>1.01 - 1.03</td><td>L</td><td>{nominal}</td></tr></table></div>"
        },
        "status": "final",
        "subject": {
          "reference": "urn:uuid:bbb01769-322f-4a6c-9214-73f1f16a486f",
          "display": "Pelayo Casal"
        },
        "effectiveDateTime": "2021-06-10T05:38:59Z",
        "specimen": {
          "reference": "urn:uuid:6b9922c2-b3c3-44c6-9c06-855b7a7119d8"
        }
      }
    },
    {
      "fullUrl": "urn:uuid:bade4ce7-5ac1-4c30-93da-0baf7b3a177c",
      "resource": {
        "resourceType": "Observation",
        "id": "bade4ce7-5ac1-4c30-93da-0baf7b3a177c",
        "meta": {
          "profile": [
            "http://hl7.eu/fhir/laboratory/StructureDefinition/Observation-resultslab-eu-lab"
          ]
        },
        "performer": [
          {
            "display": "The Central European Lab"
          }
        ],
        "category": [
          {
            "coding": [
              {
                "system": "http://terminology.hl7.org/CodeSystem/observation-category",
                "code": "laboratory"
              }
            ]
          }
        ],
        "code": {
          "coding": [
            {
              "code": "5803-2",
              "system": "http://loinc.org",
              "display": "pH of Urine by Test strip"
            }
          ],
          "text": "pH of Urine by Test strip"
        },
        "valueQuantity": {
          "system": "http://unitsofmeasure.org",
          "value": 5.8,
          "unit": "pH",
          "code": "pH"
        },
        "referenceRange": [
          {
            "low": {
              "value": 4.5,
              "code": "pH",
              "system": "http://unitsofmeasure.org"
            }
          },
          {
            "high": {
              "value": 7.5,
              "code": "pH",
              "system": "http://unitsofmeasure.org"
            }
          }
        ],
        "text": {
          "status": "generated",
          "div": "<div xmlns=\"http://www.w3.org/1999/xhtml\"><table class=\"hl7__eu__lab__report\"><tr><th>Test</th><th>10-Jun-2021</th><th>Reference&#xA0;Range</th><th>Unit</th></tr><tr><td>pH of Urine by Test strip</td><td>5.8</td><td>4.5 - 7.5</td><td></td><td>pH</td></tr></table></div>"
        },
        "status": "final",
        "subject": {
          "reference": "urn:uuid:bbb01769-322f-4a6c-9214-73f1f16a486f",
          "display": "Pelayo Casal"
        },
        "effectiveDateTime": "2021-06-10T05:38:59Z",
        "specimen": {
          "reference": "urn:uuid:6b9922c2-b3c3-44c6-9c06-855b7a7119d8"
        }
      }
    },
    {
      "fullUrl": "urn:uuid:e1c9b2de-e963-4151-a445-5831e24ab3fa",
      "resource": {
        "resourceType": "Observation",
        "id": "e1c9b2de-e963-4151-a445-5831e24ab3fa",
        "meta": {
          "profile": [
            "http://hl7.eu/fhir/laboratory/StructureDefinition/Observation-resultslab-eu-lab"
          ]
        },
        "performer": [
          {
            "display": "The Central European Lab"
          }
        ],
        "category": [
          {
            "coding": [
              {
                "system": "http://terminology.hl7.org/CodeSystem/observation-category",
                "code": "laboratory"
              }
            ]
          }
        ],
        "code": {
          "coding": [
            {
              "code": "5804-0",
              "system": "http://loinc.org",
              "display": "Protein [Mass/volume] in Urine by Test strip"
            }
          ],
          "text": "Protein [Mass/volume] in Urine by Test strip"
        },
        "valueQuantity": {
          "system": "http://unitsofmeasure.org",
          "value": 215.4,
          "unit": "mg/dL",
          "code": "mg/dL"
        },
        "referenceRange": [
          {
            "low": {
              "value": 0,
              "code": "mg/dL",
              "system": "http://unitsofmeasure.org"
            }
          },
          {
            "high": {
              "value": 150,
              "code": "mg/dL",
              "system": "http://unitsofmeasure.org"
            }
          }
        ],
        "interpretation": [
          {
            "coding": [
              {
                "code": "H",
                "system": "http://terminology.hl7.org/CodeSystem/v3-ObservationInterpretation",
                "display": "High"
              }
            ]
          }
        ],
        "text": {
          "status": "generated",
          "div": "<div xmlns=\"http://www.w3.org/1999/xhtml\"><table class=\"hl7__eu__lab__report\"><tr><th>Test</th><th>10-Jun-2021</th><th>Reference&#xA0;Range</th><th>Unit</th></tr><tr><td>Protein [Mass/volume] in Urine by Test strip</td><td>215.4</td><td>0 - 150</td><td>H</td><td>mg/dL</td></tr></table></div>"
        },
        "status": "final",
        "subject": {
          "reference": "urn:uuid:bbb01769-322f-4a6c-9214-73f1f16a486f",
          "display": "Pelayo Casal"
        },
        "effectiveDateTime": "2021-06-10T05:38:59Z",
        "specimen": {
          "reference": "urn:uuid:6b9922c2-b3c3-44c6-9c06-855b7a7119d8"
        }
      }
    },
    {
      "fullUrl": "urn:uuid:23e12fba-6d62-459f-ae89-67e32b135158",
      "resource": {
        "resourceType": "Observation",
        "id": "23e12fba-6d62-459f-ae89-67e32b135158",
        "meta": {
          "profile": [
            "http://hl7.eu/fhir/laboratory/StructureDefinition/Observation-resultslab-eu-lab"
          ]
        },
        "performer": [
          {
            "display": "The Central European Lab"
          }
        ],
        "category": [
          {
            "coding": [
              {
                "system": "http://terminology.hl7.org/CodeSystem/observation-category",
                "code": "laboratory"
              }
            ]
          }
        ],
        "code": {
          "coding": [
            {
              "code": "20454-5",
              "system": "http://loinc.org",
              "display": "Protein [Presence] in Urine by Test strip"
            }
          ],
          "text": "Protein [Presence] in Urine by Test strip"
        },
        "text": {
          "status": "generated",
          "div": "<div xmlns=\"http://www.w3.org/1999/xhtml\"><table class=\"hl7__eu__lab__report\"><tr><th>Test</th><th>10-Jun-2021</th><th>Reference&#xA0;Range</th><th>Unit</th></tr><tr><td>Protein [Presence] in Urine by Test strip</td></tr></table></div>"
        },
        "status": "final",
        "subject": {
          "reference": "urn:uuid:bbb01769-322f-4a6c-9214-73f1f16a486f",
          "display": "Pelayo Casal"
        },
        "effectiveDateTime": "2021-06-10T05:38:59Z",
        "specimen": {
          "reference": "urn:uuid:6b9922c2-b3c3-44c6-9c06-855b7a7119d8"
        }
      }
    },
    {
      "fullUrl": "urn:uuid:8cfa0fdc-d9a6-479b-95ef-2151946db242",
      "resource": {
        "resourceType": "Observation",
        "id": "8cfa0fdc-d9a6-479b-95ef-2151946db242",
        "meta": {
          "profile": [
            "http://hl7.eu/fhir/laboratory/StructureDefinition/Observation-resultslab-eu-lab"
          ]
        },
        "performer": [
          {
            "display": "The Central European Lab"
          }
        ],
        "category": [
          {
            "coding": [
              {
                "system": "http://terminology.hl7.org/CodeSystem/observation-category",
                "code": "laboratory"
              }
            ]
          }
        ],
        "code": {
          "coding": [
            {
              "code": "5802-4",
              "system": "http://loinc.org",
              "display": "Nitrite [Presence] in Urine by Test strip"
            }
          ],
          "text": "Nitrite [Presence] in Urine by Test strip"
        },
        "text": {
          "status": "generated",
          "div": "<div xmlns=\"http://www.w3.org/1999/xhtml\"><table class=\"hl7__eu__lab__report\"><tr><th>Test</th><th>10-Jun-2021</th><th>Reference&#xA0;Range</th><th>Unit</th></tr><tr><td>Nitrite [Presence] in Urine by Test strip</td></tr></table></div>"
        },
        "status": "final",
        "subject": {
          "reference": "urn:uuid:bbb01769-322f-4a6c-9214-73f1f16a486f",
          "display": "Pelayo Casal"
        },
        "effectiveDateTime": "2021-06-10T05:38:59Z",
        "specimen": {
          "reference": "urn:uuid:6b9922c2-b3c3-44c6-9c06-855b7a7119d8"
        }
      }
    },
    {
      "fullUrl": "urn:uuid:95364c5e-7a30-4ccc-873e-d26e98b59763",
      "resource": {
        "resourceType": "Observation",
        "id": "95364c5e-7a30-4ccc-873e-d26e98b59763",
        "meta": {
          "profile": [
            "http://hl7.eu/fhir/laboratory/StructureDefinition/Observation-resultslab-eu-lab"
          ]
        },
        "performer": [
          {
            "display": "The Central European Lab"
          }
        ],
        "category": [
          {
            "coding": [
              {
                "system": "http://terminology.hl7.org/CodeSystem/observation-category",
                "code": "laboratory"
              }
            ]
          }
        ],
        "code": {
          "coding": [
            {
              "code": "5794-3",
              "system": "http://loinc.org",
              "display": "Hemoglobin [Presence] in Urine by Test strip"
            }
          ],
          "text": "Hemoglobin [Presence] in Urine by Test strip"
        },
        "text": {
          "status": "generated",
          "div": "<div xmlns=\"http://www.w3.org/1999/xhtml\"><table class=\"hl7__eu__lab__report\"><tr><th>Test</th><th>10-Jun-2021</th><th>Reference&#xA0;Range</th><th>Unit</th></tr><tr><td>Hemoglobin [Presence] in Urine by Test strip</td></tr></table></div>"
        },
        "status": "final",
        "subject": {
          "reference": "urn:uuid:bbb01769-322f-4a6c-9214-73f1f16a486f",
          "display": "Pelayo Casal"
        },
        "effectiveDateTime": "2021-06-10T05:38:59Z",
        "specimen": {
          "reference": "urn:uuid:6b9922c2-b3c3-44c6-9c06-855b7a7119d8"
        }
      }
    },
    {
      "fullUrl": "urn:uuid:43d5d6a4-c540-481d-8dda-7dc8519589d8",
      "resource": {
        "resourceType": "Observation",
        "id": "43d5d6a4-c540-481d-8dda-7dc8519589d8",
        "meta": {
          "profile": [
            "http://hl7.eu/fhir/laboratory/StructureDefinition/Observation-resultslab-eu-lab"
          ]
        },
        "performer": [
          {
            "display": "The Central European Lab"
          }
        ],
        "category": [
          {
            "coding": [
              {
                "system": "http://terminology.hl7.org/CodeSystem/observation-category",
                "code": "laboratory"
              }
            ]
          }
        ],
        "code": {
          "coding": [
            {
              "code": "5799-2",
              "system": "http://loinc.org",
              "display": "Leukocyte esterase [Presence] in Urine by Test strip"
            }
          ],
          "text": "Leukocyte esterase [Presence] in Urine by Test strip"
        },
        "text": {
          "status": "generated",
          "div": "<div xmlns=\"http://www.w3.org/1999/xhtml\"><table class=\"hl7__eu__lab__report\"><tr><th>Test</th><th>10-Jun-2021</th><th>Reference&#xA0;Range</th><th>Unit</th></tr><tr><td>Leukocyte esterase [Presence] in Urine by Test strip</td></tr></table></div>"
        },
        "status": "final",
        "subject": {
          "reference": "urn:uuid:bbb01769-322f-4a6c-9214-73f1f16a486f",
          "display": "Pelayo Casal"
        },
        "effectiveDateTime": "2021-06-10T05:38:59Z",
        "specimen": {
          "reference": "urn:uuid:6b9922c2-b3c3-44c6-9c06-855b7a7119d8"
        }
      }
    },
    {
      "fullUrl": "urn:uuid:67237767-7854-42b8-acc4-fd55f14484e7",
      "resource": {
        "resourceType": "Observation",
        "id": "67237767-7854-42b8-acc4-fd55f14484e7",
        "meta": {
          "profile": [
            "http://hl7.eu/fhir/laboratory/StructureDefinition/Observation-resultslab-eu-lab"
          ]
        },
        "performer": [
          {
            "display": "The Central European Lab"
          }
        ],
        "category": [
          {
            "coding": [
              {
                "system": "http://terminology.hl7.org/CodeSystem/observation-category",
                "code": "laboratory"
              }
            ]
          }
        ],
        "code": {
          "coding": [
            {
              "code": "4548-4",
              "system": "http://loinc.org",
              "display": "Hemoglobin A1c/Hemoglobin.total in Blood"
            }
          ],
          "text": "Hemoglobin A1c/Hemoglobin.total in Blood"
        },
        "valueQuantity": {
          "system": "http://unitsofmeasure.org",
          "value": 3.3,
          "unit": "%",
          "code": "%"
        },
        "referenceRange": [
          {
            "low": {
              "value": 4.5,
              "code": "%",
              "system": "http://unitsofmeasure.org"
            }
          },
          {
            "high": {
              "value": 6.4,
              "code": "%",
              "system": "http://unitsofmeasure.org"
            }
          }
        ],
        "interpretation": [
          {
            "coding": [
              {
                "code": "L",
                "system": "http://terminology.hl7.org/CodeSystem/v3-ObservationInterpretation",
                "display": "Low"
              }
            ]
          }
        ],
        "text": {
          "status": "generated",
          "div": "<div xmlns=\"http://www.w3.org/1999/xhtml\"><table class=\"hl7__eu__lab__report\"><tr><th>Test</th><th>10-Jun-2021</th><th>Reference&#xA0;Range</th><th>Unit</th></tr><tr><td>Hemoglobin A1c/Hemoglobin.total in Blood</td><td>3.3</td><td>4.5 - 6.4</td><td>L</td><td>%</td></tr></table></div>"
        },
        "status": "final",
        "subject": {
          "reference": "urn:uuid:bbb01769-322f-4a6c-9214-73f1f16a486f",
          "display": "Pelayo Casal"
        },
        "effectiveDateTime": "2021-06-10T05:38:59Z",
        "specimen": {
          "reference": "urn:uuid:b2ce43f3-8180-49af-a27f-670c46ec8c2b"
        }
      }
    },
    {
      "fullUrl": "urn:uuid:0bfd9c67-e0e4-4687-9bed-578f4943ec23",
      "resource": {
        "resourceType": "Observation",
        "id": "0bfd9c67-e0e4-4687-9bed-578f4943ec23",
        "meta": {
          "profile": [
            "http://hl7.eu/fhir/laboratory/StructureDefinition/Observation-resultslab-eu-lab"
          ]
        },
        "performer": [
          {
            "display": "The Central European Lab"
          }
        ],
        "category": [
          {
            "coding": [
              {
                "system": "http://terminology.hl7.org/CodeSystem/observation-category",
                "code": "laboratory"
              }
            ]
          }
        ],
        "code": {
          "coding": [
            {
              "code": "2339-0",
              "system": "http://loinc.org",
              "display": "Glucose [Mass/volume] in Blood"
            }
          ],
          "text": "Glucose [Mass/volume] in Blood"
        },
        "valueQuantity": {
          "system": "http://unitsofmeasure.org",
          "value": 86.7,
          "unit": "mg/dL",
          "code": "mg/dL"
        },
        "referenceRange": [
          {
            "low": {
              "value": 70,
              "code": "mg/dL",
              "system": "http://unitsofmeasure.org"
            }
          },
          {
            "high": {
              "value": 140,
              "code": "mg/dL",
              "system": "http://unitsofmeasure.org"
            }
          }
        ],
        "text": {
          "status": "generated",
          "div": "<div xmlns=\"http://www.w3.org/1999/xhtml\"><table class=\"hl7__eu__lab__report\"><tr><th>Test</th><th>10-Jun-2021</th><th>Reference&#xA0;Range</th><th>Unit</th></tr><tr><td>Glucose [Mass/volume] in Blood</td><td>86.7</td><td>70 - 140</td><td></td><td>mg/dL</td></tr></table></div>"
        },
        "status": "final",
        "subject": {
          "reference": "urn:uuid:bbb01769-322f-4a6c-9214-73f1f16a486f",
          "display": "Pelayo Casal"
        },
        "effectiveDateTime": "2021-06-10T05:38:59Z",
        "specimen": {
          "reference": "urn:uuid:b2ce43f3-8180-49af-a27f-670c46ec8c2b"
        }
      }
    },
    {
      "fullUrl": "urn:uuid:fff355b1-dbc1-45df-b789-42a83bc77964",
      "resource": {
        "resourceType": "Observation",
        "id": "fff355b1-dbc1-45df-b789-42a83bc77964",
        "meta": {
          "profile": [
            "http://hl7.eu/fhir/laboratory/StructureDefinition/Observation-resultslab-eu-lab"
          ]
        },
        "performer": [
          {
            "display": "The Central European Lab"
          }
        ],
        "category": [
          {
            "coding": [
              {
                "system": "http://terminology.hl7.org/CodeSystem/observation-category",
                "code": "laboratory"
              }
            ]
          }
        ],
        "code": {
          "coding": [
            {
              "code": "6299-2",
              "system": "http://loinc.org",
              "display": "Urea nitrogen [Mass/volume] in Blood"
            }
          ],
          "text": "Urea nitrogen [Mass/volume] in Blood"
        },
        "valueQuantity": {
          "system": "http://unitsofmeasure.org",
          "value": 13.4,
          "unit": "mg/dL",
          "code": "mg/dL"
        },
        "referenceRange": [
          {
            "low": {
              "value": 7,
              "code": "mg/dL",
              "system": "http://unitsofmeasure.org"
            }
          },
          {
            "high": {
              "value": 25,
              "code": "mg/dL",
              "system": "http://unitsofmeasure.org"
            }
          }
        ],
        "text": {
          "status": "generated",
          "div": "<div xmlns=\"http://www.w3.org/1999/xhtml\"><table class=\"hl7__eu__lab__report\"><tr><th>Test</th><th>10-Jun-2021</th><th>Reference&#xA0;Range</th><th>Unit</th></tr><tr><td>Urea nitrogen [Mass/volume] in Blood</td><td>13.4</td><td>7 - 25</td><td></td><td>mg/dL</td></tr></table></div>"
        },
        "status": "final",
        "subject": {
          "reference": "urn:uuid:bbb01769-322f-4a6c-9214-73f1f16a486f",
          "display": "Pelayo Casal"
        },
        "effectiveDateTime": "2021-06-10T05:38:59Z",
        "specimen": {
          "reference": "urn:uuid:b2ce43f3-8180-49af-a27f-670c46ec8c2b"
        }
      }
    },
    {
      "fullUrl": "urn:uuid:82a7e06b-9702-40ec-87c1-31dfce5dc89b",
      "resource": {
        "resourceType": "Observation",
        "id": "82a7e06b-9702-40ec-87c1-31dfce5dc89b",
        "meta": {
          "profile": [
            "http://hl7.eu/fhir/laboratory/StructureDefinition/Observation-resultslab-eu-lab"
          ]
        },
        "performer": [
          {
            "display": "The Central European Lab"
          }
        ],
        "category": [
          {
            "coding": [
              {
                "system": "http://terminology.hl7.org/CodeSystem/observation-category",
                "code": "laboratory"
              }
            ]
          }
        ],
        "code": {
          "coding": [
            {
              "code": "38483-4",
              "system": "http://loinc.org",
              "display": "Creatinine [Mass/volume] in Blood"
            }
          ],
          "text": "Creatinine [Mass/volume] in Blood"
        },
        "valueQuantity": {
          "system": "http://unitsofmeasure.org",
          "value": 1.4,
          "unit": "mg/dL",
          "code": "mg/dL"
        },
        "referenceRange": [
          {
            "low": {
              "value": 0.9,
              "code": "mg/dL",
              "system": "http://unitsofmeasure.org"
            }
          },
          {
            "high": {
              "value": 1.3,
              "code": "mg/dL",
              "system": "http://unitsofmeasure.org"
            }
          }
        ],
        "interpretation": [
          {
            "coding": [
              {
                "code": "H",
                "system": "http://terminology.hl7.org/CodeSystem/v3-ObservationInterpretation",
                "display": "High"
              }
            ]
          }
        ],
        "text": {
          "status": "generated",
          "div": "<div xmlns=\"http://www.w3.org/1999/xhtml\"><table class=\"hl7__eu__lab__report\"><tr><th>Test</th><th>10-Jun-2021</th><th>Reference&#xA0;Range</th><th>Unit</th></tr><tr><td>Creatinine [Mass/volume] in Blood</td><td>1.4</td><td>0.9 - 1.3</td><td>H</td><td>mg/dL</td></tr></table></div>"
        },
        "status": "final",
        "subject": {
          "reference": "urn:uuid:bbb01769-322f-4a6c-9214-73f1f16a486f",
          "display": "Pelayo Casal"
        },
        "effectiveDateTime": "2021-06-10T05:38:59Z",
        "specimen": {
          "reference": "urn:uuid:b2ce43f3-8180-49af-a27f-670c46ec8c2b"
        }
      }
    },
    {
      "fullUrl": "urn:uuid:69ad4cf2-b06f-43e1-9c20-a46d587c9d41",
      "resource": {
        "resourceType": "Observation",
        "id": "69ad4cf2-b06f-43e1-9c20-a46d587c9d41",
        "meta": {
          "profile": [
            "http://hl7.eu/fhir/laboratory/StructureDefinition/Observation-resultslab-eu-lab"
          ]
        },
        "performer": [
          {
            "display": "The Central European Lab"
          }
        ],
        "category": [
          {
            "coding": [
              {
                "system": "http://terminology.hl7.org/CodeSystem/observation-category",
                "code": "laboratory"
              }
            ]
          }
        ],
        "code": {
          "coding": [
            {
              "code": "49765-1",
              "system": "http://loinc.org",
              "display": "Calcium [Mass/volume] in Blood"
            }
          ],
          "text": "Calcium [Mass/volume] in Blood"
        },
        "valueQuantity": {
          "system": "http://unitsofmeasure.org",
          "value": 9.9,
          "unit": "mg/dL",
          "code": "mg/dL"
        },
        "referenceRange": [
          {
            "low": {
              "value": 8.6,
              "code": "mg/dL",
              "system": "http://unitsofmeasure.org"
            }
          },
          {
            "high": {
              "value": 10.2,
              "code": "mg/dL",
              "system": "http://unitsofmeasure.org"
            }
          }
        ],
        "text": {
          "status": "generated",
          "div": "<div xmlns=\"http://www.w3.org/1999/xhtml\"><table class=\"hl7__eu__lab__report\"><tr><th>Test</th><th>10-Jun-2021</th><th>Reference&#xA0;Range</th><th>Unit</th></tr><tr><td>Calcium [Mass/volume] in Blood</td><td>9.9</td><td>8.6 - 10.2</td><td></td><td>mg/dL</td></tr></table></div>"
        },
        "status": "final",
        "subject": {
          "reference": "urn:uuid:bbb01769-322f-4a6c-9214-73f1f16a486f",
          "display": "Pelayo Casal"
        },
        "effectiveDateTime": "2021-06-10T05:38:59Z",
        "specimen": {
          "reference": "urn:uuid:b2ce43f3-8180-49af-a27f-670c46ec8c2b"
        }
      }
    },
    {
      "fullUrl": "urn:uuid:9b3aca41-2f53-457f-942a-077c2302ba5f",
      "resource": {
        "resourceType": "Observation",
        "id": "9b3aca41-2f53-457f-942a-077c2302ba5f",
        "meta": {
          "profile": [
            "http://hl7.eu/fhir/laboratory/StructureDefinition/Observation-resultslab-eu-lab"
          ]
        },
        "performer": [
          {
            "display": "The Central European Lab"
          }
        ],
        "category": [
          {
            "coding": [
              {
                "system": "http://terminology.hl7.org/CodeSystem/observation-category",
                "code": "laboratory"
              }
            ]
          }
        ],
        "code": {
          "coding": [
            {
              "code": "2947-0",
              "system": "http://loinc.org",
              "display": "Sodium [Moles/volume] in Blood"
            }
          ],
          "text": "Sodium [Moles/volume] in Blood"
        },
        "valueQuantity": {
          "system": "http://unitsofmeasure.org",
          "value": 140.6,
          "unit": "mmol/L",
          "code": "mmol/L"
        },
        "referenceRange": [
          {
            "low": {
              "value": 135,
              "code": "mmol/L",
              "system": "http://unitsofmeasure.org"
            }
          },
          {
            "high": {
              "value": 145,
              "code": "mmol/L",
              "system": "http://unitsofmeasure.org"
            }
          }
        ],
        "text": {
          "status": "generated",
          "div": "<div xmlns=\"http://www.w3.org/1999/xhtml\"><table class=\"hl7__eu__lab__report\"><tr><th>Test</th><th>10-Jun-2021</th><th>Reference&#xA0;Range</th><th>Unit</th></tr><tr><td>Sodium [Moles/volume] in Blood</td><td>140.6</td><td>135 - 145</td><td></td><td>mmol/L</td></tr></table></div>"
        },
        "status": "final",
        "subject": {
          "reference": "urn:uuid:bbb01769-322f-4a6c-9214-73f1f16a486f",
          "display": "Pelayo Casal"
        },
        "effectiveDateTime": "2021-06-10T05:38:59Z",
        "specimen": {
          "reference": "urn:uuid:b2ce43f3-8180-49af-a27f-670c46ec8c2b"
        }
      }
    },
    {
      "fullUrl": "urn:uuid:ec8e06b3-eaa7-4f35-a68f-cfc8dcffc3cd",
      "resource": {
        "resourceType": "Observation",
        "id": "ec8e06b3-eaa7-4f35-a68f-cfc8dcffc3cd",
        "meta": {
          "profile": [
            "http://hl7.eu/fhir/laboratory/StructureDefinition/Observation-resultslab-eu-lab"
          ]
        },
        "performer": [
          {
            "display": "The Central European Lab"
          }
        ],
        "category": [
          {
            "coding": [
              {
                "system": "http://terminology.hl7.org/CodeSystem/observation-category",
                "code": "laboratory"
              }
            ]
          }
        ],
        "code": {
          "coding": [
            {
              "code": "6298-4",
              "system": "http://loinc.org",
              "display": "Potassium [Moles/volume] in Blood"
            }
          ],
          "text": "Potassium [Moles/volume] in Blood"
        },
        "valueQuantity": {
          "system": "http://unitsofmeasure.org",
          "value": 3.8,
          "unit": "mmol/L",
          "code": "mmol/L"
        },
        "referenceRange": [
          {
            "low": {
              "value": 3.5,
              "code": "mmol/L",
              "system": "http://unitsofmeasure.org"
            }
          },
          {
            "high": {
              "value": 5.1,
              "code": "mmol/L",
              "system": "http://unitsofmeasure.org"
            }
          }
        ],
        "text": {
          "status": "generated",
          "div": "<div xmlns=\"http://www.w3.org/1999/xhtml\"><table class=\"hl7__eu__lab__report\"><tr><th>Test</th><th>10-Jun-2021</th><th>Reference&#xA0;Range</th><th>Unit</th></tr><tr><td>Potassium [Moles/volume] in Blood</td><td>3.8</td><td>3.5 - 5.1</td><td></td><td>mmol/L</td></tr></table></div>"
        },
        "status": "final",
        "subject": {
          "reference": "urn:uuid:bbb01769-322f-4a6c-9214-73f1f16a486f",
          "display": "Pelayo Casal"
        },
        "effectiveDateTime": "2021-06-10T05:38:59Z",
        "specimen": {
          "reference": "urn:uuid:b2ce43f3-8180-49af-a27f-670c46ec8c2b"
        }
      }
    },
    {
      "fullUrl": "urn:uuid:c41c7434-53b8-4561-afa0-1aee586969cf",
      "resource": {
        "resourceType": "Observation",
        "id": "c41c7434-53b8-4561-afa0-1aee586969cf",
        "meta": {
          "profile": [
            "http://hl7.eu/fhir/laboratory/StructureDefinition/Observation-resultslab-eu-lab"
          ]
        },
        "performer": [
          {
            "display": "The Central European Lab"
          }
        ],
        "category": [
          {
            "coding": [
              {
                "system": "http://terminology.hl7.org/CodeSystem/observation-category",
                "code": "laboratory"
              }
            ]
          }
        ],
        "code": {
          "coding": [
            {
              "code": "2069-3",
              "system": "http://loinc.org",
              "display": "Chloride [Moles/volume] in Blood"
            }
          ],
          "text": "Chloride [Moles/volume] in Blood"
        },
        "valueQuantity": {
          "system": "http://unitsofmeasure.org",
          "value": 106.5,
          "unit": "mmol/L",
          "code": "mmol/L"
        },
        "referenceRange": [
          {
            "low": {
              "value": 98,
              "code": "mmol/L",
              "system": "http://unitsofmeasure.org"
            }
          },
          {
            "high": {
              "value": 108,
              "code": "mmol/L",
              "system": "http://unitsofmeasure.org"
            }
          }
        ],
        "text": {
          "status": "generated",
          "div": "<div xmlns=\"http://www.w3.org/1999/xhtml\"><table class=\"hl7__eu__lab__report\"><tr><th>Test</th><th>10-Jun-2021</th><th>Reference&#xA0;Range</th><th>Unit</th></tr><tr><td>Chloride [Moles/volume] in Blood</td><td>106.5</td><td>98 - 108</td><td></td><td>mmol/L</td></tr></table></div>"
        },
        "status": "final",
        "subject": {
          "reference": "urn:uuid:bbb01769-322f-4a6c-9214-73f1f16a486f",
          "display": "Pelayo Casal"
        },
        "effectiveDateTime": "2021-06-10T05:38:59Z",
        "specimen": {
          "reference": "urn:uuid:b2ce43f3-8180-49af-a27f-670c46ec8c2b"
        }
      }
    },
    {
      "fullUrl": "urn:uuid:60e46713-a371-44f9-a013-40dafa230748",
      "resource": {
        "resourceType": "Observation",
        "id": "60e46713-a371-44f9-a013-40dafa230748",
        "meta": {
          "profile": [
            "http://hl7.eu/fhir/laboratory/StructureDefinition/Observation-resultslab-eu-lab"
          ]
        },
        "performer": [
          {
            "display": "The Central European Lab"
          }
        ],
        "category": [
          {
            "coding": [
              {
                "system": "http://terminology.hl7.org/CodeSystem/observation-category",
                "code": "laboratory"
              }
            ]
          }
        ],
        "code": {
          "coding": [
            {
              "code": "20565-8",
              "system": "http://loinc.org",
              "display": "Carbon dioxide, total [Moles/volume] in Blood"
            }
          ],
          "text": "Carbon dioxide, total [Moles/volume] in Blood"
        },
        "valueQuantity": {
          "system": "http://unitsofmeasure.org",
          "value": 21.8,
          "unit": "mmol/L",
          "code": "mmol/L"
        },
        "referenceRange": [
          {
            "low": {
              "value": 22,
              "code": "mmol/L",
              "system": "http://unitsofmeasure.org"
            }
          },
          {
            "high": {
              "value": 32,
              "code": "mmol/L",
              "system": "http://unitsofmeasure.org"
            }
          }
        ],
        "interpretation": [
          {
            "coding": [
              {
                "code": "L",
                "system": "http://terminology.hl7.org/CodeSystem/v3-ObservationInterpretation",
                "display": "Low"
              }
            ]
          }
        ],
        "text": {
          "status": "generated",
          "div": "<div xmlns=\"http://www.w3.org/1999/xhtml\"><table class=\"hl7__eu__lab__report\"><tr><th>Test</th><th>10-Jun-2021</th><th>Reference&#xA0;Range</th><th>Unit</th></tr><tr><td>Carbon dioxide, total [Moles/volume] in Blood</td><td>21.8</td><td>22 - 32</td><td>L</td><td>mmol/L</td></tr></table></div>"
        },
        "status": "final",
        "subject": {
          "reference": "urn:uuid:bbb01769-322f-4a6c-9214-73f1f16a486f",
          "display": "Pelayo Casal"
        },
        "effectiveDateTime": "2021-06-10T05:38:59Z",
        "specimen": {
          "reference": "urn:uuid:b2ce43f3-8180-49af-a27f-670c46ec8c2b"
        }
      }
    },
    {
      "fullUrl": "urn:uuid:f7bdfcb3-e288-4c46-b678-dc92da03f58b",
      "resource": {
        "resourceType": "Device",
        "id": "f7bdfcb3-e288-4c46-b678-dc92da03f58b",
        "deviceName": [
          {
            "name": "SYNDERAI Synthetic Generator",
            "type": "manufacturer-name"
          }
        ],
        "version": [
          {
            "value": "5.0"
          }
        ],
        "text": {
          "status": "generated",
          "div": "<div xmlns=\"http://www.w3.org/1999/xhtml\">SYNDERAI Synthetic Generator v5.0</div>"
        },
        "status": "active\"",
        "distinctIdentifier": "synderai-generator-50",
        "manufacturer": "SYNDERAI Project"
      }
    },
    {
      "fullUrl": "urn:uuid:f8dca669-8849-4486-8cee-2f10a2e4365a",
      "resource": {
        "resourceType": "Provenance",
        "id": "f8dca669-8849-4486-8cee-2f10a2e4365a",
        "target": [
          {
            "reference": "Patient/bbb01769-322f-4a6c-9214-73f1f16a486f"
          },
          {
            "reference": "Bundle/612a001f-6db7-4dc2-af38-3b11606c8cf1"
          },
          {
            "reference": "Composition/3b4f9914-b19b-4c1c-872b-f332996a3069"
          },
          {
            "reference": "PractitionerRole/507dd10a-7d29-455c-bc5d-e5b862e456f9"
          },
          {
            "reference": "Practitioner/c93e01cb-f1ca-4326-871b-ff4a40d2e9d1"
          },
          {
            "reference": "PractitionerRole/9e4883a6-3124-443e-9872-766bd571080e"
          },
          {
            "reference": "Organization/8ac46f22-4755-4332-a7f5-d71ed5b30411"
          }
        ],
        "activity": {
          "text": "Synthetic Example Data Generation"
        },
        "policy": [
          "https://synderai.net/synderai-synthetic-data-policy"
        ],
        "agent": [
          {
            "type": {
              "text": "author"
            },
            "who": {
              "reference": "Device/f7bdfcb3-e288-4c46-b678-dc92da03f58b"
            }
          }
        ],
        "reason": [
          {
            "text": "Interoperability Testing and Training (non-clinical use)"
          }
        ],
        "text": {
          "status": "generated",
          "div": "<div xmlns=\"http://www.w3.org/1999/xhtml\">Provenance for SYNDERAI Synthetic Example Data Resource</div>"
        },
        "recorded": "2021-06-10T07:38:59Z"
      }
    },
    {
      "fullUrl": "urn:uuid:507dd10a-7d29-455c-bc5d-e5b862e456f9",
      "resource": {
        "resourceType": "PractitionerRole",
        "id": "507dd10a-7d29-455c-bc5d-e5b862e456f9",
        "meta": {
          "profile": [
            "http://hl7.eu/fhir/base/StructureDefinition/practitionerRole-eu"
          ]
        },
        "text": {
          "status": "generated",
          "div": "<div xmlns=\"http://www.w3.org/1999/xhtml\">Laboratory Role Id: 507dd10a-7d29-455c-bc5d-e5b862e456f9</div>"
        },
        "practitioner": {
          "reference": "urn:uuid:c93e01cb-f1ca-4326-871b-ff4a40d2e9d1"
        }
      }
    },
    {
      "fullUrl": "urn:uuid:c93e01cb-f1ca-4326-871b-ff4a40d2e9d1",
      "resource": {
        "resourceType": "Practitioner",
        "id": "c93e01cb-f1ca-4326-871b-ff4a40d2e9d1",
        "meta": {
          "profile": [
            "http://hl7.eu/fhir/base/StructureDefinition/practitioner-eu"
          ]
        },
        "identifier": [
          {
            "assigner": {
              "display": "HL7 Europe"
            },
            "system": "urn:oid:2.16.840.1.113883.2.51.999",
            "value": "8b903c9c-db5b-44e6-a776-308d2f3db956"
          }
        ],
        "name": [
          {
            "prefix": [
              "dr"
            ],
            "given": [
              "Ex"
            ],
            "family": "Ample"
          }
        ],
        "address": [
          {
            "line": [
              "Laboratoire Central Européenne",
              "Boulevard du Jardin Botanique 32"
            ],
            "postalCode": "1000",
            "city": "Brussels",
            "country": "Belgium"
          }
        ],
        "text": {
          "status": "generated",
          "div": "<div xmlns=\"http://www.w3.org/1999/xhtml\">Laboratory: Laboratoire Central Européenne, 1000 Brussels, Belgium</div>"
        }
      }
    }
  ],
  "type": "document",
  "timestamp": "2021-06-10T07:38:59Z"
}
