{
  "resourceType": "Bundle",
  "id": "7f5663ca-9bf7-4d19-8452-48eb131c3abf",
  "meta": {
    "profile": [
      "http://hl7.eu/fhir/laboratory/StructureDefinition/Bundle-eu-lab"
    ]
  },
  "identifier": {
    "assigner": {
      "display": "HL7 Europe"
    },
    "system": "urn:oid:2.16.840.1.113883.2.51.999",
    "value": "99d227db-9de5-47fd-8c42-ffa3f63d1ce8"
  },
  "entry": [
    {
      "fullUrl": "urn:uuid:d9097d19-d2ff-4272-ab6f-ee96a4b85834",
      "resource": {
        "resourceType": "Composition",
        "id": "d9097d19-d2ff-4272-ab6f-ee96a4b85834",
        "meta": {
          "profile": [
            "http://hl7.eu/fhir/laboratory/StructureDefinition/Composition-eu-lab"
          ]
        },
        "identifier": {
          "assigner": {
            "display": "HL7 Europe"
          },
          "system": "urn:oid:2.16.840.1.113883.2.51.999",
          "value": "21876f65-bdfd-48ae-8713-f6c146e20ce9"
        },
        "author": [
          {
            "reference": "urn:uuid:ff850cc4-0496-4457-88e6-9daebcbbccec"
          }
        ],
        "category": [
          {
            "coding": [
              {
                "code": "26436-6",
                "system": "http://loinc.org",
                "display": "Laboratory studies (set)"
              }
            ]
          }
        ],
        "type": {
          "coding": [
            {
              "code": "11502-2",
              "system": "http://loinc.org",
              "display": "Laboratory report"
            }
          ],
          "text": "Laboratory Report"
        },
        "section": [
          {
            "code": {
              "coding": [
                {
                  "code": "26436-6",
                  "system": "http://loinc.org",
                  "display": "Laboratory studies (set)"
                }
              ],
              "text": "Laboratory studies"
            },
            "section": [
              {
                "code": {
                  "coding": [
                    {
                      "code": "$18723-7",
                      "system": "http://loinc.org",
                      "display": "Hematology studies (set)"
                    }
                  ],
                  "text": "Hematology"
                },
                "entry": [
                  {
                    "reference": "urn:uuid:6694102f-3822-4d0d-8458-e4475f9595a8"
                  },
                  {
                    "reference": "urn:uuid:78507a27-5142-4abb-a7e0-e43f121bc2f0"
                  },
                  {
                    "reference": "urn:uuid:45eb5ebe-1297-4416-bb56-781eba7858aa"
                  },
                  {
                    "reference": "urn:uuid:f011b7a5-3dd7-4af8-a1de-38a0cceea49e"
                  },
                  {
                    "reference": "urn:uuid:c25bab5c-bd2f-4679-a833-055678f629d4"
                  },
                  {
                    "reference": "urn:uuid:bfdfd57a-3c6d-4622-ac85-6253b0786ae2"
                  },
                  {
                    "reference": "urn:uuid:818c892d-004b-498f-8e15-ba749b4e003e"
                  },
                  {
                    "reference": "urn:uuid:82df9392-9120-48c2-9660-8b1c035b7808"
                  },
                  {
                    "reference": "urn:uuid:2c3ad155-3b56-4eeb-ae1d-3f5450039361"
                  }
                ],
                "text": {
                  "status": "generated",
                  "div": "<div xmlns=\"http://www.w3.org/1999/xhtml\"><h3>Hematology</h3><table class=\"hl7__eu__lab__report\"><thead><tr><th>Test</th><th>31-JAN-2025</th><th>Reference&#xA0;Range</th><th>Unit</th></tr></thead><tbody><tr><td>Leukocytes [#/volume] in Blood by Automated count</td><td>9.4</td><td>3.6 - 10.5</td><td>10*3/uL</td></tr><tr><td>Erythrocytes [#/volume] in Blood by Automated count</td><td>5.2</td><td>4.3 - 6.1</td><td>10*6/uL</td></tr><tr><td>Hemoglobin [Mass/volume] in Blood</td><td>15.4</td><td>13.5 - 17.5</td><td>g/dL</td></tr><tr><td>Hematocrit [Volume Fraction] of Blood by Automated count</td><td>49.6</td><td>38 - 50</td><td>%</td></tr><tr><td>MCV [Entitic volume] by Automated count</td><td>91.5</td><td>76 - 98</td><td>fL</td></tr><tr><td>MCH [Entitic mass] by Automated count</td><td>30.4</td><td>27 - 33</td><td>pg</td></tr><tr><td>MCHC [Mass/volume] by Automated count</td><td>32.6</td><td>31 - 37</td><td>g/dL</td></tr><tr><td>Erythrocyte distribution width [Ratio] by Automated count</td><td>13.7</td><td>11.6 - 16.5</td><td>%</td></tr><tr><td>Platelets [#/volume] in Blood by Automated count</td><td><strong>419.4 H</strong></td><td>155 - 415</td><td>10*3/uL</td></tr></tbody></table></div>"
                },
                "title": "Hematology"
              },
              {
                "code": {
                  "coding": [
                    {
                      "code": "$18719-5",
                      "system": "http://loinc.org",
                      "display": "Chemistry studies (set)"
                    }
                  ],
                  "text": "Chemistry"
                },
                "entry": [
                  {
                    "reference": "urn:uuid:b5eae659-85ae-40e4-ab8b-5fbd743ca6c5"
                  },
                  {
                    "reference": "urn:uuid:44b8e229-b7a9-4388-8ab9-08a7578a322c"
                  },
                  {
                    "reference": "urn:uuid:4bfd8280-d91b-4ff2-9f31-3f8001406752"
                  },
                  {
                    "reference": "urn:uuid:3bcca71d-16c1-44aa-a2fd-842cbbb407d1"
                  },
                  {
                    "reference": "urn:uuid:a3b92e3d-ce41-4236-b5fe-0a81053759a0"
                  },
                  {
                    "reference": "urn:uuid:4c7fb637-7b1e-49cf-8185-49524237552a"
                  },
                  {
                    "reference": "urn:uuid:3d4e7275-8e58-45af-b6c6-b718f1e628cd"
                  },
                  {
                    "reference": "urn:uuid:2c398fcc-a091-492b-8415-3a99262f1519"
                  },
                  {
                    "reference": "urn:uuid:c4af0fbd-5c69-444e-872a-4627295102df"
                  },
                  {
                    "reference": "urn:uuid:b60fb15f-1b75-40ee-95d1-de17a4ab2f95"
                  },
                  {
                    "reference": "urn:uuid:37044866-468c-4664-877c-5d2b0202dacb"
                  },
                  {
                    "reference": "urn:uuid:2221e219-e238-4bda-94db-07a0780e8649"
                  },
                  {
                    "reference": "urn:uuid:8933405d-72a9-4c0f-a10b-5ac1eedce54f"
                  },
                  {
                    "reference": "urn:uuid:441eb251-212b-49ef-90d0-af1f7f166d84"
                  },
                  {
                    "reference": "urn:uuid:8170f2d1-d4b7-42f0-833f-a9befd516950"
                  },
                  {
                    "reference": "urn:uuid:725f906c-860c-46e9-a9ee-33049268db08"
                  },
                  {
                    "reference": "urn:uuid:dcd29a52-67bc-42dc-92c9-1b2fa824c5c9"
                  },
                  {
                    "reference": "urn:uuid:b07c0a52-12f6-4af0-ac4d-a0f713916136"
                  },
                  {
                    "reference": "urn:uuid:72a7ca2c-7576-44c9-ac4e-9693113897c0"
                  },
                  {
                    "reference": "urn:uuid:af1d8c56-2383-4279-a0e7-3bd187f81a70"
                  },
                  {
                    "reference": "urn:uuid:8a86bc46-958f-47a0-baff-9a11bb3a7637"
                  },
                  {
                    "reference": "urn:uuid:8e11700a-aa48-4f77-86a4-e69c6657f710"
                  },
                  {
                    "reference": "urn:uuid:a1320448-e89b-4de1-bba3-78570b96e010"
                  },
                  {
                    "reference": "urn:uuid:de613578-6006-4634-94f4-092b89748e38"
                  },
                  {
                    "reference": "urn:uuid:65eb8e14-e0aa-4591-9e00-280ef367cf56"
                  },
                  {
                    "reference": "urn:uuid:f1017420-b20e-4f6d-bab7-27ebc5417487"
                  }
                ],
                "text": {
                  "status": "generated",
                  "div": "<div xmlns=\"http://www.w3.org/1999/xhtml\"><h3>Chemistry</h3><table class=\"hl7__eu__lab__report\"><thead><tr><th>Test</th><th>31-JAN-2025</th><th>Reference&#xA0;Range</th><th>Unit</th></tr></thead><tbody><tr><td>Natriuretic peptide.B prohormone N-Terminal [Mass/volume] in Serum or Plasma</td><td>611.5</td><td>300 - 900</td><td>pg/mL</td></tr><tr><td>Glucose [Mass/volume] in Serum or Plasma</td><td><strong>193.3 H</strong></td><td>70 - 140</td><td>mg/dL</td></tr><tr><td>Urea nitrogen [Mass/volume] in Serum or Plasma</td><td>7.1</td><td>7 - 50</td><td>mg/dL</td></tr><tr><td>Creatinine [Mass/volume] in Serum or Plasma</td><td><strong>0.8 L</strong></td><td>0.9 - 1.3</td><td>mg/dL</td></tr><tr><td>Calcium [Mass/volume] in Serum or Plasma</td><td>9.0</td><td>8.5 - 10.5</td><td>mg/dL</td></tr><tr><td>Sodium [Moles/volume] in Serum or Plasma</td><td>140.7</td><td>135 - 145</td><td>mmol/L</td></tr><tr><td>Potassium [Moles/volume] in Serum or Plasma</td><td>4.5</td><td>3.5 - 5.1</td><td>mmol/L</td></tr><tr><td>Chloride [Moles/volume] in Serum or Plasma</td><td>106.3</td><td>98 - 108</td><td>mmol/L</td></tr><tr><td>Carbon dioxide, total [Moles/volume] in Serum or Plasma</td><td>25.6</td><td>22 - 32</td><td>mmol/L</td></tr><tr><td>Protein [Mass/volume] in Serum or Plasma</td><td>6.1</td><td>6 - 8.3</td><td>g/dL</td></tr><tr><td>Albumin [Mass/volume] in Serum or Plasma</td><td>5.0</td><td>3.5 - 5.5</td><td>g/dL</td></tr><tr><td>Bilirubin.total [Mass/volume] in Serum or Plasma</td><td>1.2</td><td>0.3 - 1.2</td><td>mg/dL</td></tr><tr><td>Alkaline phosphatase [Enzymatic activity/volume] in Serum or Plasma</td><td>85.1</td><td>40 - 117</td><td>U/L</td></tr><tr><td>Alanine aminotransferase [Enzymatic activity/volume] in Serum or Plasma</td><td>38.5</td><td>10 - 66</td><td>U/L</td></tr><tr><td>Aspartate aminotransferase [Enzymatic activity/volume] in Serum or Plasma</td><td>19.3</td><td>10 - 40</td><td>U/L</td></tr><tr><td>Magnesium [Mass/volume] in Serum or Plasma</td><td>1.8</td><td>1.6 - 2.6</td><td>mg/dL</td></tr><tr><td>Cholesterol [Mass/volume] in Serum or Plasma</td><td><strong>252.0 H</strong></td><td>0 - 200</td><td>mg/dL</td></tr><tr><td>Triglyceride [Mass/volume] in Serum or Plasma</td><td><strong>308.3 H</strong></td><td>0 - 199</td><td>mg/dL</td></tr><tr><td>Cholesterol in LDL [Mass/volume] in Serum or Plasma by Direct assay</td><td><strong>150.4 H</strong></td><td>0 - 130</td><td>mg/dL</td></tr><tr><td>Cholesterol in HDL [Mass/volume] in Serum or Plasma</td><td><strong>39.9 L</strong></td><td>40 - 100</td><td>mg/dL</td></tr><tr><td>Hemoglobin A1c/Hemoglobin.total in Blood</td><td>5.5</td><td>4.5 - 6.4</td><td>%</td></tr><tr><td>Troponin I.cardiac [Mass/volume] in Serum or Plasma by High sensitivity method</td><td>0.0</td><td>0 - 19.9</td><td>pg/mL</td></tr><tr><td>Ferritin [Mass/volume] in Serum or Plasma</td><td>117.8</td><td>30 - 300</td><td>ug/L</td></tr><tr><td>Iron [Mass/volume] in Serum or Plasma</td><td>71.8</td><td>65 - 300</td><td>ug/dL</td></tr><tr><td>Iron binding capacity [Mass/volume] in Serum or Plasma</td><td>316.0</td><td>250 - 450</td><td>ug/dL</td></tr><tr><td>Iron saturation [Mass Fraction] in Serum or Plasma</td><td>39.0</td><td>15 - 45</td><td>%</td></tr></tbody></table></div>"
                },
                "title": "Chemistry"
              }
            ],
            "title": "Laboratory Report"
          },
          {
            "text": {
              "status": "generated",
              "div": "<div xmlns=\"http://www.w3.org/1999/xhtml\"><h3>Annotation</h3><table class=\"hl7__eu__lab__report\"><tr><th>Conclusion and Recommendations based on this report and previous findings known to us</th></tr><tr><td>Most parameters are within normal limits. Notable findings include mild thrombocytosis, hyperglycemia (with normal HbA1c suggesting acute elevation), and dyslipidemia (elevated total cholesterol, LDL, triglycerides, and low HDL), which increase cardiovascular risk. Creatinine is slightly below the reference range but not clinically significant. Cardiac markers (NT-proBNP, troponin) are within expected ranges for age. Recommend clinical correlation for hyperglycemia and lipid abnormalities, and consider follow-up for cardiovascular risk management.</td></tr></table></div>"
            },
            "code": {
              "coding": [
                {
                  "system": "http://loinc.org",
                  "code": "48767-8",
                  "display": "Annotation comment"
                }
              ]
            },
            "title": "Annotation comment"
          }
        ],
        "status": "final",
        "subject": {
          "reference": "urn:uuid:a2dc32b1-34c3-4878-a15d-28a761b4580f",
          "display": "Timothy Smith"
        },
        "date": "2025-01-31T04:53:59Z",
        "title": "Laboratory Report",
        "confidentiality": "N"
      }
    },
    {
      "fullUrl": "urn:uuid:fadb7173-ea84-4ef9-b04b-f8bed92aa2aa",
      "resource": {
        "resourceType": "DiagnosticReport",
        "id": "fadb7173-ea84-4ef9-b04b-f8bed92aa2aa",
        "meta": {
          "profile": [
            "http://hl7.eu/fhir/laboratory/StructureDefinition/DiagnosticReport-eu-lab"
          ]
        },
        "identifier": [
          {
            "assigner": {
              "display": "HL7 Europe"
            },
            "system": "urn:oid:2.16.840.1.113883.2.51.999",
            "value": "13c74351-65f1-4f2f-b2d9-c7985dfc5dd1"
          }
        ],
        "extension": [
          {
            "url": "http://hl7.org/fhir/5.0/StructureDefinition/extension-DiagnosticReport.composition",
            "valueReference": {
              "reference": "urn:uuid:21876f65-bdfd-48ae-8713-f6c146e20ce9"
            }
          }
        ],
        "category": [
          {
            "coding": [
              {
                "code": "26436-6",
                "system": "http://loinc.org",
                "display": "Laboratory studies (set)"
              }
            ]
          }
        ],
        "specimen": [
          {
            "reference": "urn:uuid:2b1312ca-e796-440f-a826-8f72a0bcc529"
          },
          {
            "reference": "urn:uuid:10c5ce8e-677d-4d9a-aaac-99d9d02c2846"
          },
          {
            "reference": "urn:uuid:10c5ce8e-677d-4d9a-aaac-99d9d02c2846"
          }
        ],
        "result": [
          {
            "reference": "urn:uuid:b5eae659-85ae-40e4-ab8b-5fbd743ca6c5"
          },
          {
            "reference": "urn:uuid:6694102f-3822-4d0d-8458-e4475f9595a8"
          },
          {
            "reference": "urn:uuid:78507a27-5142-4abb-a7e0-e43f121bc2f0"
          },
          {
            "reference": "urn:uuid:45eb5ebe-1297-4416-bb56-781eba7858aa"
          },
          {
            "reference": "urn:uuid:f011b7a5-3dd7-4af8-a1de-38a0cceea49e"
          },
          {
            "reference": "urn:uuid:c25bab5c-bd2f-4679-a833-055678f629d4"
          },
          {
            "reference": "urn:uuid:bfdfd57a-3c6d-4622-ac85-6253b0786ae2"
          },
          {
            "reference": "urn:uuid:818c892d-004b-498f-8e15-ba749b4e003e"
          },
          {
            "reference": "urn:uuid:82df9392-9120-48c2-9660-8b1c035b7808"
          },
          {
            "reference": "urn:uuid:2c3ad155-3b56-4eeb-ae1d-3f5450039361"
          },
          {
            "reference": "urn:uuid:44b8e229-b7a9-4388-8ab9-08a7578a322c"
          },
          {
            "reference": "urn:uuid:4bfd8280-d91b-4ff2-9f31-3f8001406752"
          },
          {
            "reference": "urn:uuid:3bcca71d-16c1-44aa-a2fd-842cbbb407d1"
          },
          {
            "reference": "urn:uuid:a3b92e3d-ce41-4236-b5fe-0a81053759a0"
          },
          {
            "reference": "urn:uuid:4c7fb637-7b1e-49cf-8185-49524237552a"
          },
          {
            "reference": "urn:uuid:3d4e7275-8e58-45af-b6c6-b718f1e628cd"
          },
          {
            "reference": "urn:uuid:2c398fcc-a091-492b-8415-3a99262f1519"
          },
          {
            "reference": "urn:uuid:c4af0fbd-5c69-444e-872a-4627295102df"
          },
          {
            "reference": "urn:uuid:b60fb15f-1b75-40ee-95d1-de17a4ab2f95"
          },
          {
            "reference": "urn:uuid:37044866-468c-4664-877c-5d2b0202dacb"
          },
          {
            "reference": "urn:uuid:2221e219-e238-4bda-94db-07a0780e8649"
          },
          {
            "reference": "urn:uuid:8933405d-72a9-4c0f-a10b-5ac1eedce54f"
          },
          {
            "reference": "urn:uuid:441eb251-212b-49ef-90d0-af1f7f166d84"
          },
          {
            "reference": "urn:uuid:8170f2d1-d4b7-42f0-833f-a9befd516950"
          },
          {
            "reference": "urn:uuid:725f906c-860c-46e9-a9ee-33049268db08"
          },
          {
            "reference": "urn:uuid:dcd29a52-67bc-42dc-92c9-1b2fa824c5c9"
          },
          {
            "reference": "urn:uuid:b07c0a52-12f6-4af0-ac4d-a0f713916136"
          },
          {
            "reference": "urn:uuid:72a7ca2c-7576-44c9-ac4e-9693113897c0"
          },
          {
            "reference": "urn:uuid:af1d8c56-2383-4279-a0e7-3bd187f81a70"
          },
          {
            "reference": "urn:uuid:8a86bc46-958f-47a0-baff-9a11bb3a7637"
          },
          {
            "reference": "urn:uuid:8e11700a-aa48-4f77-86a4-e69c6657f710"
          },
          {
            "reference": "urn:uuid:a1320448-e89b-4de1-bba3-78570b96e010"
          },
          {
            "reference": "urn:uuid:de613578-6006-4634-94f4-092b89748e38"
          },
          {
            "reference": "urn:uuid:65eb8e14-e0aa-4591-9e00-280ef367cf56"
          },
          {
            "reference": "urn:uuid:f1017420-b20e-4f6d-bab7-27ebc5417487"
          }
        ],
        "status": "registered",
        "code": {
          "coding": [
            {
              "code": "11502-2",
              "system": "http://loinc.org",
              "display": "Laboratory report"
            }
          ]
        },
        "subject": {
          "reference": "urn:uuid:a2dc32b1-34c3-4878-a15d-28a761b4580f",
          "display": "Timothy Smith"
        }
      }
    },
    {
      "fullUrl": "urn:uuid:a2dc32b1-34c3-4878-a15d-28a761b4580f",
      "resource": {
        "resourceType": "Patient",
        "id": "a2dc32b1-34c3-4878-a15d-28a761b4580f",
        "meta": {
          "security": [
            {
              "system": "http://terminology.hl7.org/CodeSystem/v3-ActReason",
              "code": "HTEST"
            },
            {
              "system": "http://terminology.hl7.org/CodeSystem/v3-ActReason",
              "code": "TRAIN"
            }
          ],
          "tag": [
            {
              "system": "https://synderai.net/fhir/CodeSystem/tags",
              "code": "synthetic",
              "display": "SYNDERAI Synthetic data"
            }
          ],
          "profile": [
            "http://hl7.eu/fhir/base/StructureDefinition/patient-eu-core"
          ]
        },
        "identifier": [
          {
            "type": {
              "coding": [
                {
                  "code": "PT",
                  "system": "http://terminology.hl7.org/CodeSystem/v2-0203"
                }
              ]
            },
            "system": "http://ec.europa.eu/identifier/eci",
            "value": "8029-862360-6"
          },
          {
            "type": {
              "coding": [
                {
                  "code": "MR",
                  "system": "http://terminology.hl7.org/CodeSystem/v2-0203"
                }
              ]
            },
            "system": "http://local.setting.eu/identifier",
            "value": "1fe71aa8-fb8e-4622-d398-65f6235c4fef"
          }
        ],
        "name": [
          {
            "family": "Smith"
          },
          {
            "given": [
              "Timothy"
            ]
          },
          {
            "text": "Timothy Smith"
          }
        ],
        "address": [
          {
            "line": [
              "9 Jeffrey orchard"
            ],
            "use": "home",
            "type": "physical",
            "postalCode": "NW1",
            "city": "North Joshuaville",
            "country": "United Kingdom"
          }
        ],
        "telecom": [
          {
            "system": "phone",
            "value": "+44(0)28 9018592"
          }
        ],
        "extension": [
          {
            "url": "http://hl7.org/fhir/StructureDefinition/patient-nationality",
            "valueCodeableConcept": {
              "coding": [
                {
                  "code": "GB",
                  "system": "http://hl7.org/fhir/ValueSet/country"
                }
              ]
            }
          }
        ],
        "text": {
          "status": "generated",
          "div": "<div xmlns=\"http://www.w3.org/1999/xhtml\"><table class=\"hl7__ips\"><tr><td>Timothy Smith</td><td>male</td><td>10-Sep-1941</td></tr></table></div>"
        },
        "gender": "male",
        "birthDate": "1941-09-10"
      }
    },
    {
      "fullUrl": "urn:uuid:04c38a78-df88-494e-8fa1-b93f7336b10a",
      "resource": {
        "resourceType": "ServiceRequest",
        "id": "04c38a78-df88-494e-8fa1-b93f7336b10a",
        "meta": {
          "profile": [
            "http://hl7.eu/fhir/laboratory/StructureDefinition/ServiceRequest-eu-lab"
          ]
        },
        "identifier": [
          {
            "system": "http://example.org",
            "value": "5d5e460c-06a9-4bcc-8d57-3d733e3c81e1"
          }
        ],
        "specimen": [
          {
            "reference": "urn:uuid:2b1312ca-e796-440f-a826-8f72a0bcc529"
          },
          {
            "reference": "urn:uuid:10c5ce8e-677d-4d9a-aaac-99d9d02c2846"
          }
        ],
        "reasonCode": [
          {
            "coding": [
              {
                "code": "88805009",
                "system": "http://snomed.info/sct",
                "display": "Chronic congestive heart failure"
              }
            ]
          },
          {
            "coding": [
              {
                "code": "60573004",
                "system": "http://snomed.info/sct",
                "display": "Aortic valve stenosis"
              }
            ]
          },
          {
            "coding": [
              {
                "code": "414545008",
                "system": "http://snomed.info/sct",
                "display": "Ischemic heart disease"
              }
            ]
          },
          {
            "coding": [
              {
                "code": "64859006",
                "system": "http://snomed.info/sct",
                "display": "Osteoporosis"
              }
            ]
          },
          {
            "coding": [
              {
                "code": "6525002",
                "system": "http://snomed.info/sct",
                "display": "Dependent drug abuse"
              }
            ]
          },
          {
            "coding": [
              {
                "code": "55822004",
                "system": "http://snomed.info/sct",
                "display": "Hyperlipidemia"
              }
            ]
          },
          {
            "coding": [
              {
                "code": "78275009",
                "system": "http://snomed.info/sct",
                "display": "Obstructive sleep apnea syndrome"
              }
            ]
          },
          {
            "coding": [
              {
                "code": "39898005",
                "system": "http://snomed.info/sct",
                "display": "Sleep disorder"
              }
            ]
          },
          {
            "coding": [
              {
                "code": "401314000",
                "system": "http://snomed.info/sct",
                "display": "Acute non-ST segment elevation myocardial infarction"
              }
            ]
          },
          {
            "coding": [
              {
                "code": "124171000119105",
                "system": "http://snomed.info/sct",
                "display": "Chronic intractable migraine without aura"
              }
            ]
          },
          {
            "coding": [
              {
                "code": "196416002",
                "system": "http://snomed.info/sct",
                "display": "Impacted molars"
              }
            ]
          },
          {
            "coding": [
              {
                "code": "59621000",
                "system": "http://snomed.info/sct",
                "display": "Essential hypertension"
              }
            ]
          },
          {
            "coding": [
              {
                "code": "80394007",
                "system": "http://snomed.info/sct",
                "display": "Hyperglycemia"
              }
            ]
          },
          {
            "coding": [
              {
                "code": "237602007",
                "system": "http://snomed.info/sct",
                "display": "Metabolic syndrome X"
              }
            ]
          },
          {
            "coding": [
              {
                "code": "302870006",
                "system": "http://snomed.info/sct",
                "display": "Hypertriglyceridemia"
              }
            ]
          },
          {
            "coding": [
              {
                "code": "44054006",
                "system": "http://snomed.info/sct",
                "display": "Type 2 diabetes mellitus"
              }
            ]
          },
          {
            "coding": [
              {
                "code": "271737000",
                "system": "http://snomed.info/sct",
                "display": "Anemia"
              }
            ]
          },
          {
            "coding": [
              {
                "code": "15777000",
                "system": "http://snomed.info/sct",
                "display": "Prediabetes"
              }
            ]
          }
        ],
        "status": "active",
        "intent": "order",
        "code": {
          "coding": [
            {
              "code": "108252007",
              "system": "http://snomed.info/sct",
              "display": "Laboratory procedure"
            }
          ]
        },
        "subject": {
          "reference": "urn:uuid:a2dc32b1-34c3-4878-a15d-28a761b4580f",
          "display": "Timothy Smith"
        },
        "requester": {
          "reference": "urn:uuid:07f8a518-351d-4c6f-8d4a-c69a0ca337f8"
        }
      }
    },
    {
      "fullUrl": "urn:uuid:07f8a518-351d-4c6f-8d4a-c69a0ca337f8",
      "resource": {
        "resourceType": "PractitionerRole",
        "id": "07f8a518-351d-4c6f-8d4a-c69a0ca337f8",
        "meta": {
          "profile": [
            "http://hl7.eu/fhir/base/StructureDefinition/practitionerRole-eu"
          ]
        },
        "text": {
          "status": "generated",
          "div": "<div xmlns=\"http://www.w3.org/1999/xhtml\">Provider Role Id: 07f8a518-351d-4c6f-8d4a-c69a0ca337f8</div>"
        },
        "organization": {
          "reference": "urn:uuid:09a2d46b-27ed-4ea2-b704-961f50eba803"
        }
      }
    },
    {
      "fullUrl": "urn:uuid:09a2d46b-27ed-4ea2-b704-961f50eba803",
      "resource": {
        "resourceType": "Organization",
        "id": "09a2d46b-27ed-4ea2-b704-961f50eba803",
        "meta": {
          "profile": [
            "http://hl7.eu/fhir/base/StructureDefinition/organization-eu"
          ]
        },
        "identifier": [
          {
            "assigner": {
              "display": "HL7 Europe"
            },
            "system": "urn:oid:2.16.840.1.113883.2.51.999",
            "value": "194968c6-3552-4a78-91b4-76596dd49b3a"
          }
        ],
        "address": [
          {
            "city": "London",
            "postalCode": "SE1 7",
            "country": "United Kingdom"
          }
        ],
        "text": {
          "status": "generated",
          "div": "<div xmlns=\"http://www.w3.org/1999/xhtml\">Provider Organization: Evelina Children&#039;s Hospital</div>"
        },
        "name": "Evelina Children&#039;s Hospital"
      }
    },
    {
      "fullUrl": "urn:uuid:2b1312ca-e796-440f-a826-8f72a0bcc529",
      "resource": {
        "resourceType": "Specimen",
        "id": "2b1312ca-e796-440f-a826-8f72a0bcc529",
        "meta": {
          "profile": [
            "http://hl7.eu/fhir/laboratory/StructureDefinition/Specimen-eu-lab"
          ]
        },
        "collection": {
          "collectedDateTime": "2025-01-31"
        },
        "text": {
          "status": "generated",
          "div": "<div xmlns=\"http://www.w3.org/1999/xhtml\"><table class=\"hl7__eu__lab__report\"><tr><th>Specimen</th><th>Collection Date</th></tr><tr><td>Acellular blood (serum or plasma) specimen</td><td><span class=\"nb\">31-Jan-2025</span></td></tr></table></div>"
        },
        "type": {
          "coding": [
            {
              "code": "122592007",
              "system": "http://snomed.info/sct",
              "display": "Acellular blood (serum or plasma) specimen"
            }
          ]
        }
      }
    },
    {
      "fullUrl": "urn:uuid:10c5ce8e-677d-4d9a-aaac-99d9d02c2846",
      "resource": {
        "resourceType": "Specimen",
        "id": "10c5ce8e-677d-4d9a-aaac-99d9d02c2846",
        "meta": {
          "profile": [
            "http://hl7.eu/fhir/laboratory/StructureDefinition/Specimen-eu-lab"
          ]
        },
        "collection": {
          "collectedDateTime": "2025-01-31"
        },
        "text": {
          "status": "generated",
          "div": "<div xmlns=\"http://www.w3.org/1999/xhtml\"><table class=\"hl7__eu__lab__report\"><tr><th>Specimen</th><th>Collection Date</th></tr><tr><td>Whole blood specimen (specimen)</td><td><span class=\"nb\">31-Jan-2025</span></td></tr></table></div>"
        },
        "type": {
          "coding": [
            {
              "code": "258580003",
              "system": "http://snomed.info/sct",
              "display": "Whole blood specimen (specimen)"
            }
          ]
        }
      }
    },
    {
      "fullUrl": "urn:uuid:10c5ce8e-677d-4d9a-aaac-99d9d02c2846",
      "resource": {
        "resourceType": "Specimen",
        "id": "10c5ce8e-677d-4d9a-aaac-99d9d02c2846",
        "meta": {
          "profile": [
            "http://hl7.eu/fhir/laboratory/StructureDefinition/Specimen-eu-lab"
          ]
        },
        "collection": {
          "collectedDateTime": "2025-01-31"
        },
        "text": {
          "status": "generated",
          "div": "<div xmlns=\"http://www.w3.org/1999/xhtml\"><table class=\"hl7__eu__lab__report\"><tr><th>Specimen</th><th>Collection Date</th></tr><tr><td>Whole blood specimen (specimen)</td><td><span class=\"nb\">31-Jan-2025</span></td></tr></table></div>"
        },
        "type": {
          "coding": [
            {
              "code": "258580003",
              "system": "http://snomed.info/sct",
              "display": "Whole blood specimen (specimen)"
            }
          ]
        }
      }
    },
    {
      "fullUrl": "urn:uuid:b5eae659-85ae-40e4-ab8b-5fbd743ca6c5",
      "resource": {
        "resourceType": "Observation",
        "id": "b5eae659-85ae-40e4-ab8b-5fbd743ca6c5",
        "meta": {
          "profile": [
            "http://hl7.eu/fhir/laboratory/StructureDefinition/Observation-resultslab-eu-lab"
          ]
        },
        "performer": [
          {
            "display": "The Central European Lab"
          }
        ],
        "category": [
          {
            "coding": [
              {
                "system": "http://terminology.hl7.org/CodeSystem/observation-category",
                "code": "laboratory"
              }
            ]
          }
        ],
        "code": {
          "coding": [
            {
              "code": "33762-6",
              "system": "http://loinc.org",
              "display": "Natriuretic peptide.B prohormone N-Terminal [Mass/volume] in Serum or Plasma"
            }
          ],
          "text": "Natriuretic peptide.B prohormone N-Terminal [Mass/volume] in Serum or Plasma"
        },
        "valueQuantity": {
          "system": "http://unitsofmeasure.org",
          "value": 611.5,
          "unit": "pg/mL",
          "code": "pg/mL"
        },
        "referenceRange": [
          {
            "low": {
              "value": 300,
              "code": "pg/mL",
              "system": "http://unitsofmeasure.org"
            }
          },
          {
            "high": {
              "value": 900,
              "code": "pg/mL",
              "system": "http://unitsofmeasure.org"
            }
          }
        ],
        "text": {
          "status": "generated",
          "div": "<div xmlns=\"http://www.w3.org/1999/xhtml\"><table class=\"hl7__eu__lab__report\"><tr><th>Test</th><th>31-Jan-2025</th><th>Reference&#xA0;Range</th><th>Unit</th></tr><tr><td>Natriuretic peptide.B prohormone N-Terminal [Mass/volume] in Serum or Plasma</td><td>611.5</td><td>300 - 900</td><td></td><td>pg/mL</td></tr></table></div>"
        },
        "status": "final",
        "subject": {
          "reference": "urn:uuid:a2dc32b1-34c3-4878-a15d-28a761b4580f",
          "display": "Timothy Smith"
        },
        "effectiveDateTime": "2025-01-31T03:53:59Z",
        "specimen": {
          "reference": "urn:uuid:2b1312ca-e796-440f-a826-8f72a0bcc529"
        }
      }
    },
    {
      "fullUrl": "urn:uuid:6694102f-3822-4d0d-8458-e4475f9595a8",
      "resource": {
        "resourceType": "Observation",
        "id": "6694102f-3822-4d0d-8458-e4475f9595a8",
        "meta": {
          "profile": [
            "http://hl7.eu/fhir/laboratory/StructureDefinition/Observation-resultslab-eu-lab"
          ]
        },
        "performer": [
          {
            "display": "The Central European Lab"
          }
        ],
        "category": [
          {
            "coding": [
              {
                "system": "http://terminology.hl7.org/CodeSystem/observation-category",
                "code": "laboratory"
              }
            ]
          }
        ],
        "code": {
          "coding": [
            {
              "code": "6690-2",
              "system": "http://loinc.org",
              "display": "Leukocytes [#/volume] in Blood by Automated count"
            }
          ],
          "text": "Leukocytes [#/volume] in Blood by Automated count"
        },
        "valueQuantity": {
          "system": "http://unitsofmeasure.org",
          "value": 9.4,
          "unit": "10*3/uL",
          "code": "10*3/uL"
        },
        "referenceRange": [
          {
            "low": {
              "value": 3.6,
              "code": "10*3/uL",
              "system": "http://unitsofmeasure.org"
            }
          },
          {
            "high": {
              "value": 10.5,
              "code": "10*3/uL",
              "system": "http://unitsofmeasure.org"
            }
          }
        ],
        "text": {
          "status": "generated",
          "div": "<div xmlns=\"http://www.w3.org/1999/xhtml\"><table class=\"hl7__eu__lab__report\"><tr><th>Test</th><th>31-Jan-2025</th><th>Reference&#xA0;Range</th><th>Unit</th></tr><tr><td>Leukocytes [#/volume] in Blood by Automated count</td><td>9.4</td><td>3.6 - 10.5</td><td></td><td>10*3/uL</td></tr></table></div>"
        },
        "status": "final",
        "subject": {
          "reference": "urn:uuid:a2dc32b1-34c3-4878-a15d-28a761b4580f",
          "display": "Timothy Smith"
        },
        "effectiveDateTime": "2025-01-31T03:53:59Z",
        "specimen": {
          "reference": "urn:uuid:10c5ce8e-677d-4d9a-aaac-99d9d02c2846"
        }
      }
    },
    {
      "fullUrl": "urn:uuid:78507a27-5142-4abb-a7e0-e43f121bc2f0",
      "resource": {
        "resourceType": "Observation",
        "id": "78507a27-5142-4abb-a7e0-e43f121bc2f0",
        "meta": {
          "profile": [
            "http://hl7.eu/fhir/laboratory/StructureDefinition/Observation-resultslab-eu-lab"
          ]
        },
        "performer": [
          {
            "display": "The Central European Lab"
          }
        ],
        "category": [
          {
            "coding": [
              {
                "system": "http://terminology.hl7.org/CodeSystem/observation-category",
                "code": "laboratory"
              }
            ]
          }
        ],
        "code": {
          "coding": [
            {
              "code": "789-8",
              "system": "http://loinc.org",
              "display": "Erythrocytes [#/volume] in Blood by Automated count"
            }
          ],
          "text": "Erythrocytes [#/volume] in Blood by Automated count"
        },
        "valueQuantity": {
          "system": "http://unitsofmeasure.org",
          "value": 5.2,
          "unit": "10*6/uL",
          "code": "10*6/uL"
        },
        "referenceRange": [
          {
            "low": {
              "value": 4.3,
              "code": "10*6/uL",
              "system": "http://unitsofmeasure.org"
            }
          },
          {
            "high": {
              "value": 6.1,
              "code": "10*6/uL",
              "system": "http://unitsofmeasure.org"
            }
          }
        ],
        "text": {
          "status": "generated",
          "div": "<div xmlns=\"http://www.w3.org/1999/xhtml\"><table class=\"hl7__eu__lab__report\"><tr><th>Test</th><th>31-Jan-2025</th><th>Reference&#xA0;Range</th><th>Unit</th></tr><tr><td>Erythrocytes [#/volume] in Blood by Automated count</td><td>5.2</td><td>4.3 - 6.1</td><td></td><td>10*6/uL</td></tr></table></div>"
        },
        "status": "final",
        "subject": {
          "reference": "urn:uuid:a2dc32b1-34c3-4878-a15d-28a761b4580f",
          "display": "Timothy Smith"
        },
        "effectiveDateTime": "2025-01-31T03:53:59Z",
        "specimen": {
          "reference": "urn:uuid:10c5ce8e-677d-4d9a-aaac-99d9d02c2846"
        }
      }
    },
    {
      "fullUrl": "urn:uuid:45eb5ebe-1297-4416-bb56-781eba7858aa",
      "resource": {
        "resourceType": "Observation",
        "id": "45eb5ebe-1297-4416-bb56-781eba7858aa",
        "meta": {
          "profile": [
            "http://hl7.eu/fhir/laboratory/StructureDefinition/Observation-resultslab-eu-lab"
          ]
        },
        "performer": [
          {
            "display": "The Central European Lab"
          }
        ],
        "category": [
          {
            "coding": [
              {
                "system": "http://terminology.hl7.org/CodeSystem/observation-category",
                "code": "laboratory"
              }
            ]
          }
        ],
        "code": {
          "coding": [
            {
              "code": "718-7",
              "system": "http://loinc.org",
              "display": "Hemoglobin [Mass/volume] in Blood"
            }
          ],
          "text": "Hemoglobin [Mass/volume] in Blood"
        },
        "valueQuantity": {
          "system": "http://unitsofmeasure.org",
          "value": 15.4,
          "unit": "g/dL",
          "code": "g/dL"
        },
        "referenceRange": [
          {
            "low": {
              "value": 13.5,
              "code": "g/dL",
              "system": "http://unitsofmeasure.org"
            }
          },
          {
            "high": {
              "value": 17.5,
              "code": "g/dL",
              "system": "http://unitsofmeasure.org"
            }
          }
        ],
        "text": {
          "status": "generated",
          "div": "<div xmlns=\"http://www.w3.org/1999/xhtml\"><table class=\"hl7__eu__lab__report\"><tr><th>Test</th><th>31-Jan-2025</th><th>Reference&#xA0;Range</th><th>Unit</th></tr><tr><td>Hemoglobin [Mass/volume] in Blood</td><td>15.4</td><td>13.5 - 17.5</td><td></td><td>g/dL</td></tr></table></div>"
        },
        "status": "final",
        "subject": {
          "reference": "urn:uuid:a2dc32b1-34c3-4878-a15d-28a761b4580f",
          "display": "Timothy Smith"
        },
        "effectiveDateTime": "2025-01-31T03:53:59Z",
        "specimen": {
          "reference": "urn:uuid:10c5ce8e-677d-4d9a-aaac-99d9d02c2846"
        }
      }
    },
    {
      "fullUrl": "urn:uuid:f011b7a5-3dd7-4af8-a1de-38a0cceea49e",
      "resource": {
        "resourceType": "Observation",
        "id": "f011b7a5-3dd7-4af8-a1de-38a0cceea49e",
        "meta": {
          "profile": [
            "http://hl7.eu/fhir/laboratory/StructureDefinition/Observation-resultslab-eu-lab"
          ]
        },
        "performer": [
          {
            "display": "The Central European Lab"
          }
        ],
        "category": [
          {
            "coding": [
              {
                "system": "http://terminology.hl7.org/CodeSystem/observation-category",
                "code": "laboratory"
              }
            ]
          }
        ],
        "code": {
          "coding": [
            {
              "code": "4544-3",
              "system": "http://loinc.org",
              "display": "Hematocrit [Volume Fraction] of Blood by Automated count"
            }
          ],
          "text": "Hematocrit [Volume Fraction] of Blood by Automated count"
        },
        "valueQuantity": {
          "system": "http://unitsofmeasure.org",
          "value": 49.6,
          "unit": "%",
          "code": "%"
        },
        "referenceRange": [
          {
            "low": {
              "value": 38,
              "code": "%",
              "system": "http://unitsofmeasure.org"
            }
          },
          {
            "high": {
              "value": 50,
              "code": "%",
              "system": "http://unitsofmeasure.org"
            }
          }
        ],
        "text": {
          "status": "generated",
          "div": "<div xmlns=\"http://www.w3.org/1999/xhtml\"><table class=\"hl7__eu__lab__report\"><tr><th>Test</th><th>31-Jan-2025</th><th>Reference&#xA0;Range</th><th>Unit</th></tr><tr><td>Hematocrit [Volume Fraction] of Blood by Automated count</td><td>49.6</td><td>38 - 50</td><td></td><td>%</td></tr></table></div>"
        },
        "status": "final",
        "subject": {
          "reference": "urn:uuid:a2dc32b1-34c3-4878-a15d-28a761b4580f",
          "display": "Timothy Smith"
        },
        "effectiveDateTime": "2025-01-31T03:53:59Z",
        "specimen": {
          "reference": "urn:uuid:10c5ce8e-677d-4d9a-aaac-99d9d02c2846"
        }
      }
    },
    {
      "fullUrl": "urn:uuid:c25bab5c-bd2f-4679-a833-055678f629d4",
      "resource": {
        "resourceType": "Observation",
        "id": "c25bab5c-bd2f-4679-a833-055678f629d4",
        "meta": {
          "profile": [
            "http://hl7.eu/fhir/laboratory/StructureDefinition/Observation-resultslab-eu-lab"
          ]
        },
        "performer": [
          {
            "display": "The Central European Lab"
          }
        ],
        "category": [
          {
            "coding": [
              {
                "system": "http://terminology.hl7.org/CodeSystem/observation-category",
                "code": "laboratory"
              }
            ]
          }
        ],
        "code": {
          "coding": [
            {
              "code": "787-2",
              "system": "http://loinc.org",
              "display": "MCV [Entitic volume] by Automated count"
            }
          ],
          "text": "MCV [Entitic volume] by Automated count"
        },
        "valueQuantity": {
          "system": "http://unitsofmeasure.org",
          "value": 91.5,
          "unit": "fL",
          "code": "fL"
        },
        "referenceRange": [
          {
            "low": {
              "value": 76,
              "code": "fL",
              "system": "http://unitsofmeasure.org"
            }
          },
          {
            "high": {
              "value": 98,
              "code": "fL",
              "system": "http://unitsofmeasure.org"
            }
          }
        ],
        "text": {
          "status": "generated",
          "div": "<div xmlns=\"http://www.w3.org/1999/xhtml\"><table class=\"hl7__eu__lab__report\"><tr><th>Test</th><th>31-Jan-2025</th><th>Reference&#xA0;Range</th><th>Unit</th></tr><tr><td>MCV [Entitic volume] by Automated count</td><td>91.5</td><td>76 - 98</td><td></td><td>fL</td></tr></table></div>"
        },
        "status": "final",
        "subject": {
          "reference": "urn:uuid:a2dc32b1-34c3-4878-a15d-28a761b4580f",
          "display": "Timothy Smith"
        },
        "effectiveDateTime": "2025-01-31T03:53:59Z",
        "specimen": {
          "reference": "urn:uuid:10c5ce8e-677d-4d9a-aaac-99d9d02c2846"
        }
      }
    },
    {
      "fullUrl": "urn:uuid:bfdfd57a-3c6d-4622-ac85-6253b0786ae2",
      "resource": {
        "resourceType": "Observation",
        "id": "bfdfd57a-3c6d-4622-ac85-6253b0786ae2",
        "meta": {
          "profile": [
            "http://hl7.eu/fhir/laboratory/StructureDefinition/Observation-resultslab-eu-lab"
          ]
        },
        "performer": [
          {
            "display": "The Central European Lab"
          }
        ],
        "category": [
          {
            "coding": [
              {
                "system": "http://terminology.hl7.org/CodeSystem/observation-category",
                "code": "laboratory"
              }
            ]
          }
        ],
        "code": {
          "coding": [
            {
              "code": "785-6",
              "system": "http://loinc.org",
              "display": "MCH [Entitic mass] by Automated count"
            }
          ],
          "text": "MCH [Entitic mass] by Automated count"
        },
        "valueQuantity": {
          "system": "http://unitsofmeasure.org",
          "value": 30.4,
          "unit": "pg",
          "code": "pg"
        },
        "referenceRange": [
          {
            "low": {
              "value": 27,
              "code": "pg",
              "system": "http://unitsofmeasure.org"
            }
          },
          {
            "high": {
              "value": 33,
              "code": "pg",
              "system": "http://unitsofmeasure.org"
            }
          }
        ],
        "text": {
          "status": "generated",
          "div": "<div xmlns=\"http://www.w3.org/1999/xhtml\"><table class=\"hl7__eu__lab__report\"><tr><th>Test</th><th>31-Jan-2025</th><th>Reference&#xA0;Range</th><th>Unit</th></tr><tr><td>MCH [Entitic mass] by Automated count</td><td>30.4</td><td>27 - 33</td><td></td><td>pg</td></tr></table></div>"
        },
        "status": "final",
        "subject": {
          "reference": "urn:uuid:a2dc32b1-34c3-4878-a15d-28a761b4580f",
          "display": "Timothy Smith"
        },
        "effectiveDateTime": "2025-01-31T03:53:59Z",
        "specimen": {
          "reference": "urn:uuid:10c5ce8e-677d-4d9a-aaac-99d9d02c2846"
        }
      }
    },
    {
      "fullUrl": "urn:uuid:818c892d-004b-498f-8e15-ba749b4e003e",
      "resource": {
        "resourceType": "Observation",
        "id": "818c892d-004b-498f-8e15-ba749b4e003e",
        "meta": {
          "profile": [
            "http://hl7.eu/fhir/laboratory/StructureDefinition/Observation-resultslab-eu-lab"
          ]
        },
        "performer": [
          {
            "display": "The Central European Lab"
          }
        ],
        "category": [
          {
            "coding": [
              {
                "system": "http://terminology.hl7.org/CodeSystem/observation-category",
                "code": "laboratory"
              }
            ]
          }
        ],
        "code": {
          "coding": [
            {
              "code": "786-4",
              "system": "http://loinc.org",
              "display": "MCHC [Mass/volume] by Automated count"
            }
          ],
          "text": "MCHC [Mass/volume] by Automated count"
        },
        "valueQuantity": {
          "system": "http://unitsofmeasure.org",
          "value": 32.6,
          "unit": "g/dL",
          "code": "g/dL"
        },
        "referenceRange": [
          {
            "low": {
              "value": 31,
              "code": "g/dL",
              "system": "http://unitsofmeasure.org"
            }
          },
          {
            "high": {
              "value": 37,
              "code": "g/dL",
              "system": "http://unitsofmeasure.org"
            }
          }
        ],
        "text": {
          "status": "generated",
          "div": "<div xmlns=\"http://www.w3.org/1999/xhtml\"><table class=\"hl7__eu__lab__report\"><tr><th>Test</th><th>31-Jan-2025</th><th>Reference&#xA0;Range</th><th>Unit</th></tr><tr><td>MCHC [Mass/volume] by Automated count</td><td>32.6</td><td>31 - 37</td><td></td><td>g/dL</td></tr></table></div>"
        },
        "status": "final",
        "subject": {
          "reference": "urn:uuid:a2dc32b1-34c3-4878-a15d-28a761b4580f",
          "display": "Timothy Smith"
        },
        "effectiveDateTime": "2025-01-31T03:53:59Z",
        "specimen": {
          "reference": "urn:uuid:10c5ce8e-677d-4d9a-aaac-99d9d02c2846"
        }
      }
    },
    {
      "fullUrl": "urn:uuid:82df9392-9120-48c2-9660-8b1c035b7808",
      "resource": {
        "resourceType": "Observation",
        "id": "82df9392-9120-48c2-9660-8b1c035b7808",
        "meta": {
          "profile": [
            "http://hl7.eu/fhir/laboratory/StructureDefinition/Observation-resultslab-eu-lab"
          ]
        },
        "performer": [
          {
            "display": "The Central European Lab"
          }
        ],
        "category": [
          {
            "coding": [
              {
                "system": "http://terminology.hl7.org/CodeSystem/observation-category",
                "code": "laboratory"
              }
            ]
          }
        ],
        "code": {
          "coding": [
            {
              "code": "788-0",
              "system": "http://loinc.org",
              "display": "Erythrocyte distribution width [Ratio] by Automated count"
            }
          ],
          "text": "Erythrocyte distribution width [Ratio] by Automated count"
        },
        "valueQuantity": {
          "system": "http://unitsofmeasure.org",
          "value": 13.7,
          "unit": "%",
          "code": "%"
        },
        "referenceRange": [
          {
            "low": {
              "value": 11.6,
              "code": "%",
              "system": "http://unitsofmeasure.org"
            }
          },
          {
            "high": {
              "value": 16.5,
              "code": "%",
              "system": "http://unitsofmeasure.org"
            }
          }
        ],
        "text": {
          "status": "generated",
          "div": "<div xmlns=\"http://www.w3.org/1999/xhtml\"><table class=\"hl7__eu__lab__report\"><tr><th>Test</th><th>31-Jan-2025</th><th>Reference&#xA0;Range</th><th>Unit</th></tr><tr><td>Erythrocyte distribution width [Ratio] by Automated count</td><td>13.7</td><td>11.6 - 16.5</td><td></td><td>%</td></tr></table></div>"
        },
        "status": "final",
        "subject": {
          "reference": "urn:uuid:a2dc32b1-34c3-4878-a15d-28a761b4580f",
          "display": "Timothy Smith"
        },
        "effectiveDateTime": "2025-01-31T03:53:59Z",
        "specimen": {
          "reference": "urn:uuid:10c5ce8e-677d-4d9a-aaac-99d9d02c2846"
        }
      }
    },
    {
      "fullUrl": "urn:uuid:2c3ad155-3b56-4eeb-ae1d-3f5450039361",
      "resource": {
        "resourceType": "Observation",
        "id": "2c3ad155-3b56-4eeb-ae1d-3f5450039361",
        "meta": {
          "profile": [
            "http://hl7.eu/fhir/laboratory/StructureDefinition/Observation-resultslab-eu-lab"
          ]
        },
        "performer": [
          {
            "display": "The Central European Lab"
          }
        ],
        "category": [
          {
            "coding": [
              {
                "system": "http://terminology.hl7.org/CodeSystem/observation-category",
                "code": "laboratory"
              }
            ]
          }
        ],
        "code": {
          "coding": [
            {
              "code": "777-3",
              "system": "http://loinc.org",
              "display": "Platelets [#/volume] in Blood by Automated count"
            }
          ],
          "text": "Platelets [#/volume] in Blood by Automated count"
        },
        "valueQuantity": {
          "system": "http://unitsofmeasure.org",
          "value": 419.4,
          "unit": "10*3/uL",
          "code": "10*3/uL"
        },
        "referenceRange": [
          {
            "low": {
              "value": 155,
              "code": "10*3/uL",
              "system": "http://unitsofmeasure.org"
            }
          },
          {
            "high": {
              "value": 415,
              "code": "10*3/uL",
              "system": "http://unitsofmeasure.org"
            }
          }
        ],
        "interpretation": [
          {
            "coding": [
              {
                "code": "H",
                "system": "http://terminology.hl7.org/CodeSystem/v3-ObservationInterpretation",
                "display": "High"
              }
            ]
          }
        ],
        "text": {
          "status": "generated",
          "div": "<div xmlns=\"http://www.w3.org/1999/xhtml\"><table class=\"hl7__eu__lab__report\"><tr><th>Test</th><th>31-Jan-2025</th><th>Reference&#xA0;Range</th><th>Unit</th></tr><tr><td>Platelets [#/volume] in Blood by Automated count</td><td>419.4</td><td>155 - 415</td><td>H</td><td>10*3/uL</td></tr></table></div>"
        },
        "status": "final",
        "subject": {
          "reference": "urn:uuid:a2dc32b1-34c3-4878-a15d-28a761b4580f",
          "display": "Timothy Smith"
        },
        "effectiveDateTime": "2025-01-31T03:53:59Z",
        "specimen": {
          "reference": "urn:uuid:10c5ce8e-677d-4d9a-aaac-99d9d02c2846"
        }
      }
    },
    {
      "fullUrl": "urn:uuid:44b8e229-b7a9-4388-8ab9-08a7578a322c",
      "resource": {
        "resourceType": "Observation",
        "id": "44b8e229-b7a9-4388-8ab9-08a7578a322c",
        "meta": {
          "profile": [
            "http://hl7.eu/fhir/laboratory/StructureDefinition/Observation-resultslab-eu-lab"
          ]
        },
        "performer": [
          {
            "display": "The Central European Lab"
          }
        ],
        "category": [
          {
            "coding": [
              {
                "system": "http://terminology.hl7.org/CodeSystem/observation-category",
                "code": "laboratory"
              }
            ]
          }
        ],
        "code": {
          "coding": [
            {
              "code": "2345-7",
              "system": "http://loinc.org",
              "display": "Glucose [Mass/volume] in Serum or Plasma"
            }
          ],
          "text": "Glucose [Mass/volume] in Serum or Plasma"
        },
        "valueQuantity": {
          "system": "http://unitsofmeasure.org",
          "value": 193.3,
          "unit": "mg/dL",
          "code": "mg/dL"
        },
        "referenceRange": [
          {
            "low": {
              "value": 70,
              "code": "mg/dL",
              "system": "http://unitsofmeasure.org"
            }
          },
          {
            "high": {
              "value": 140,
              "code": "mg/dL",
              "system": "http://unitsofmeasure.org"
            }
          }
        ],
        "interpretation": [
          {
            "coding": [
              {
                "code": "H",
                "system": "http://terminology.hl7.org/CodeSystem/v3-ObservationInterpretation",
                "display": "High"
              }
            ]
          }
        ],
        "text": {
          "status": "generated",
          "div": "<div xmlns=\"http://www.w3.org/1999/xhtml\"><table class=\"hl7__eu__lab__report\"><tr><th>Test</th><th>31-Jan-2025</th><th>Reference&#xA0;Range</th><th>Unit</th></tr><tr><td>Glucose [Mass/volume] in Serum or Plasma</td><td>193.3</td><td>70 - 140</td><td>H</td><td>mg/dL</td></tr></table></div>"
        },
        "status": "final",
        "subject": {
          "reference": "urn:uuid:a2dc32b1-34c3-4878-a15d-28a761b4580f",
          "display": "Timothy Smith"
        },
        "effectiveDateTime": "2025-01-31T03:53:59Z",
        "specimen": {
          "reference": "urn:uuid:2b1312ca-e796-440f-a826-8f72a0bcc529"
        }
      }
    },
    {
      "fullUrl": "urn:uuid:4bfd8280-d91b-4ff2-9f31-3f8001406752",
      "resource": {
        "resourceType": "Observation",
        "id": "4bfd8280-d91b-4ff2-9f31-3f8001406752",
        "meta": {
          "profile": [
            "http://hl7.eu/fhir/laboratory/StructureDefinition/Observation-resultslab-eu-lab"
          ]
        },
        "performer": [
          {
            "display": "The Central European Lab"
          }
        ],
        "category": [
          {
            "coding": [
              {
                "system": "http://terminology.hl7.org/CodeSystem/observation-category",
                "code": "laboratory"
              }
            ]
          }
        ],
        "code": {
          "coding": [
            {
              "code": "3094-0",
              "system": "http://loinc.org",
              "display": "Urea nitrogen [Mass/volume] in Serum or Plasma"
            }
          ],
          "text": "Urea nitrogen [Mass/volume] in Serum or Plasma"
        },
        "valueQuantity": {
          "system": "http://unitsofmeasure.org",
          "value": 7.1,
          "unit": "mg/dL",
          "code": "mg/dL"
        },
        "referenceRange": [
          {
            "low": {
              "value": 7,
              "code": "mg/dL",
              "system": "http://unitsofmeasure.org"
            }
          },
          {
            "high": {
              "value": 50,
              "code": "mg/dL",
              "system": "http://unitsofmeasure.org"
            }
          }
        ],
        "text": {
          "status": "generated",
          "div": "<div xmlns=\"http://www.w3.org/1999/xhtml\"><table class=\"hl7__eu__lab__report\"><tr><th>Test</th><th>31-Jan-2025</th><th>Reference&#xA0;Range</th><th>Unit</th></tr><tr><td>Urea nitrogen [Mass/volume] in Serum or Plasma</td><td>7.1</td><td>7 - 50</td><td></td><td>mg/dL</td></tr></table></div>"
        },
        "status": "final",
        "subject": {
          "reference": "urn:uuid:a2dc32b1-34c3-4878-a15d-28a761b4580f",
          "display": "Timothy Smith"
        },
        "effectiveDateTime": "2025-01-31T03:53:59Z",
        "specimen": {
          "reference": "urn:uuid:2b1312ca-e796-440f-a826-8f72a0bcc529"
        }
      }
    },
    {
      "fullUrl": "urn:uuid:3bcca71d-16c1-44aa-a2fd-842cbbb407d1",
      "resource": {
        "resourceType": "Observation",
        "id": "3bcca71d-16c1-44aa-a2fd-842cbbb407d1",
        "meta": {
          "profile": [
            "http://hl7.eu/fhir/laboratory/StructureDefinition/Observation-resultslab-eu-lab"
          ]
        },
        "performer": [
          {
            "display": "The Central European Lab"
          }
        ],
        "category": [
          {
            "coding": [
              {
                "system": "http://terminology.hl7.org/CodeSystem/observation-category",
                "code": "laboratory"
              }
            ]
          }
        ],
        "code": {
          "coding": [
            {
              "code": "2160-0",
              "system": "http://loinc.org",
              "display": "Creatinine [Mass/volume] in Serum or Plasma"
            }
          ],
          "text": "Creatinine [Mass/volume] in Serum or Plasma"
        },
        "valueQuantity": {
          "system": "http://unitsofmeasure.org",
          "value": 0.8,
          "unit": "mg/dL",
          "code": "mg/dL"
        },
        "referenceRange": [
          {
            "low": {
              "value": 0.9,
              "code": "mg/dL",
              "system": "http://unitsofmeasure.org"
            }
          },
          {
            "high": {
              "value": 1.3,
              "code": "mg/dL",
              "system": "http://unitsofmeasure.org"
            }
          }
        ],
        "interpretation": [
          {
            "coding": [
              {
                "code": "L",
                "system": "http://terminology.hl7.org/CodeSystem/v3-ObservationInterpretation",
                "display": "Low"
              }
            ]
          }
        ],
        "text": {
          "status": "generated",
          "div": "<div xmlns=\"http://www.w3.org/1999/xhtml\"><table class=\"hl7__eu__lab__report\"><tr><th>Test</th><th>31-Jan-2025</th><th>Reference&#xA0;Range</th><th>Unit</th></tr><tr><td>Creatinine [Mass/volume] in Serum or Plasma</td><td>0.8</td><td>0.9 - 1.3</td><td>L</td><td>mg/dL</td></tr></table></div>"
        },
        "status": "final",
        "subject": {
          "reference": "urn:uuid:a2dc32b1-34c3-4878-a15d-28a761b4580f",
          "display": "Timothy Smith"
        },
        "effectiveDateTime": "2025-01-31T03:53:59Z",
        "specimen": {
          "reference": "urn:uuid:2b1312ca-e796-440f-a826-8f72a0bcc529"
        }
      }
    },
    {
      "fullUrl": "urn:uuid:a3b92e3d-ce41-4236-b5fe-0a81053759a0",
      "resource": {
        "resourceType": "Observation",
        "id": "a3b92e3d-ce41-4236-b5fe-0a81053759a0",
        "meta": {
          "profile": [
            "http://hl7.eu/fhir/laboratory/StructureDefinition/Observation-resultslab-eu-lab"
          ]
        },
        "performer": [
          {
            "display": "The Central European Lab"
          }
        ],
        "category": [
          {
            "coding": [
              {
                "system": "http://terminology.hl7.org/CodeSystem/observation-category",
                "code": "laboratory"
              }
            ]
          }
        ],
        "code": {
          "coding": [
            {
              "code": "17861-6",
              "system": "http://loinc.org",
              "display": "Calcium [Mass/volume] in Serum or Plasma"
            }
          ],
          "text": "Calcium [Mass/volume] in Serum or Plasma"
        },
        "valueQuantity": {
          "system": "http://unitsofmeasure.org",
          "value": 9,
          "unit": "mg/dL",
          "code": "mg/dL"
        },
        "referenceRange": [
          {
            "low": {
              "value": 8.5,
              "code": "mg/dL",
              "system": "http://unitsofmeasure.org"
            }
          },
          {
            "high": {
              "value": 10.5,
              "code": "mg/dL",
              "system": "http://unitsofmeasure.org"
            }
          }
        ],
        "text": {
          "status": "generated",
          "div": "<div xmlns=\"http://www.w3.org/1999/xhtml\"><table class=\"hl7__eu__lab__report\"><tr><th>Test</th><th>31-Jan-2025</th><th>Reference&#xA0;Range</th><th>Unit</th></tr><tr><td>Calcium [Mass/volume] in Serum or Plasma</td><td>9.0</td><td>8.5 - 10.5</td><td></td><td>mg/dL</td></tr></table></div>"
        },
        "status": "final",
        "subject": {
          "reference": "urn:uuid:a2dc32b1-34c3-4878-a15d-28a761b4580f",
          "display": "Timothy Smith"
        },
        "effectiveDateTime": "2025-01-31T03:53:59Z",
        "specimen": {
          "reference": "urn:uuid:2b1312ca-e796-440f-a826-8f72a0bcc529"
        }
      }
    },
    {
      "fullUrl": "urn:uuid:4c7fb637-7b1e-49cf-8185-49524237552a",
      "resource": {
        "resourceType": "Observation",
        "id": "4c7fb637-7b1e-49cf-8185-49524237552a",
        "meta": {
          "profile": [
            "http://hl7.eu/fhir/laboratory/StructureDefinition/Observation-resultslab-eu-lab"
          ]
        },
        "performer": [
          {
            "display": "The Central European Lab"
          }
        ],
        "category": [
          {
            "coding": [
              {
                "system": "http://terminology.hl7.org/CodeSystem/observation-category",
                "code": "laboratory"
              }
            ]
          }
        ],
        "code": {
          "coding": [
            {
              "code": "2951-2",
              "system": "http://loinc.org",
              "display": "Sodium [Moles/volume] in Serum or Plasma"
            }
          ],
          "text": "Sodium [Moles/volume] in Serum or Plasma"
        },
        "valueQuantity": {
          "system": "http://unitsofmeasure.org",
          "value": 140.7,
          "unit": "mmol/L",
          "code": "mmol/L"
        },
        "referenceRange": [
          {
            "low": {
              "value": 135,
              "code": "mmol/L",
              "system": "http://unitsofmeasure.org"
            }
          },
          {
            "high": {
              "value": 145,
              "code": "mmol/L",
              "system": "http://unitsofmeasure.org"
            }
          }
        ],
        "text": {
          "status": "generated",
          "div": "<div xmlns=\"http://www.w3.org/1999/xhtml\"><table class=\"hl7__eu__lab__report\"><tr><th>Test</th><th>31-Jan-2025</th><th>Reference&#xA0;Range</th><th>Unit</th></tr><tr><td>Sodium [Moles/volume] in Serum or Plasma</td><td>140.7</td><td>135 - 145</td><td></td><td>mmol/L</td></tr></table></div>"
        },
        "status": "final",
        "subject": {
          "reference": "urn:uuid:a2dc32b1-34c3-4878-a15d-28a761b4580f",
          "display": "Timothy Smith"
        },
        "effectiveDateTime": "2025-01-31T03:53:59Z",
        "specimen": {
          "reference": "urn:uuid:2b1312ca-e796-440f-a826-8f72a0bcc529"
        }
      }
    },
    {
      "fullUrl": "urn:uuid:3d4e7275-8e58-45af-b6c6-b718f1e628cd",
      "resource": {
        "resourceType": "Observation",
        "id": "3d4e7275-8e58-45af-b6c6-b718f1e628cd",
        "meta": {
          "profile": [
            "http://hl7.eu/fhir/laboratory/StructureDefinition/Observation-resultslab-eu-lab"
          ]
        },
        "performer": [
          {
            "display": "The Central European Lab"
          }
        ],
        "category": [
          {
            "coding": [
              {
                "system": "http://terminology.hl7.org/CodeSystem/observation-category",
                "code": "laboratory"
              }
            ]
          }
        ],
        "code": {
          "coding": [
            {
              "code": "2823-3",
              "system": "http://loinc.org",
              "display": "Potassium [Moles/volume] in Serum or Plasma"
            }
          ],
          "text": "Potassium [Moles/volume] in Serum or Plasma"
        },
        "valueQuantity": {
          "system": "http://unitsofmeasure.org",
          "value": 4.5,
          "unit": "mmol/L",
          "code": "mmol/L"
        },
        "referenceRange": [
          {
            "low": {
              "value": 3.5,
              "code": "mmol/L",
              "system": "http://unitsofmeasure.org"
            }
          },
          {
            "high": {
              "value": 5.1,
              "code": "mmol/L",
              "system": "http://unitsofmeasure.org"
            }
          }
        ],
        "text": {
          "status": "generated",
          "div": "<div xmlns=\"http://www.w3.org/1999/xhtml\"><table class=\"hl7__eu__lab__report\"><tr><th>Test</th><th>31-Jan-2025</th><th>Reference&#xA0;Range</th><th>Unit</th></tr><tr><td>Potassium [Moles/volume] in Serum or Plasma</td><td>4.5</td><td>3.5 - 5.1</td><td></td><td>mmol/L</td></tr></table></div>"
        },
        "status": "final",
        "subject": {
          "reference": "urn:uuid:a2dc32b1-34c3-4878-a15d-28a761b4580f",
          "display": "Timothy Smith"
        },
        "effectiveDateTime": "2025-01-31T03:53:59Z",
        "specimen": {
          "reference": "urn:uuid:2b1312ca-e796-440f-a826-8f72a0bcc529"
        }
      }
    },
    {
      "fullUrl": "urn:uuid:2c398fcc-a091-492b-8415-3a99262f1519",
      "resource": {
        "resourceType": "Observation",
        "id": "2c398fcc-a091-492b-8415-3a99262f1519",
        "meta": {
          "profile": [
            "http://hl7.eu/fhir/laboratory/StructureDefinition/Observation-resultslab-eu-lab"
          ]
        },
        "performer": [
          {
            "display": "The Central European Lab"
          }
        ],
        "category": [
          {
            "coding": [
              {
                "system": "http://terminology.hl7.org/CodeSystem/observation-category",
                "code": "laboratory"
              }
            ]
          }
        ],
        "code": {
          "coding": [
            {
              "code": "2075-0",
              "system": "http://loinc.org",
              "display": "Chloride [Moles/volume] in Serum or Plasma"
            }
          ],
          "text": "Chloride [Moles/volume] in Serum or Plasma"
        },
        "valueQuantity": {
          "system": "http://unitsofmeasure.org",
          "value": 106.3,
          "unit": "mmol/L",
          "code": "mmol/L"
        },
        "referenceRange": [
          {
            "low": {
              "value": 98,
              "code": "mmol/L",
              "system": "http://unitsofmeasure.org"
            }
          },
          {
            "high": {
              "value": 108,
              "code": "mmol/L",
              "system": "http://unitsofmeasure.org"
            }
          }
        ],
        "text": {
          "status": "generated",
          "div": "<div xmlns=\"http://www.w3.org/1999/xhtml\"><table class=\"hl7__eu__lab__report\"><tr><th>Test</th><th>31-Jan-2025</th><th>Reference&#xA0;Range</th><th>Unit</th></tr><tr><td>Chloride [Moles/volume] in Serum or Plasma</td><td>106.3</td><td>98 - 108</td><td></td><td>mmol/L</td></tr></table></div>"
        },
        "status": "final",
        "subject": {
          "reference": "urn:uuid:a2dc32b1-34c3-4878-a15d-28a761b4580f",
          "display": "Timothy Smith"
        },
        "effectiveDateTime": "2025-01-31T03:53:59Z",
        "specimen": {
          "reference": "urn:uuid:2b1312ca-e796-440f-a826-8f72a0bcc529"
        }
      }
    },
    {
      "fullUrl": "urn:uuid:c4af0fbd-5c69-444e-872a-4627295102df",
      "resource": {
        "resourceType": "Observation",
        "id": "c4af0fbd-5c69-444e-872a-4627295102df",
        "meta": {
          "profile": [
            "http://hl7.eu/fhir/laboratory/StructureDefinition/Observation-resultslab-eu-lab"
          ]
        },
        "performer": [
          {
            "display": "The Central European Lab"
          }
        ],
        "category": [
          {
            "coding": [
              {
                "system": "http://terminology.hl7.org/CodeSystem/observation-category",
                "code": "laboratory"
              }
            ]
          }
        ],
        "code": {
          "coding": [
            {
              "code": "2028-9",
              "system": "http://loinc.org",
              "display": "Carbon dioxide, total [Moles/volume] in Serum or Plasma"
            }
          ],
          "text": "Carbon dioxide, total [Moles/volume] in Serum or Plasma"
        },
        "valueQuantity": {
          "system": "http://unitsofmeasure.org",
          "value": 25.6,
          "unit": "mmol/L",
          "code": "mmol/L"
        },
        "referenceRange": [
          {
            "low": {
              "value": 22,
              "code": "mmol/L",
              "system": "http://unitsofmeasure.org"
            }
          },
          {
            "high": {
              "value": 32,
              "code": "mmol/L",
              "system": "http://unitsofmeasure.org"
            }
          }
        ],
        "text": {
          "status": "generated",
          "div": "<div xmlns=\"http://www.w3.org/1999/xhtml\"><table class=\"hl7__eu__lab__report\"><tr><th>Test</th><th>31-Jan-2025</th><th>Reference&#xA0;Range</th><th>Unit</th></tr><tr><td>Carbon dioxide, total [Moles/volume] in Serum or Plasma</td><td>25.6</td><td>22 - 32</td><td></td><td>mmol/L</td></tr></table></div>"
        },
        "status": "final",
        "subject": {
          "reference": "urn:uuid:a2dc32b1-34c3-4878-a15d-28a761b4580f",
          "display": "Timothy Smith"
        },
        "effectiveDateTime": "2025-01-31T03:53:59Z",
        "specimen": {
          "reference": "urn:uuid:2b1312ca-e796-440f-a826-8f72a0bcc529"
        }
      }
    },
    {
      "fullUrl": "urn:uuid:b60fb15f-1b75-40ee-95d1-de17a4ab2f95",
      "resource": {
        "resourceType": "Observation",
        "id": "b60fb15f-1b75-40ee-95d1-de17a4ab2f95",
        "meta": {
          "profile": [
            "http://hl7.eu/fhir/laboratory/StructureDefinition/Observation-resultslab-eu-lab"
          ]
        },
        "performer": [
          {
            "display": "The Central European Lab"
          }
        ],
        "category": [
          {
            "coding": [
              {
                "system": "http://terminology.hl7.org/CodeSystem/observation-category",
                "code": "laboratory"
              }
            ]
          }
        ],
        "code": {
          "coding": [
            {
              "code": "2885-2",
              "system": "http://loinc.org",
              "display": "Protein [Mass/volume] in Serum or Plasma"
            }
          ],
          "text": "Protein [Mass/volume] in Serum or Plasma"
        },
        "valueQuantity": {
          "system": "http://unitsofmeasure.org",
          "value": 6.1,
          "unit": "g/dL",
          "code": "g/dL"
        },
        "referenceRange": [
          {
            "low": {
              "value": 6,
              "code": "g/dL",
              "system": "http://unitsofmeasure.org"
            }
          },
          {
            "high": {
              "value": 8.3,
              "code": "g/dL",
              "system": "http://unitsofmeasure.org"
            }
          }
        ],
        "text": {
          "status": "generated",
          "div": "<div xmlns=\"http://www.w3.org/1999/xhtml\"><table class=\"hl7__eu__lab__report\"><tr><th>Test</th><th>31-Jan-2025</th><th>Reference&#xA0;Range</th><th>Unit</th></tr><tr><td>Protein [Mass/volume] in Serum or Plasma</td><td>6.1</td><td>6 - 8.3</td><td></td><td>g/dL</td></tr></table></div>"
        },
        "status": "final",
        "subject": {
          "reference": "urn:uuid:a2dc32b1-34c3-4878-a15d-28a761b4580f",
          "display": "Timothy Smith"
        },
        "effectiveDateTime": "2025-01-31T03:53:59Z",
        "specimen": {
          "reference": "urn:uuid:2b1312ca-e796-440f-a826-8f72a0bcc529"
        }
      }
    },
    {
      "fullUrl": "urn:uuid:37044866-468c-4664-877c-5d2b0202dacb",
      "resource": {
        "resourceType": "Observation",
        "id": "37044866-468c-4664-877c-5d2b0202dacb",
        "meta": {
          "profile": [
            "http://hl7.eu/fhir/laboratory/StructureDefinition/Observation-resultslab-eu-lab"
          ]
        },
        "performer": [
          {
            "display": "The Central European Lab"
          }
        ],
        "category": [
          {
            "coding": [
              {
                "system": "http://terminology.hl7.org/CodeSystem/observation-category",
                "code": "laboratory"
              }
            ]
          }
        ],
        "code": {
          "coding": [
            {
              "code": "1751-7",
              "system": "http://loinc.org",
              "display": "Albumin [Mass/volume] in Serum or Plasma"
            }
          ],
          "text": "Albumin [Mass/volume] in Serum or Plasma"
        },
        "valueQuantity": {
          "system": "http://unitsofmeasure.org",
          "value": 5,
          "unit": "g/dL",
          "code": "g/dL"
        },
        "referenceRange": [
          {
            "low": {
              "value": 3.5,
              "code": "g/dL",
              "system": "http://unitsofmeasure.org"
            }
          },
          {
            "high": {
              "value": 5.5,
              "code": "g/dL",
              "system": "http://unitsofmeasure.org"
            }
          }
        ],
        "text": {
          "status": "generated",
          "div": "<div xmlns=\"http://www.w3.org/1999/xhtml\"><table class=\"hl7__eu__lab__report\"><tr><th>Test</th><th>31-Jan-2025</th><th>Reference&#xA0;Range</th><th>Unit</th></tr><tr><td>Albumin [Mass/volume] in Serum or Plasma</td><td>5.0</td><td>3.5 - 5.5</td><td></td><td>g/dL</td></tr></table></div>"
        },
        "status": "final",
        "subject": {
          "reference": "urn:uuid:a2dc32b1-34c3-4878-a15d-28a761b4580f",
          "display": "Timothy Smith"
        },
        "effectiveDateTime": "2025-01-31T03:53:59Z",
        "specimen": {
          "reference": "urn:uuid:2b1312ca-e796-440f-a826-8f72a0bcc529"
        }
      }
    },
    {
      "fullUrl": "urn:uuid:2221e219-e238-4bda-94db-07a0780e8649",
      "resource": {
        "resourceType": "Observation",
        "id": "2221e219-e238-4bda-94db-07a0780e8649",
        "meta": {
          "profile": [
            "http://hl7.eu/fhir/laboratory/StructureDefinition/Observation-resultslab-eu-lab"
          ]
        },
        "performer": [
          {
            "display": "The Central European Lab"
          }
        ],
        "category": [
          {
            "coding": [
              {
                "system": "http://terminology.hl7.org/CodeSystem/observation-category",
                "code": "laboratory"
              }
            ]
          }
        ],
        "code": {
          "coding": [
            {
              "code": "1975-2",
              "system": "http://loinc.org",
              "display": "Bilirubin.total [Mass/volume] in Serum or Plasma"
            }
          ],
          "text": "Bilirubin.total [Mass/volume] in Serum or Plasma"
        },
        "valueQuantity": {
          "system": "http://unitsofmeasure.org",
          "value": 1.2,
          "unit": "mg/dL",
          "code": "mg/dL"
        },
        "referenceRange": [
          {
            "low": {
              "value": 0.3,
              "code": "mg/dL",
              "system": "http://unitsofmeasure.org"
            }
          },
          {
            "high": {
              "value": 1.2,
              "code": "mg/dL",
              "system": "http://unitsofmeasure.org"
            }
          }
        ],
        "text": {
          "status": "generated",
          "div": "<div xmlns=\"http://www.w3.org/1999/xhtml\"><table class=\"hl7__eu__lab__report\"><tr><th>Test</th><th>31-Jan-2025</th><th>Reference&#xA0;Range</th><th>Unit</th></tr><tr><td>Bilirubin.total [Mass/volume] in Serum or Plasma</td><td>1.2</td><td>0.3 - 1.2</td><td></td><td>mg/dL</td></tr></table></div>"
        },
        "status": "final",
        "subject": {
          "reference": "urn:uuid:a2dc32b1-34c3-4878-a15d-28a761b4580f",
          "display": "Timothy Smith"
        },
        "effectiveDateTime": "2025-01-31T03:53:59Z",
        "specimen": {
          "reference": "urn:uuid:2b1312ca-e796-440f-a826-8f72a0bcc529"
        }
      }
    },
    {
      "fullUrl": "urn:uuid:8933405d-72a9-4c0f-a10b-5ac1eedce54f",
      "resource": {
        "resourceType": "Observation",
        "id": "8933405d-72a9-4c0f-a10b-5ac1eedce54f",
        "meta": {
          "profile": [
            "http://hl7.eu/fhir/laboratory/StructureDefinition/Observation-resultslab-eu-lab"
          ]
        },
        "performer": [
          {
            "display": "The Central European Lab"
          }
        ],
        "category": [
          {
            "coding": [
              {
                "system": "http://terminology.hl7.org/CodeSystem/observation-category",
                "code": "laboratory"
              }
            ]
          }
        ],
        "code": {
          "coding": [
            {
              "code": "6768-6",
              "system": "http://loinc.org",
              "display": "Alkaline phosphatase [Enzymatic activity/volume] in Serum or Plasma"
            }
          ],
          "text": "Alkaline phosphatase [Enzymatic activity/volume] in Serum or Plasma"
        },
        "valueQuantity": {
          "system": "http://unitsofmeasure.org",
          "value": 85.1,
          "unit": "U/L",
          "code": "U/L"
        },
        "referenceRange": [
          {
            "low": {
              "value": 40,
              "code": "U/L",
              "system": "http://unitsofmeasure.org"
            }
          },
          {
            "high": {
              "value": 117,
              "code": "U/L",
              "system": "http://unitsofmeasure.org"
            }
          }
        ],
        "text": {
          "status": "generated",
          "div": "<div xmlns=\"http://www.w3.org/1999/xhtml\"><table class=\"hl7__eu__lab__report\"><tr><th>Test</th><th>31-Jan-2025</th><th>Reference&#xA0;Range</th><th>Unit</th></tr><tr><td>Alkaline phosphatase [Enzymatic activity/volume] in Serum or Plasma</td><td>85.1</td><td>40 - 117</td><td></td><td>U/L</td></tr></table></div>"
        },
        "status": "final",
        "subject": {
          "reference": "urn:uuid:a2dc32b1-34c3-4878-a15d-28a761b4580f",
          "display": "Timothy Smith"
        },
        "effectiveDateTime": "2025-01-31T03:53:59Z",
        "specimen": {
          "reference": "urn:uuid:2b1312ca-e796-440f-a826-8f72a0bcc529"
        }
      }
    },
    {
      "fullUrl": "urn:uuid:441eb251-212b-49ef-90d0-af1f7f166d84",
      "resource": {
        "resourceType": "Observation",
        "id": "441eb251-212b-49ef-90d0-af1f7f166d84",
        "meta": {
          "profile": [
            "http://hl7.eu/fhir/laboratory/StructureDefinition/Observation-resultslab-eu-lab"
          ]
        },
        "performer": [
          {
            "display": "The Central European Lab"
          }
        ],
        "category": [
          {
            "coding": [
              {
                "system": "http://terminology.hl7.org/CodeSystem/observation-category",
                "code": "laboratory"
              }
            ]
          }
        ],
        "code": {
          "coding": [
            {
              "code": "1742-6",
              "system": "http://loinc.org",
              "display": "Alanine aminotransferase [Enzymatic activity/volume] in Serum or Plasma"
            }
          ],
          "text": "Alanine aminotransferase [Enzymatic activity/volume] in Serum or Plasma"
        },
        "valueQuantity": {
          "system": "http://unitsofmeasure.org",
          "value": 38.5,
          "unit": "U/L",
          "code": "U/L"
        },
        "referenceRange": [
          {
            "low": {
              "value": 10,
              "code": "U/L",
              "system": "http://unitsofmeasure.org"
            }
          },
          {
            "high": {
              "value": 66,
              "code": "U/L",
              "system": "http://unitsofmeasure.org"
            }
          }
        ],
        "text": {
          "status": "generated",
          "div": "<div xmlns=\"http://www.w3.org/1999/xhtml\"><table class=\"hl7__eu__lab__report\"><tr><th>Test</th><th>31-Jan-2025</th><th>Reference&#xA0;Range</th><th>Unit</th></tr><tr><td>Alanine aminotransferase [Enzymatic activity/volume] in Serum or Plasma</td><td>38.5</td><td>10 - 66</td><td></td><td>U/L</td></tr></table></div>"
        },
        "status": "final",
        "subject": {
          "reference": "urn:uuid:a2dc32b1-34c3-4878-a15d-28a761b4580f",
          "display": "Timothy Smith"
        },
        "effectiveDateTime": "2025-01-31T03:53:59Z",
        "specimen": {
          "reference": "urn:uuid:2b1312ca-e796-440f-a826-8f72a0bcc529"
        }
      }
    },
    {
      "fullUrl": "urn:uuid:8170f2d1-d4b7-42f0-833f-a9befd516950",
      "resource": {
        "resourceType": "Observation",
        "id": "8170f2d1-d4b7-42f0-833f-a9befd516950",
        "meta": {
          "profile": [
            "http://hl7.eu/fhir/laboratory/StructureDefinition/Observation-resultslab-eu-lab"
          ]
        },
        "performer": [
          {
            "display": "The Central European Lab"
          }
        ],
        "category": [
          {
            "coding": [
              {
                "system": "http://terminology.hl7.org/CodeSystem/observation-category",
                "code": "laboratory"
              }
            ]
          }
        ],
        "code": {
          "coding": [
            {
              "code": "1920-8",
              "system": "http://loinc.org",
              "display": "Aspartate aminotransferase [Enzymatic activity/volume] in Serum or Plasma"
            }
          ],
          "text": "Aspartate aminotransferase [Enzymatic activity/volume] in Serum or Plasma"
        },
        "valueQuantity": {
          "system": "http://unitsofmeasure.org",
          "value": 19.3,
          "unit": "U/L",
          "code": "U/L"
        },
        "referenceRange": [
          {
            "low": {
              "value": 10,
              "code": "U/L",
              "system": "http://unitsofmeasure.org"
            }
          },
          {
            "high": {
              "value": 40,
              "code": "U/L",
              "system": "http://unitsofmeasure.org"
            }
          }
        ],
        "text": {
          "status": "generated",
          "div": "<div xmlns=\"http://www.w3.org/1999/xhtml\"><table class=\"hl7__eu__lab__report\"><tr><th>Test</th><th>31-Jan-2025</th><th>Reference&#xA0;Range</th><th>Unit</th></tr><tr><td>Aspartate aminotransferase [Enzymatic activity/volume] in Serum or Plasma</td><td>19.3</td><td>10 - 40</td><td></td><td>U/L</td></tr></table></div>"
        },
        "status": "final",
        "subject": {
          "reference": "urn:uuid:a2dc32b1-34c3-4878-a15d-28a761b4580f",
          "display": "Timothy Smith"
        },
        "effectiveDateTime": "2025-01-31T03:53:59Z",
        "specimen": {
          "reference": "urn:uuid:2b1312ca-e796-440f-a826-8f72a0bcc529"
        }
      }
    },
    {
      "fullUrl": "urn:uuid:725f906c-860c-46e9-a9ee-33049268db08",
      "resource": {
        "resourceType": "Observation",
        "id": "725f906c-860c-46e9-a9ee-33049268db08",
        "meta": {
          "profile": [
            "http://hl7.eu/fhir/laboratory/StructureDefinition/Observation-resultslab-eu-lab"
          ]
        },
        "performer": [
          {
            "display": "The Central European Lab"
          }
        ],
        "category": [
          {
            "coding": [
              {
                "system": "http://terminology.hl7.org/CodeSystem/observation-category",
                "code": "laboratory"
              }
            ]
          }
        ],
        "code": {
          "coding": [
            {
              "code": "19123-9",
              "system": "http://loinc.org",
              "display": "Magnesium [Mass/volume] in Serum or Plasma"
            }
          ],
          "text": "Magnesium [Mass/volume] in Serum or Plasma"
        },
        "valueQuantity": {
          "system": "http://unitsofmeasure.org",
          "value": 1.8,
          "unit": "mg/dL",
          "code": "mg/dL"
        },
        "referenceRange": [
          {
            "low": {
              "value": 1.6,
              "code": "mg/dL",
              "system": "http://unitsofmeasure.org"
            }
          },
          {
            "high": {
              "value": 2.6,
              "code": "mg/dL",
              "system": "http://unitsofmeasure.org"
            }
          }
        ],
        "text": {
          "status": "generated",
          "div": "<div xmlns=\"http://www.w3.org/1999/xhtml\"><table class=\"hl7__eu__lab__report\"><tr><th>Test</th><th>31-Jan-2025</th><th>Reference&#xA0;Range</th><th>Unit</th></tr><tr><td>Magnesium [Mass/volume] in Serum or Plasma</td><td>1.8</td><td>1.6 - 2.6</td><td></td><td>mg/dL</td></tr></table></div>"
        },
        "status": "final",
        "subject": {
          "reference": "urn:uuid:a2dc32b1-34c3-4878-a15d-28a761b4580f",
          "display": "Timothy Smith"
        },
        "effectiveDateTime": "2025-01-31T03:53:59Z",
        "specimen": {
          "reference": "urn:uuid:2b1312ca-e796-440f-a826-8f72a0bcc529"
        }
      }
    },
    {
      "fullUrl": "urn:uuid:dcd29a52-67bc-42dc-92c9-1b2fa824c5c9",
      "resource": {
        "resourceType": "Observation",
        "id": "dcd29a52-67bc-42dc-92c9-1b2fa824c5c9",
        "meta": {
          "profile": [
            "http://hl7.eu/fhir/laboratory/StructureDefinition/Observation-resultslab-eu-lab"
          ]
        },
        "performer": [
          {
            "display": "The Central European Lab"
          }
        ],
        "category": [
          {
            "coding": [
              {
                "system": "http://terminology.hl7.org/CodeSystem/observation-category",
                "code": "laboratory"
              }
            ]
          }
        ],
        "code": {
          "coding": [
            {
              "code": "2093-3",
              "system": "http://loinc.org",
              "display": "Cholesterol [Mass/volume] in Serum or Plasma"
            }
          ],
          "text": "Cholesterol [Mass/volume] in Serum or Plasma"
        },
        "valueQuantity": {
          "system": "http://unitsofmeasure.org",
          "value": 252,
          "unit": "mg/dL",
          "code": "mg/dL"
        },
        "referenceRange": [
          {
            "low": {
              "value": 0,
              "code": "mg/dL",
              "system": "http://unitsofmeasure.org"
            }
          },
          {
            "high": {
              "value": 200,
              "code": "mg/dL",
              "system": "http://unitsofmeasure.org"
            }
          }
        ],
        "interpretation": [
          {
            "coding": [
              {
                "code": "H",
                "system": "http://terminology.hl7.org/CodeSystem/v3-ObservationInterpretation",
                "display": "High"
              }
            ]
          }
        ],
        "text": {
          "status": "generated",
          "div": "<div xmlns=\"http://www.w3.org/1999/xhtml\"><table class=\"hl7__eu__lab__report\"><tr><th>Test</th><th>31-Jan-2025</th><th>Reference&#xA0;Range</th><th>Unit</th></tr><tr><td>Cholesterol [Mass/volume] in Serum or Plasma</td><td>252.0</td><td>0 - 200</td><td>H</td><td>mg/dL</td></tr></table></div>"
        },
        "status": "final",
        "subject": {
          "reference": "urn:uuid:a2dc32b1-34c3-4878-a15d-28a761b4580f",
          "display": "Timothy Smith"
        },
        "effectiveDateTime": "2025-01-31T03:53:59Z",
        "specimen": {
          "reference": "urn:uuid:2b1312ca-e796-440f-a826-8f72a0bcc529"
        }
      }
    },
    {
      "fullUrl": "urn:uuid:b07c0a52-12f6-4af0-ac4d-a0f713916136",
      "resource": {
        "resourceType": "Observation",
        "id": "b07c0a52-12f6-4af0-ac4d-a0f713916136",
        "meta": {
          "profile": [
            "http://hl7.eu/fhir/laboratory/StructureDefinition/Observation-resultslab-eu-lab"
          ]
        },
        "performer": [
          {
            "display": "The Central European Lab"
          }
        ],
        "category": [
          {
            "coding": [
              {
                "system": "http://terminology.hl7.org/CodeSystem/observation-category",
                "code": "laboratory"
              }
            ]
          }
        ],
        "code": {
          "coding": [
            {
              "code": "2571-8",
              "system": "http://loinc.org",
              "display": "Triglyceride [Mass/volume] in Serum or Plasma"
            }
          ],
          "text": "Triglyceride [Mass/volume] in Serum or Plasma"
        },
        "valueQuantity": {
          "system": "http://unitsofmeasure.org",
          "value": 308.3,
          "unit": "mg/dL",
          "code": "mg/dL"
        },
        "referenceRange": [
          {
            "low": {
              "value": 0,
              "code": "mg/dL",
              "system": "http://unitsofmeasure.org"
            }
          },
          {
            "high": {
              "value": 199,
              "code": "mg/dL",
              "system": "http://unitsofmeasure.org"
            }
          }
        ],
        "interpretation": [
          {
            "coding": [
              {
                "code": "H",
                "system": "http://terminology.hl7.org/CodeSystem/v3-ObservationInterpretation",
                "display": "High"
              }
            ]
          }
        ],
        "text": {
          "status": "generated",
          "div": "<div xmlns=\"http://www.w3.org/1999/xhtml\"><table class=\"hl7__eu__lab__report\"><tr><th>Test</th><th>31-Jan-2025</th><th>Reference&#xA0;Range</th><th>Unit</th></tr><tr><td>Triglyceride [Mass/volume] in Serum or Plasma</td><td>308.3</td><td>0 - 199</td><td>H</td><td>mg/dL</td></tr></table></div>"
        },
        "status": "final",
        "subject": {
          "reference": "urn:uuid:a2dc32b1-34c3-4878-a15d-28a761b4580f",
          "display": "Timothy Smith"
        },
        "effectiveDateTime": "2025-01-31T03:53:59Z",
        "specimen": {
          "reference": "urn:uuid:2b1312ca-e796-440f-a826-8f72a0bcc529"
        }
      }
    },
    {
      "fullUrl": "urn:uuid:72a7ca2c-7576-44c9-ac4e-9693113897c0",
      "resource": {
        "resourceType": "Observation",
        "id": "72a7ca2c-7576-44c9-ac4e-9693113897c0",
        "meta": {
          "profile": [
            "http://hl7.eu/fhir/laboratory/StructureDefinition/Observation-resultslab-eu-lab"
          ]
        },
        "performer": [
          {
            "display": "The Central European Lab"
          }
        ],
        "category": [
          {
            "coding": [
              {
                "system": "http://terminology.hl7.org/CodeSystem/observation-category",
                "code": "laboratory"
              }
            ]
          }
        ],
        "code": {
          "coding": [
            {
              "code": "18262-6",
              "system": "http://loinc.org",
              "display": "Cholesterol in LDL [Mass/volume] in Serum or Plasma by Direct assay"
            }
          ],
          "text": "Cholesterol in LDL [Mass/volume] in Serum or Plasma by Direct assay"
        },
        "valueQuantity": {
          "system": "http://unitsofmeasure.org",
          "value": 150.4,
          "unit": "mg/dL",
          "code": "mg/dL"
        },
        "referenceRange": [
          {
            "low": {
              "value": 0,
              "code": "mg/dL",
              "system": "http://unitsofmeasure.org"
            }
          },
          {
            "high": {
              "value": 130,
              "code": "mg/dL",
              "system": "http://unitsofmeasure.org"
            }
          }
        ],
        "interpretation": [
          {
            "coding": [
              {
                "code": "H",
                "system": "http://terminology.hl7.org/CodeSystem/v3-ObservationInterpretation",
                "display": "High"
              }
            ]
          }
        ],
        "text": {
          "status": "generated",
          "div": "<div xmlns=\"http://www.w3.org/1999/xhtml\"><table class=\"hl7__eu__lab__report\"><tr><th>Test</th><th>31-Jan-2025</th><th>Reference&#xA0;Range</th><th>Unit</th></tr><tr><td>Cholesterol in LDL [Mass/volume] in Serum or Plasma by Direct assay</td><td>150.4</td><td>0 - 130</td><td>H</td><td>mg/dL</td></tr></table></div>"
        },
        "status": "final",
        "subject": {
          "reference": "urn:uuid:a2dc32b1-34c3-4878-a15d-28a761b4580f",
          "display": "Timothy Smith"
        },
        "effectiveDateTime": "2025-01-31T03:53:59Z",
        "specimen": {
          "reference": "urn:uuid:2b1312ca-e796-440f-a826-8f72a0bcc529"
        }
      }
    },
    {
      "fullUrl": "urn:uuid:af1d8c56-2383-4279-a0e7-3bd187f81a70",
      "resource": {
        "resourceType": "Observation",
        "id": "af1d8c56-2383-4279-a0e7-3bd187f81a70",
        "meta": {
          "profile": [
            "http://hl7.eu/fhir/laboratory/StructureDefinition/Observation-resultslab-eu-lab"
          ]
        },
        "performer": [
          {
            "display": "The Central European Lab"
          }
        ],
        "category": [
          {
            "coding": [
              {
                "system": "http://terminology.hl7.org/CodeSystem/observation-category",
                "code": "laboratory"
              }
            ]
          }
        ],
        "code": {
          "coding": [
            {
              "code": "2085-9",
              "system": "http://loinc.org",
              "display": "Cholesterol in HDL [Mass/volume] in Serum or Plasma"
            }
          ],
          "text": "Cholesterol in HDL [Mass/volume] in Serum or Plasma"
        },
        "valueQuantity": {
          "system": "http://unitsofmeasure.org",
          "value": 39.9,
          "unit": "mg/dL",
          "code": "mg/dL"
        },
        "referenceRange": [
          {
            "low": {
              "value": 40,
              "code": "mg/dL",
              "system": "http://unitsofmeasure.org"
            }
          },
          {
            "high": {
              "value": 100,
              "code": "mg/dL",
              "system": "http://unitsofmeasure.org"
            }
          }
        ],
        "interpretation": [
          {
            "coding": [
              {
                "code": "L",
                "system": "http://terminology.hl7.org/CodeSystem/v3-ObservationInterpretation",
                "display": "Low"
              }
            ]
          }
        ],
        "text": {
          "status": "generated",
          "div": "<div xmlns=\"http://www.w3.org/1999/xhtml\"><table class=\"hl7__eu__lab__report\"><tr><th>Test</th><th>31-Jan-2025</th><th>Reference&#xA0;Range</th><th>Unit</th></tr><tr><td>Cholesterol in HDL [Mass/volume] in Serum or Plasma</td><td>39.9</td><td>40 - 100</td><td>L</td><td>mg/dL</td></tr></table></div>"
        },
        "status": "final",
        "subject": {
          "reference": "urn:uuid:a2dc32b1-34c3-4878-a15d-28a761b4580f",
          "display": "Timothy Smith"
        },
        "effectiveDateTime": "2025-01-31T03:53:59Z",
        "specimen": {
          "reference": "urn:uuid:2b1312ca-e796-440f-a826-8f72a0bcc529"
        }
      }
    },
    {
      "fullUrl": "urn:uuid:8a86bc46-958f-47a0-baff-9a11bb3a7637",
      "resource": {
        "resourceType": "Observation",
        "id": "8a86bc46-958f-47a0-baff-9a11bb3a7637",
        "meta": {
          "profile": [
            "http://hl7.eu/fhir/laboratory/StructureDefinition/Observation-resultslab-eu-lab"
          ]
        },
        "performer": [
          {
            "display": "The Central European Lab"
          }
        ],
        "category": [
          {
            "coding": [
              {
                "system": "http://terminology.hl7.org/CodeSystem/observation-category",
                "code": "laboratory"
              }
            ]
          }
        ],
        "code": {
          "coding": [
            {
              "code": "4548-4",
              "system": "http://loinc.org",
              "display": "Hemoglobin A1c/Hemoglobin.total in Blood"
            }
          ],
          "text": "Hemoglobin A1c/Hemoglobin.total in Blood"
        },
        "valueQuantity": {
          "system": "http://unitsofmeasure.org",
          "value": 5.5,
          "unit": "%",
          "code": "%"
        },
        "referenceRange": [
          {
            "low": {
              "value": 4.5,
              "code": "%",
              "system": "http://unitsofmeasure.org"
            }
          },
          {
            "high": {
              "value": 6.4,
              "code": "%",
              "system": "http://unitsofmeasure.org"
            }
          }
        ],
        "text": {
          "status": "generated",
          "div": "<div xmlns=\"http://www.w3.org/1999/xhtml\"><table class=\"hl7__eu__lab__report\"><tr><th>Test</th><th>31-Jan-2025</th><th>Reference&#xA0;Range</th><th>Unit</th></tr><tr><td>Hemoglobin A1c/Hemoglobin.total in Blood</td><td>5.5</td><td>4.5 - 6.4</td><td></td><td>%</td></tr></table></div>"
        },
        "status": "final",
        "subject": {
          "reference": "urn:uuid:a2dc32b1-34c3-4878-a15d-28a761b4580f",
          "display": "Timothy Smith"
        },
        "effectiveDateTime": "2025-01-31T03:53:59Z",
        "specimen": {
          "reference": "urn:uuid:10c5ce8e-677d-4d9a-aaac-99d9d02c2846"
        }
      }
    },
    {
      "fullUrl": "urn:uuid:8e11700a-aa48-4f77-86a4-e69c6657f710",
      "resource": {
        "resourceType": "Observation",
        "id": "8e11700a-aa48-4f77-86a4-e69c6657f710",
        "meta": {
          "profile": [
            "http://hl7.eu/fhir/laboratory/StructureDefinition/Observation-resultslab-eu-lab"
          ]
        },
        "performer": [
          {
            "display": "The Central European Lab"
          }
        ],
        "category": [
          {
            "coding": [
              {
                "system": "http://terminology.hl7.org/CodeSystem/observation-category",
                "code": "laboratory"
              }
            ]
          }
        ],
        "code": {
          "coding": [
            {
              "code": "89579-7",
              "system": "http://loinc.org",
              "display": "Troponin I.cardiac [Mass/volume] in Serum or Plasma by High sensitivity method"
            }
          ],
          "text": "Troponin I.cardiac [Mass/volume] in Serum or Plasma by High sensitivity method"
        },
        "valueQuantity": {
          "system": "http://unitsofmeasure.org",
          "value": 0,
          "unit": "pg/mL",
          "code": "pg/mL"
        },
        "referenceRange": [
          {
            "low": {
              "value": 0,
              "code": "pg/mL",
              "system": "http://unitsofmeasure.org"
            }
          },
          {
            "high": {
              "value": 19.9,
              "code": "pg/mL",
              "system": "http://unitsofmeasure.org"
            }
          }
        ],
        "text": {
          "status": "generated",
          "div": "<div xmlns=\"http://www.w3.org/1999/xhtml\"><table class=\"hl7__eu__lab__report\"><tr><th>Test</th><th>31-Jan-2025</th><th>Reference&#xA0;Range</th><th>Unit</th></tr><tr><td>Troponin I.cardiac [Mass/volume] in Serum or Plasma by High sensitivity method</td><td>0.0</td><td>0 - 19.9</td><td></td><td>pg/mL</td></tr></table></div>"
        },
        "status": "final",
        "subject": {
          "reference": "urn:uuid:a2dc32b1-34c3-4878-a15d-28a761b4580f",
          "display": "Timothy Smith"
        },
        "effectiveDateTime": "2025-01-31T03:53:59Z",
        "specimen": {
          "reference": "urn:uuid:2b1312ca-e796-440f-a826-8f72a0bcc529"
        }
      }
    },
    {
      "fullUrl": "urn:uuid:a1320448-e89b-4de1-bba3-78570b96e010",
      "resource": {
        "resourceType": "Observation",
        "id": "a1320448-e89b-4de1-bba3-78570b96e010",
        "meta": {
          "profile": [
            "http://hl7.eu/fhir/laboratory/StructureDefinition/Observation-resultslab-eu-lab"
          ]
        },
        "performer": [
          {
            "display": "The Central European Lab"
          }
        ],
        "category": [
          {
            "coding": [
              {
                "system": "http://terminology.hl7.org/CodeSystem/observation-category",
                "code": "laboratory"
              }
            ]
          }
        ],
        "code": {
          "coding": [
            {
              "code": "2276-4",
              "system": "http://loinc.org",
              "display": "Ferritin [Mass/volume] in Serum or Plasma"
            }
          ],
          "text": "Ferritin [Mass/volume] in Serum or Plasma"
        },
        "valueQuantity": {
          "system": "http://unitsofmeasure.org",
          "value": 117.8,
          "unit": "ug/L",
          "code": "ug/L"
        },
        "referenceRange": [
          {
            "low": {
              "value": 30,
              "code": "ug/L",
              "system": "http://unitsofmeasure.org"
            }
          },
          {
            "high": {
              "value": 300,
              "code": "ug/L",
              "system": "http://unitsofmeasure.org"
            }
          }
        ],
        "text": {
          "status": "generated",
          "div": "<div xmlns=\"http://www.w3.org/1999/xhtml\"><table class=\"hl7__eu__lab__report\"><tr><th>Test</th><th>31-Jan-2025</th><th>Reference&#xA0;Range</th><th>Unit</th></tr><tr><td>Ferritin [Mass/volume] in Serum or Plasma</td><td>117.8</td><td>30 - 300</td><td></td><td>ug/L</td></tr></table></div>"
        },
        "status": "final",
        "subject": {
          "reference": "urn:uuid:a2dc32b1-34c3-4878-a15d-28a761b4580f",
          "display": "Timothy Smith"
        },
        "effectiveDateTime": "2025-01-31T03:53:59Z",
        "specimen": {
          "reference": "urn:uuid:2b1312ca-e796-440f-a826-8f72a0bcc529"
        }
      }
    },
    {
      "fullUrl": "urn:uuid:de613578-6006-4634-94f4-092b89748e38",
      "resource": {
        "resourceType": "Observation",
        "id": "de613578-6006-4634-94f4-092b89748e38",
        "meta": {
          "profile": [
            "http://hl7.eu/fhir/laboratory/StructureDefinition/Observation-resultslab-eu-lab"
          ]
        },
        "performer": [
          {
            "display": "The Central European Lab"
          }
        ],
        "category": [
          {
            "coding": [
              {
                "system": "http://terminology.hl7.org/CodeSystem/observation-category",
                "code": "laboratory"
              }
            ]
          }
        ],
        "code": {
          "coding": [
            {
              "code": "2498-4",
              "system": "http://loinc.org",
              "display": "Iron [Mass/volume] in Serum or Plasma"
            }
          ],
          "text": "Iron [Mass/volume] in Serum or Plasma"
        },
        "valueQuantity": {
          "system": "http://unitsofmeasure.org",
          "value": 71.8,
          "unit": "ug/dL",
          "code": "ug/dL"
        },
        "referenceRange": [
          {
            "low": {
              "value": 65,
              "code": "ug/dL",
              "system": "http://unitsofmeasure.org"
            }
          },
          {
            "high": {
              "value": 300,
              "code": "ug/dL",
              "system": "http://unitsofmeasure.org"
            }
          }
        ],
        "text": {
          "status": "generated",
          "div": "<div xmlns=\"http://www.w3.org/1999/xhtml\"><table class=\"hl7__eu__lab__report\"><tr><th>Test</th><th>31-Jan-2025</th><th>Reference&#xA0;Range</th><th>Unit</th></tr><tr><td>Iron [Mass/volume] in Serum or Plasma</td><td>71.8</td><td>65 - 300</td><td></td><td>ug/dL</td></tr></table></div>"
        },
        "status": "final",
        "subject": {
          "reference": "urn:uuid:a2dc32b1-34c3-4878-a15d-28a761b4580f",
          "display": "Timothy Smith"
        },
        "effectiveDateTime": "2025-01-31T03:53:59Z",
        "specimen": {
          "reference": "urn:uuid:2b1312ca-e796-440f-a826-8f72a0bcc529"
        }
      }
    },
    {
      "fullUrl": "urn:uuid:65eb8e14-e0aa-4591-9e00-280ef367cf56",
      "resource": {
        "resourceType": "Observation",
        "id": "65eb8e14-e0aa-4591-9e00-280ef367cf56",
        "meta": {
          "profile": [
            "http://hl7.eu/fhir/laboratory/StructureDefinition/Observation-resultslab-eu-lab"
          ]
        },
        "performer": [
          {
            "display": "The Central European Lab"
          }
        ],
        "category": [
          {
            "coding": [
              {
                "system": "http://terminology.hl7.org/CodeSystem/observation-category",
                "code": "laboratory"
              }
            ]
          }
        ],
        "code": {
          "coding": [
            {
              "code": "2500-7",
              "system": "http://loinc.org",
              "display": "Iron binding capacity [Mass/volume] in Serum or Plasma"
            }
          ],
          "text": "Iron binding capacity [Mass/volume] in Serum or Plasma"
        },
        "valueQuantity": {
          "system": "http://unitsofmeasure.org",
          "value": 316,
          "unit": "ug/dL",
          "code": "ug/dL"
        },
        "referenceRange": [
          {
            "low": {
              "value": 250,
              "code": "ug/dL",
              "system": "http://unitsofmeasure.org"
            }
          },
          {
            "high": {
              "value": 450,
              "code": "ug/dL",
              "system": "http://unitsofmeasure.org"
            }
          }
        ],
        "text": {
          "status": "generated",
          "div": "<div xmlns=\"http://www.w3.org/1999/xhtml\"><table class=\"hl7__eu__lab__report\"><tr><th>Test</th><th>31-Jan-2025</th><th>Reference&#xA0;Range</th><th>Unit</th></tr><tr><td>Iron binding capacity [Mass/volume] in Serum or Plasma</td><td>316.0</td><td>250 - 450</td><td></td><td>ug/dL</td></tr></table></div>"
        },
        "status": "final",
        "subject": {
          "reference": "urn:uuid:a2dc32b1-34c3-4878-a15d-28a761b4580f",
          "display": "Timothy Smith"
        },
        "effectiveDateTime": "2025-01-31T03:53:59Z",
        "specimen": {
          "reference": "urn:uuid:2b1312ca-e796-440f-a826-8f72a0bcc529"
        }
      }
    },
    {
      "fullUrl": "urn:uuid:f1017420-b20e-4f6d-bab7-27ebc5417487",
      "resource": {
        "resourceType": "Observation",
        "id": "f1017420-b20e-4f6d-bab7-27ebc5417487",
        "meta": {
          "profile": [
            "http://hl7.eu/fhir/laboratory/StructureDefinition/Observation-resultslab-eu-lab"
          ]
        },
        "performer": [
          {
            "display": "The Central European Lab"
          }
        ],
        "category": [
          {
            "coding": [
              {
                "system": "http://terminology.hl7.org/CodeSystem/observation-category",
                "code": "laboratory"
              }
            ]
          }
        ],
        "code": {
          "coding": [
            {
              "code": "2502-3",
              "system": "http://loinc.org",
              "display": "Iron saturation [Mass Fraction] in Serum or Plasma"
            }
          ],
          "text": "Iron saturation [Mass Fraction] in Serum or Plasma"
        },
        "valueQuantity": {
          "system": "http://unitsofmeasure.org",
          "value": 39,
          "unit": "%",
          "code": "%"
        },
        "referenceRange": [
          {
            "low": {
              "value": 15,
              "code": "%",
              "system": "http://unitsofmeasure.org"
            }
          },
          {
            "high": {
              "value": 45,
              "code": "%",
              "system": "http://unitsofmeasure.org"
            }
          }
        ],
        "text": {
          "status": "generated",
          "div": "<div xmlns=\"http://www.w3.org/1999/xhtml\"><table class=\"hl7__eu__lab__report\"><tr><th>Test</th><th>31-Jan-2025</th><th>Reference&#xA0;Range</th><th>Unit</th></tr><tr><td>Iron saturation [Mass Fraction] in Serum or Plasma</td><td>39.0</td><td>15 - 45</td><td></td><td>%</td></tr></table></div>"
        },
        "status": "final",
        "subject": {
          "reference": "urn:uuid:a2dc32b1-34c3-4878-a15d-28a761b4580f",
          "display": "Timothy Smith"
        },
        "effectiveDateTime": "2025-01-31T03:53:59Z",
        "specimen": {
          "reference": "urn:uuid:2b1312ca-e796-440f-a826-8f72a0bcc529"
        }
      }
    },
    {
      "fullUrl": "urn:uuid:c4605331-cbfe-4bfb-aed3-03b50a1e2c09",
      "resource": {
        "resourceType": "Device",
        "id": "c4605331-cbfe-4bfb-aed3-03b50a1e2c09",
        "deviceName": [
          {
            "name": "SYNDERAI Synthetic Generator",
            "type": "manufacturer-name"
          }
        ],
        "version": [
          {
            "value": "5.0"
          }
        ],
        "text": {
          "status": "generated",
          "div": "<div xmlns=\"http://www.w3.org/1999/xhtml\">SYNDERAI Synthetic Generator v5.0</div>"
        },
        "status": "active\"",
        "distinctIdentifier": "synderai-generator-50",
        "manufacturer": "SYNDERAI Project"
      }
    },
    {
      "fullUrl": "urn:uuid:88d970a2-293a-480c-a9d9-54ef1b58f8ab",
      "resource": {
        "resourceType": "Provenance",
        "id": "88d970a2-293a-480c-a9d9-54ef1b58f8ab",
        "target": [
          {
            "reference": "Patient/a2dc32b1-34c3-4878-a15d-28a761b4580f"
          },
          {
            "reference": "Bundle/7f5663ca-9bf7-4d19-8452-48eb131c3abf"
          },
          {
            "reference": "Composition/d9097d19-d2ff-4272-ab6f-ee96a4b85834"
          },
          {
            "reference": "PractitionerRole/ff850cc4-0496-4457-88e6-9daebcbbccec"
          },
          {
            "reference": "Practitioner/b4c48d9c-752a-4ee0-9d8f-e96cddbcf1fa"
          },
          {
            "reference": "PractitionerRole/07f8a518-351d-4c6f-8d4a-c69a0ca337f8"
          },
          {
            "reference": "Organization/09a2d46b-27ed-4ea2-b704-961f50eba803"
          }
        ],
        "activity": {
          "text": "Synthetic Example Data Generation"
        },
        "policy": [
          "https://synderai.net/synderai-synthetic-data-policy"
        ],
        "agent": [
          {
            "type": {
              "text": "author"
            },
            "who": {
              "reference": "Device/c4605331-cbfe-4bfb-aed3-03b50a1e2c09"
            }
          }
        ],
        "reason": [
          {
            "text": "Interoperability Testing and Training (non-clinical use)"
          }
        ],
        "text": {
          "status": "generated",
          "div": "<div xmlns=\"http://www.w3.org/1999/xhtml\">Provenance for SYNDERAI Synthetic Example Data Resource</div>"
        },
        "recorded": "2025-01-31T04:53:59Z"
      }
    },
    {
      "fullUrl": "urn:uuid:ff850cc4-0496-4457-88e6-9daebcbbccec",
      "resource": {
        "resourceType": "PractitionerRole",
        "id": "ff850cc4-0496-4457-88e6-9daebcbbccec",
        "meta": {
          "profile": [
            "http://hl7.eu/fhir/base/StructureDefinition/practitionerRole-eu"
          ]
        },
        "text": {
          "status": "generated",
          "div": "<div xmlns=\"http://www.w3.org/1999/xhtml\">Laboratory Role Id: ff850cc4-0496-4457-88e6-9daebcbbccec</div>"
        },
        "practitioner": {
          "reference": "urn:uuid:b4c48d9c-752a-4ee0-9d8f-e96cddbcf1fa"
        }
      }
    },
    {
      "fullUrl": "urn:uuid:b4c48d9c-752a-4ee0-9d8f-e96cddbcf1fa",
      "resource": {
        "resourceType": "Practitioner",
        "id": "b4c48d9c-752a-4ee0-9d8f-e96cddbcf1fa",
        "meta": {
          "profile": [
            "http://hl7.eu/fhir/base/StructureDefinition/practitioner-eu"
          ]
        },
        "identifier": [
          {
            "assigner": {
              "display": "HL7 Europe"
            },
            "system": "urn:oid:2.16.840.1.113883.2.51.999",
            "value": "b2ca4c6a-cd9e-48af-9628-3285024adce4"
          }
        ],
        "name": [
          {
            "prefix": [
              "dr"
            ],
            "given": [
              "Ex"
            ],
            "family": "Ample"
          }
        ],
        "address": [
          {
            "line": [
              "Laboratoire Central Europenne",
              "Boulevard du Jardin Botanique 32"
            ],
            "postalCode": "1000",
            "city": "Brussels",
            "country": "Belgium"
          }
        ],
        "text": {
          "status": "generated",
          "div": "<div xmlns=\"http://www.w3.org/1999/xhtml\">Laboratory: Laboratoire Central Europenne, 1000 Brussels, Belgium</div>"
        }
      }
    }
  ],
  "type": "document",
  "timestamp": "2025-01-31T04:53:59Z"
}
