{
  "resourceType": "Bundle",
  "id": "96bb676b-9537-41cf-aff5-46f229befbd0",
  "meta": {
    "profile": [
      "http://hl7.eu/fhir/laboratory/StructureDefinition/Bundle-eu-lab"
    ]
  },
  "identifier": {
    "assigner": {
      "display": "HL7 Europe"
    },
    "system": "urn:oid:2.16.840.1.113883.2.51.999",
    "value": "8be22bde-0691-47b3-8984-67cfb582144d"
  },
  "entry": [
    {
      "fullUrl": "urn:uuid:d06466b8-74cc-4b5b-9e9e-44ed37a73e1e",
      "resource": {
        "resourceType": "Composition",
        "id": "d06466b8-74cc-4b5b-9e9e-44ed37a73e1e",
        "meta": {
          "profile": [
            "http://hl7.eu/fhir/laboratory/StructureDefinition/Composition-eu-lab"
          ]
        },
        "identifier": {
          "assigner": {
            "display": "HL7 Europe"
          },
          "system": "urn:oid:2.16.840.1.113883.2.51.999",
          "value": "fbcf3561-a503-4a7f-9377-87db25c88787"
        },
        "author": [
          {
            "reference": "urn:uuid:5d01b025-33a9-46a7-8a0d-fe32dd1705b2"
          }
        ],
        "category": [
          {
            "coding": [
              {
                "code": "26436-6",
                "system": "http://loinc.org",
                "display": "Laboratory studies (set)"
              }
            ]
          }
        ],
        "type": {
          "coding": [
            {
              "code": "11502-2",
              "system": "http://loinc.org",
              "display": "Laboratory report"
            }
          ],
          "text": "Laboratory Report"
        },
        "section": [
          {
            "code": {
              "coding": [
                {
                  "code": "26436-6",
                  "system": "http://loinc.org",
                  "display": "Laboratory studies (set)"
                }
              ],
              "text": "Laboratory studies"
            },
            "section": [
              {
                "code": {
                  "coding": [
                    {
                      "code": "$18719-5",
                      "system": "http://loinc.org",
                      "display": "Chemistry studies (set)"
                    }
                  ],
                  "text": "Chemistry"
                },
                "entry": [
                  {
                    "reference": "urn:uuid:08ca98e4-e53b-40f1-be1f-06c24876d923"
                  },
                  {
                    "reference": "urn:uuid:e39b7328-7bc2-4ba9-98e4-786bc0e89b49"
                  },
                  {
                    "reference": "urn:uuid:5d9f760a-8f2c-41a7-bf2a-db54c5e4bf26"
                  },
                  {
                    "reference": "urn:uuid:1aa80bb9-99a3-48ed-bed7-ee1327ce345d"
                  },
                  {
                    "reference": "urn:uuid:3705be92-536e-4540-a0cf-c4ecb89f9fc7"
                  },
                  {
                    "reference": "urn:uuid:98d091e9-1a53-40dc-bd4d-3fa3c1d0db43"
                  },
                  {
                    "reference": "urn:uuid:13f4f5f4-5e07-4a7f-bdda-1f0882355e4a"
                  },
                  {
                    "reference": "urn:uuid:f489969d-4516-4cd3-b110-1c247912ca03"
                  },
                  {
                    "reference": "urn:uuid:98dbc1a4-8e52-4f5a-8897-3a8564ebe085"
                  },
                  {
                    "reference": "urn:uuid:4346ccac-abab-4b93-948c-1982f075c7c7"
                  },
                  {
                    "reference": "urn:uuid:bb0f19c6-7a0f-4889-8320-535702782829"
                  },
                  {
                    "reference": "urn:uuid:86b9f0ed-0ec3-449c-84b0-8b9f721a3724"
                  },
                  {
                    "reference": "urn:uuid:d3517354-74de-4566-9a9d-bdf276d64000"
                  },
                  {
                    "reference": "urn:uuid:43215a11-01d8-4e90-a475-59871ea35f2c"
                  },
                  {
                    "reference": "urn:uuid:eb46dc2e-5783-4d9e-9374-51c5a784d13b"
                  },
                  {
                    "reference": "urn:uuid:66c14d5d-d2e3-49ef-b6b5-16822c30f133"
                  },
                  {
                    "reference": "urn:uuid:d0a99b0b-d1b5-4cde-8f49-7493a6da55a7"
                  },
                  {
                    "reference": "urn:uuid:c5e786b7-51c0-4781-9bad-8c0121185d29"
                  }
                ],
                "text": {
                  "status": "generated",
                  "div": "<div xmlns=\"http://www.w3.org/1999/xhtml\"><h3>Chemistry</h3><table class=\"hl7__eu__lab__report\"><thead><tr><th>Test</th><th>24-MAR-2023</th><th>Reference&#xA0;Range</th><th>Unit</th></tr></thead><tbody><tr><td>Glucose [Mass/volume] in Serum or Plasma</td><td><strong>66.0 L</strong></td><td>70 - 140</td><td>mg/dL</td></tr><tr><td>Urea nitrogen [Mass/volume] in Serum or Plasma</td><td>15.8</td><td>7 - 20</td><td>mg/dL</td></tr><tr><td>Creatinine [Mass/volume] in Serum or Plasma</td><td><strong>2.0 H</strong></td><td>0.9 - 1.3</td><td>mg/dL</td></tr><tr><td>Calcium [Mass/volume] in Serum or Plasma</td><td>8.6</td><td>8.5 - 10.5</td><td>mg/dL</td></tr><tr><td>Sodium [Moles/volume] in Serum or Plasma</td><td>142.8</td><td>135 - 145</td><td>mmol/L</td></tr><tr><td>Potassium [Moles/volume] in Serum or Plasma</td><td>5.2</td><td>3.5 - 5.3</td><td>mmol/L</td></tr><tr><td>Chloride [Moles/volume] in Serum or Plasma</td><td><strong>110.2 H</strong></td><td>98 - 107</td><td>mmol/L</td></tr><tr><td>Carbon dioxide, total [Moles/volume] in Serum or Plasma</td><td>29.0</td><td>22 - 33</td><td>mmol/L</td></tr><tr><td>Ketones [Presence] in Urine by Test strip</td><td>Urine ketone test = ++</td><td></td><td></td></tr><tr><td>Hemoglobin A1c/Hemoglobin.total in Blood</td><td><strong>3.2 L</strong></td><td>4.3 - 6</td><td>%</td></tr><tr><td>Glucose [Mass/volume] in Blood</td><td><strong>66.0 L</strong></td><td>70 - 140</td><td>mg/dL</td></tr><tr><td>Urea nitrogen [Mass/volume] in Blood</td><td>15.8</td><td>7 - 20</td><td>mg/dL</td></tr><tr><td>Creatinine [Mass/volume] in Blood</td><td><strong>4.5 H</strong></td><td>0.9 - 1.3</td><td>mg/dL</td></tr><tr><td>Calcium [Mass/volume] in Blood</td><td>8.6</td><td>8.5 - 10.5</td><td>mg/dL</td></tr><tr><td>Sodium [Moles/volume] in Blood</td><td>142.8</td><td>135 - 145</td><td>mmol/L</td></tr><tr><td>Potassium [Moles/volume] in Blood</td><td><strong>5.2 H</strong></td><td>3.5 - 5.1</td><td>mmol/L</td></tr><tr><td>Chloride [Moles/volume] in Blood</td><td><strong>110.2 H</strong></td><td>98 - 108</td><td>mmol/L</td></tr><tr><td>Carbon dioxide, total [Moles/volume] in Blood</td><td>29.0</td><td>22 - 29</td><td>mmol/L</td></tr></tbody></table></div>"
                },
                "title": "Chemistry"
              },
              {
                "code": {
                  "coding": [
                    {
                      "code": "$18729-4",
                      "system": "http://loinc.org",
                      "display": "Urinalysis studies (set)"
                    }
                  ],
                  "text": "Urinalysis"
                },
                "entry": [
                  {
                    "reference": "urn:uuid:6a3d9237-18d4-461d-9aed-975436af9e82"
                  },
                  {
                    "reference": "urn:uuid:f1169e85-6780-41f1-8877-9095e088de00"
                  },
                  {
                    "reference": "urn:uuid:18049bce-a6dd-4a62-9b59-8b1bbe697eb4"
                  },
                  {
                    "reference": "urn:uuid:16beee9a-b64c-4cec-ac69-9f71dbc93f45"
                  },
                  {
                    "reference": "urn:uuid:00ab7590-adc9-4fec-af26-c99f366e231d"
                  },
                  {
                    "reference": "urn:uuid:e667451d-0eeb-4732-a439-1e904893fc26"
                  },
                  {
                    "reference": "urn:uuid:259a6931-1869-4c96-a3a8-de556a456018"
                  },
                  {
                    "reference": "urn:uuid:c502eb7f-bec4-470c-907b-6ef74d867317"
                  },
                  {
                    "reference": "urn:uuid:3518d676-7a1a-4288-8ea0-7f839da8935a"
                  },
                  {
                    "reference": "urn:uuid:853c64eb-79f8-4ed1-b77e-72e454ae28d4"
                  },
                  {
                    "reference": "urn:uuid:d0d841cd-3b0c-4908-a06b-91a35f03ddb6"
                  },
                  {
                    "reference": "urn:uuid:7c9fe1fd-ffdd-4198-804e-ddab14bc4a0f"
                  }
                ],
                "text": {
                  "status": "generated",
                  "div": "<div xmlns=\"http://www.w3.org/1999/xhtml\"><h3>Urinalysis</h3><table class=\"hl7__eu__lab__report\"><thead><tr><th>Test</th><th>24-MAR-2023</th><th>Reference&#xA0;Range</th><th>Unit</th></tr></thead><tbody><tr><td>Glucose [Mass/volume] in Urine by Test strip</td><td>0.7</td><td>0 - 0.8</td><td>mg/dL</td></tr><tr><td>Glucose [Presence] in Urine by Test strip</td><td>++</td><td></td><td></td></tr><tr><td>Bilirubin.total [Mass/volume] in Urine by Test strip</td><td>1.0</td><td>0 - 1.9</td><td>mg/dL</td></tr><tr><td>Bilirubin.total [Presence] in Urine by Test strip</td><td>Finding of bilirubin in urine</td><td></td><td></td></tr><tr><td>Ketones [Mass/volume] in Urine by Test strip</td><td><strong>8.9 H</strong></td><td>0 - 3</td><td>mg/dL</td></tr><tr><td>Specific gravity of Urine by Test strip</td><td><strong>1.0 L</strong></td><td>1.01 - 1.03</td><td>{nominal}</td></tr><tr><td>pH of Urine by Test strip</td><td>6.0</td><td>4.5 - 7.5</td><td>pH</td></tr><tr><td>Protein [Mass/volume] in Urine by Test strip</td><td><strong>303.7 H</strong></td><td>0 - 149</td><td>mg/dL</td></tr><tr><td>Protein [Presence] in Urine by Test strip</td><td>Urine protein test = ++</td><td></td><td></td></tr><tr><td>Nitrite [Presence] in Urine by Test strip</td><td>Urine nitrite negative</td><td></td><td></td></tr><tr><td>Hemoglobin [Presence] in Urine by Test strip</td><td>Urine blood test = negative</td><td></td><td></td></tr><tr><td>Leukocyte esterase [Presence] in Urine by Test strip</td><td>Urine leukocyte test negative</td><td></td><td></td></tr></tbody></table></div>"
                },
                "title": "Urinalysis"
              },
              {
                "code": {
                  "coding": [
                    {
                      "code": "$LP7846-1",
                      "system": "http://loinc.org",
                      "display": "Specimen information"
                    }
                  ],
                  "text": "Specimen information"
                },
                "entry": [
                  {
                    "reference": "urn:uuid:5f59a8c7-c65c-43e8-a341-79a581d5d1d4"
                  },
                  {
                    "reference": "urn:uuid:88b74480-f249-4a8c-866c-03db776c67b0"
                  },
                  {
                    "reference": "urn:uuid:7cfc459e-2a70-43cd-84ef-c4c4d185cde0"
                  },
                  {
                    "reference": "urn:uuid:9b22e8a9-0789-41f5-adf4-fe11299b2cf6"
                  }
                ],
                "text": {
                  "status": "generated",
                  "div": "<div xmlns=\"http://www.w3.org/1999/xhtml\"><h3>Specimen information</h3><table class=\"hl7__eu__lab__report\"><thead><tr><th>Test</th><th>24-MAR-2023</th><th>Specimen</th><th></th></tr></thead><tbody><tr><td>Appearance of Urine</td><td>Cloudy urine</td><td>Urine</td><td></td></tr><tr><td>Odor of Urine</td><td>Urine smell ammoniacal</td><td>Urine</td><td></td></tr><tr><td>Clarity of Urine</td><td>Translucent</td><td>Urine</td><td></td></tr><tr><td>Color of Urine</td><td>Brown color</td><td>Urine</td><td></td></tr></tbody></table></div>"
                },
                "title": "Specimen information"
              }
            ],
            "title": "Laboratory Report"
          },
          {
            "text": {
              "status": "generated",
              "div": "<div xmlns=\"http://www.w3.org/1999/xhtml\"><h3>Annotation</h3><table class=\"hl7__eu__lab__report\"><tr><th>Conclusion and Recommendations based on this report and previous findings known to us</th></tr><tr><td>The patient shows significant renal impairment (elevated creatinine), mild hyperkalemia, hyperchloremia, and low blood glucose and HbA1c, suggesting possible hypoglycemia. Urinalysis reveals proteinuria, ketonuria, glucosuria, low specific gravity, and abnormal urine appearance (cloudy, brown, ammoniacal), indicating possible nephrotic syndrome, renal dysfunction, and/or dehydration. No evidence of urinary infection. Clinical correlation and urgent nephrology evaluation are recommended.</td></tr></table></div>"
            },
            "code": {
              "coding": [
                {
                  "system": "http://loinc.org",
                  "code": "48767-8",
                  "display": "Annotation comment"
                }
              ]
            },
            "title": "Annotation comment"
          }
        ],
        "status": "final",
        "subject": {
          "reference": "urn:uuid:77e9aba5-dbc9-4649-8e49-6bfb5aac646f",
          "display": "Victor Lagarde"
        },
        "date": "2023-03-24T05:48:18Z",
        "title": "Laboratory Report",
        "confidentiality": "N"
      }
    },
    {
      "fullUrl": "urn:uuid:7ce5d444-c9dd-4a9a-b771-063e091861ec",
      "resource": {
        "resourceType": "DiagnosticReport",
        "id": "7ce5d444-c9dd-4a9a-b771-063e091861ec",
        "meta": {
          "profile": [
            "http://hl7.eu/fhir/laboratory/StructureDefinition/DiagnosticReport-eu-lab"
          ]
        },
        "identifier": [
          {
            "assigner": {
              "display": "HL7 Europe"
            },
            "system": "urn:oid:2.16.840.1.113883.2.51.999",
            "value": "ab733a00-5dc2-4767-bb18-687c4138e714"
          }
        ],
        "extension": [
          {
            "url": "http://hl7.org/fhir/5.0/StructureDefinition/extension-DiagnosticReport.composition",
            "valueReference": {
              "reference": "urn:uuid:fbcf3561-a503-4a7f-9377-87db25c88787"
            }
          }
        ],
        "category": [
          {
            "coding": [
              {
                "code": "26436-6",
                "system": "http://loinc.org",
                "display": "Laboratory studies (set)"
              }
            ]
          }
        ],
        "specimen": [
          {
            "reference": "urn:uuid:8105e329-c2e1-44c6-a32f-bdbb363bdc26"
          },
          {
            "reference": "urn:uuid:44e4b1fb-d256-4ec7-9933-d14627a32d49"
          },
          {
            "reference": "urn:uuid:b781187d-5d9a-4afc-a9d1-7f4f5a1daabf"
          }
        ],
        "result": [
          {
            "reference": "urn:uuid:08ca98e4-e53b-40f1-be1f-06c24876d923"
          },
          {
            "reference": "urn:uuid:e39b7328-7bc2-4ba9-98e4-786bc0e89b49"
          },
          {
            "reference": "urn:uuid:5d9f760a-8f2c-41a7-bf2a-db54c5e4bf26"
          },
          {
            "reference": "urn:uuid:1aa80bb9-99a3-48ed-bed7-ee1327ce345d"
          },
          {
            "reference": "urn:uuid:3705be92-536e-4540-a0cf-c4ecb89f9fc7"
          },
          {
            "reference": "urn:uuid:98d091e9-1a53-40dc-bd4d-3fa3c1d0db43"
          },
          {
            "reference": "urn:uuid:13f4f5f4-5e07-4a7f-bdda-1f0882355e4a"
          },
          {
            "reference": "urn:uuid:f489969d-4516-4cd3-b110-1c247912ca03"
          },
          {
            "reference": "urn:uuid:5f59a8c7-c65c-43e8-a341-79a581d5d1d4"
          },
          {
            "reference": "urn:uuid:88b74480-f249-4a8c-866c-03db776c67b0"
          },
          {
            "reference": "urn:uuid:7cfc459e-2a70-43cd-84ef-c4c4d185cde0"
          },
          {
            "reference": "urn:uuid:9b22e8a9-0789-41f5-adf4-fe11299b2cf6"
          },
          {
            "reference": "urn:uuid:6a3d9237-18d4-461d-9aed-975436af9e82"
          },
          {
            "reference": "urn:uuid:f1169e85-6780-41f1-8877-9095e088de00"
          },
          {
            "reference": "urn:uuid:18049bce-a6dd-4a62-9b59-8b1bbe697eb4"
          },
          {
            "reference": "urn:uuid:16beee9a-b64c-4cec-ac69-9f71dbc93f45"
          },
          {
            "reference": "urn:uuid:00ab7590-adc9-4fec-af26-c99f366e231d"
          },
          {
            "reference": "urn:uuid:98dbc1a4-8e52-4f5a-8897-3a8564ebe085"
          },
          {
            "reference": "urn:uuid:e667451d-0eeb-4732-a439-1e904893fc26"
          },
          {
            "reference": "urn:uuid:259a6931-1869-4c96-a3a8-de556a456018"
          },
          {
            "reference": "urn:uuid:c502eb7f-bec4-470c-907b-6ef74d867317"
          },
          {
            "reference": "urn:uuid:3518d676-7a1a-4288-8ea0-7f839da8935a"
          },
          {
            "reference": "urn:uuid:853c64eb-79f8-4ed1-b77e-72e454ae28d4"
          },
          {
            "reference": "urn:uuid:d0d841cd-3b0c-4908-a06b-91a35f03ddb6"
          },
          {
            "reference": "urn:uuid:7c9fe1fd-ffdd-4198-804e-ddab14bc4a0f"
          },
          {
            "reference": "urn:uuid:4346ccac-abab-4b93-948c-1982f075c7c7"
          },
          {
            "reference": "urn:uuid:bb0f19c6-7a0f-4889-8320-535702782829"
          },
          {
            "reference": "urn:uuid:86b9f0ed-0ec3-449c-84b0-8b9f721a3724"
          },
          {
            "reference": "urn:uuid:d3517354-74de-4566-9a9d-bdf276d64000"
          },
          {
            "reference": "urn:uuid:43215a11-01d8-4e90-a475-59871ea35f2c"
          },
          {
            "reference": "urn:uuid:eb46dc2e-5783-4d9e-9374-51c5a784d13b"
          },
          {
            "reference": "urn:uuid:66c14d5d-d2e3-49ef-b6b5-16822c30f133"
          },
          {
            "reference": "urn:uuid:d0a99b0b-d1b5-4cde-8f49-7493a6da55a7"
          },
          {
            "reference": "urn:uuid:c5e786b7-51c0-4781-9bad-8c0121185d29"
          }
        ],
        "status": "registered",
        "code": {
          "coding": [
            {
              "code": "11502-2",
              "system": "http://loinc.org",
              "display": "Laboratory report"
            }
          ]
        },
        "subject": {
          "reference": "urn:uuid:77e9aba5-dbc9-4649-8e49-6bfb5aac646f",
          "display": "Victor Lagarde"
        }
      }
    },
    {
      "fullUrl": "urn:uuid:77e9aba5-dbc9-4649-8e49-6bfb5aac646f",
      "resource": {
        "resourceType": "Patient",
        "id": "77e9aba5-dbc9-4649-8e49-6bfb5aac646f",
        "meta": {
          "security": [
            {
              "system": "http://terminology.hl7.org/CodeSystem/v3-ActReason",
              "code": "HTEST"
            },
            {
              "system": "http://terminology.hl7.org/CodeSystem/v3-ActReason",
              "code": "TRAIN"
            }
          ],
          "tag": [
            {
              "system": "https://synderai.net/fhir/CodeSystem/tags",
              "code": "synthetic",
              "display": "SYNDERAI Synthetic data"
            }
          ],
          "profile": [
            "http://hl7.eu/fhir/base/StructureDefinition/patient-eu-core"
          ]
        },
        "identifier": [
          {
            "type": {
              "coding": [
                {
                  "code": "PT",
                  "system": "http://terminology.hl7.org/CodeSystem/v2-0203"
                }
              ]
            },
            "system": "http://ec.europa.eu/identifier/eci",
            "value": "9925-001801-9"
          },
          {
            "type": {
              "coding": [
                {
                  "code": "MR",
                  "system": "http://terminology.hl7.org/CodeSystem/v2-0203"
                }
              ]
            },
            "system": "http://local.setting.eu/identifier",
            "value": "22c2dfd0-ac57-8833-2532-848f180896a4"
          }
        ],
        "name": [
          {
            "family": "Lagarde"
          },
          {
            "given": [
              "Victor"
            ]
          },
          {
            "text": "Victor Lagarde"
          }
        ],
        "address": [
          {
            "line": [
              "avenue Robert"
            ],
            "use": "home",
            "type": "physical",
            "postalCode": "80300",
            "city": "Albert",
            "country": "France"
          }
        ],
        "telecom": [
          {
            "system": "phone",
            "value": "0177941801"
          }
        ],
        "extension": [
          {
            "url": "http://hl7.org/fhir/StructureDefinition/patient-nationality",
            "valueCodeableConcept": {
              "coding": [
                {
                  "code": "FR",
                  "system": "http://hl7.org/fhir/ValueSet/country"
                }
              ]
            }
          }
        ],
        "text": {
          "status": "generated",
          "div": "<div xmlns=\"http://www.w3.org/1999/xhtml\"><table class=\"hl7__ips\"><tr><td>Victor Lagarde</td><td>male</td><td>31-Aug-1939</td></tr></table></div>"
        },
        "gender": "male",
        "birthDate": "1939-08-31"
      }
    },
    {
      "fullUrl": "urn:uuid:a65c9b6e-296b-4383-9981-339425bfe1be",
      "resource": {
        "resourceType": "ServiceRequest",
        "id": "a65c9b6e-296b-4383-9981-339425bfe1be",
        "meta": {
          "profile": [
            "http://hl7.eu/fhir/laboratory/StructureDefinition/ServiceRequest-eu-lab"
          ]
        },
        "identifier": [
          {
            "system": "http://example.org",
            "value": "5ac9bcca-5885-4a16-bc5c-7e1dbbf6facb"
          }
        ],
        "specimen": [
          {
            "reference": "urn:uuid:8105e329-c2e1-44c6-a32f-bdbb363bdc26"
          },
          {
            "reference": "urn:uuid:44e4b1fb-d256-4ec7-9933-d14627a32d49"
          },
          {
            "reference": "urn:uuid:b781187d-5d9a-4afc-a9d1-7f4f5a1daabf"
          }
        ],
        "reasonCode": [
          {
            "coding": [
              {
                "code": "433144002",
                "system": "http://snomed.info/sct",
                "display": "Chronic kidney disease stage 3"
              }
            ]
          },
          {
            "coding": [
              {
                "code": "157141000119108",
                "system": "http://snomed.info/sct",
                "display": "Proteinuria due to type 2 diabetes mellitus"
              }
            ]
          },
          {
            "coding": [
              {
                "code": "431856006",
                "system": "http://snomed.info/sct",
                "display": "Chronic kidney disease stage 2"
              }
            ]
          },
          {
            "coding": [
              {
                "code": "90781000119102",
                "system": "http://snomed.info/sct",
                "display": "Microalbuminuria due to type 2 diabetes mellitus"
              }
            ]
          },
          {
            "coding": [
              {
                "code": "127013003",
                "system": "http://snomed.info/sct",
                "display": "Disorder of kidney due to diabetes mellitus"
              }
            ]
          },
          {
            "coding": [
              {
                "code": "431855005",
                "system": "http://snomed.info/sct",
                "display": "Chronic kidney disease stage 1"
              }
            ]
          },
          {
            "coding": [
              {
                "code": "55822004",
                "system": "http://snomed.info/sct",
                "display": "Hyperlipidemia"
              }
            ]
          },
          {
            "coding": [
              {
                "code": "59621000",
                "system": "http://snomed.info/sct",
                "display": "Essential hypertension"
              }
            ]
          },
          {
            "coding": [
              {
                "code": "237602007",
                "system": "http://snomed.info/sct",
                "display": "Metabolic syndrome X"
              }
            ]
          },
          {
            "coding": [
              {
                "code": "414545008",
                "system": "http://snomed.info/sct",
                "display": "Ischemic heart disease"
              }
            ]
          },
          {
            "coding": [
              {
                "code": "40055000",
                "system": "http://snomed.info/sct",
                "display": "Chronic sinusitis"
              }
            ]
          },
          {
            "coding": [
              {
                "code": "15777000",
                "system": "http://snomed.info/sct",
                "display": "Prediabetes"
              }
            ]
          },
          {
            "coding": [
              {
                "code": "271737000",
                "system": "http://snomed.info/sct",
                "display": "Anemia"
              }
            ]
          }
        ],
        "status": "active",
        "intent": "order",
        "code": {
          "coding": [
            {
              "code": "108252007",
              "system": "http://snomed.info/sct",
              "display": "Laboratory procedure"
            }
          ]
        },
        "subject": {
          "reference": "urn:uuid:77e9aba5-dbc9-4649-8e49-6bfb5aac646f",
          "display": "Victor Lagarde"
        },
        "requester": {
          "reference": "urn:uuid:86e2012e-4acf-406a-bbc7-4a38f113bc6d"
        }
      }
    },
    {
      "fullUrl": "urn:uuid:86e2012e-4acf-406a-bbc7-4a38f113bc6d",
      "resource": {
        "resourceType": "PractitionerRole",
        "id": "86e2012e-4acf-406a-bbc7-4a38f113bc6d",
        "meta": {
          "profile": [
            "http://hl7.eu/fhir/base/StructureDefinition/practitionerRole-eu"
          ]
        },
        "text": {
          "status": "generated",
          "div": "<div xmlns=\"http://www.w3.org/1999/xhtml\">Provider Role Id: 86e2012e-4acf-406a-bbc7-4a38f113bc6d</div>"
        },
        "organization": {
          "reference": "urn:uuid:36363570-dd34-4ecf-9333-4ec5882a4de4"
        }
      }
    },
    {
      "fullUrl": "urn:uuid:36363570-dd34-4ecf-9333-4ec5882a4de4",
      "resource": {
        "resourceType": "Organization",
        "id": "36363570-dd34-4ecf-9333-4ec5882a4de4",
        "meta": {
          "profile": [
            "http://hl7.eu/fhir/base/StructureDefinition/organization-eu"
          ]
        },
        "identifier": [
          {
            "assigner": {
              "display": "HL7 Europe"
            },
            "system": "urn:oid:2.16.840.1.113883.2.51.999",
            "value": "e776617b-2b13-41f7-9741-3ca48dafcb01"
          }
        ],
        "address": [
          {
            "city": "Auxerre",
            "postalCode": "89000",
            "country": "France"
          }
        ],
        "text": {
          "status": "generated",
          "div": "<div xmlns=\"http://www.w3.org/1999/xhtml\">Provider Organization: Thiriot Didier (Cardiologie)</div>"
        },
        "name": "Thiriot Didier (Cardiologie)"
      }
    },
    {
      "fullUrl": "urn:uuid:8105e329-c2e1-44c6-a32f-bdbb363bdc26",
      "resource": {
        "resourceType": "Specimen",
        "id": "8105e329-c2e1-44c6-a32f-bdbb363bdc26",
        "meta": {
          "profile": [
            "http://hl7.eu/fhir/laboratory/StructureDefinition/Specimen-eu-lab"
          ]
        },
        "collection": {
          "collectedDateTime": "2023-03-24"
        },
        "text": {
          "status": "generated",
          "div": "<div xmlns=\"http://www.w3.org/1999/xhtml\"><table class=\"hl7__eu__lab__report\"><tr><th>Specimen</th><th>Collection Date</th></tr><tr><td>Acellular blood (serum or plasma) specimen</td><td><span class=\"nb\">24-Mar-2023</span></td></tr></table></div>"
        },
        "type": {
          "coding": [
            {
              "code": "122592007",
              "system": "http://snomed.info/sct",
              "display": "Acellular blood (serum or plasma) specimen"
            }
          ]
        }
      }
    },
    {
      "fullUrl": "urn:uuid:44e4b1fb-d256-4ec7-9933-d14627a32d49",
      "resource": {
        "resourceType": "Specimen",
        "id": "44e4b1fb-d256-4ec7-9933-d14627a32d49",
        "meta": {
          "profile": [
            "http://hl7.eu/fhir/laboratory/StructureDefinition/Specimen-eu-lab"
          ]
        },
        "collection": {
          "collectedDateTime": "2023-03-24"
        },
        "text": {
          "status": "generated",
          "div": "<div xmlns=\"http://www.w3.org/1999/xhtml\"><table class=\"hl7__eu__lab__report\"><tr><th>Specimen</th><th>Collection Date</th></tr><tr><td>Urine specimen</td><td><span class=\"nb\">24-Mar-2023</span></td></tr></table></div>"
        },
        "type": {
          "coding": [
            {
              "code": "122575003",
              "system": "http://snomed.info/sct",
              "display": "Urine specimen"
            }
          ]
        }
      }
    },
    {
      "fullUrl": "urn:uuid:b781187d-5d9a-4afc-a9d1-7f4f5a1daabf",
      "resource": {
        "resourceType": "Specimen",
        "id": "b781187d-5d9a-4afc-a9d1-7f4f5a1daabf",
        "meta": {
          "profile": [
            "http://hl7.eu/fhir/laboratory/StructureDefinition/Specimen-eu-lab"
          ]
        },
        "collection": {
          "collectedDateTime": "2023-03-24"
        },
        "text": {
          "status": "generated",
          "div": "<div xmlns=\"http://www.w3.org/1999/xhtml\"><table class=\"hl7__eu__lab__report\"><tr><th>Specimen</th><th>Collection Date</th></tr><tr><td>Whole blood specimen (specimen)</td><td><span class=\"nb\">24-Mar-2023</span></td></tr></table></div>"
        },
        "type": {
          "coding": [
            {
              "code": "258580003",
              "system": "http://snomed.info/sct",
              "display": "Whole blood specimen (specimen)"
            }
          ]
        }
      }
    },
    {
      "fullUrl": "urn:uuid:08ca98e4-e53b-40f1-be1f-06c24876d923",
      "resource": {
        "resourceType": "Observation",
        "id": "08ca98e4-e53b-40f1-be1f-06c24876d923",
        "meta": {
          "profile": [
            "http://hl7.eu/fhir/laboratory/StructureDefinition/Observation-resultslab-eu-lab"
          ]
        },
        "performer": [
          {
            "display": "The Central European Lab"
          }
        ],
        "category": [
          {
            "coding": [
              {
                "system": "http://terminology.hl7.org/CodeSystem/observation-category",
                "code": "laboratory"
              }
            ]
          }
        ],
        "code": {
          "coding": [
            {
              "code": "2345-7",
              "system": "http://loinc.org",
              "display": "Glucose [Mass/volume] in Serum or Plasma"
            }
          ],
          "text": "Glucose [Mass/volume] in Serum or Plasma"
        },
        "valueQuantity": {
          "system": "http://unitsofmeasure.org",
          "value": 66,
          "unit": "mg/dL",
          "code": "mg/dL"
        },
        "referenceRange": [
          {
            "low": {
              "value": 70,
              "code": "mg/dL",
              "system": "http://unitsofmeasure.org"
            }
          },
          {
            "high": {
              "value": 140,
              "code": "mg/dL",
              "system": "http://unitsofmeasure.org"
            }
          }
        ],
        "interpretation": [
          {
            "coding": [
              {
                "code": "L",
                "system": "http://terminology.hl7.org/CodeSystem/v3-ObservationInterpretation",
                "display": "Low"
              }
            ]
          }
        ],
        "text": {
          "status": "generated",
          "div": "<div xmlns=\"http://www.w3.org/1999/xhtml\"><table class=\"hl7__eu__lab__report\"><tr><th>Test</th><th>24-Mar-2023</th><th>Reference&#xA0;Range</th><th>Unit</th></tr><tr><td>Glucose [Mass/volume] in Serum or Plasma</td><td>66.0</td><td>70 - 140</td><td>L</td><td>mg/dL</td></tr></table></div>"
        },
        "status": "final",
        "subject": {
          "reference": "urn:uuid:77e9aba5-dbc9-4649-8e49-6bfb5aac646f",
          "display": "Victor Lagarde"
        },
        "effectiveDateTime": "2023-03-24T04:48:18Z",
        "specimen": {
          "reference": "urn:uuid:8105e329-c2e1-44c6-a32f-bdbb363bdc26"
        }
      }
    },
    {
      "fullUrl": "urn:uuid:e39b7328-7bc2-4ba9-98e4-786bc0e89b49",
      "resource": {
        "resourceType": "Observation",
        "id": "e39b7328-7bc2-4ba9-98e4-786bc0e89b49",
        "meta": {
          "profile": [
            "http://hl7.eu/fhir/laboratory/StructureDefinition/Observation-resultslab-eu-lab"
          ]
        },
        "performer": [
          {
            "display": "The Central European Lab"
          }
        ],
        "category": [
          {
            "coding": [
              {
                "system": "http://terminology.hl7.org/CodeSystem/observation-category",
                "code": "laboratory"
              }
            ]
          }
        ],
        "code": {
          "coding": [
            {
              "code": "3094-0",
              "system": "http://loinc.org",
              "display": "Urea nitrogen [Mass/volume] in Serum or Plasma"
            }
          ],
          "text": "Urea nitrogen [Mass/volume] in Serum or Plasma"
        },
        "valueQuantity": {
          "system": "http://unitsofmeasure.org",
          "value": 15.8,
          "unit": "mg/dL",
          "code": "mg/dL"
        },
        "referenceRange": [
          {
            "low": {
              "value": 7,
              "code": "mg/dL",
              "system": "http://unitsofmeasure.org"
            }
          },
          {
            "high": {
              "value": 20,
              "code": "mg/dL",
              "system": "http://unitsofmeasure.org"
            }
          }
        ],
        "text": {
          "status": "generated",
          "div": "<div xmlns=\"http://www.w3.org/1999/xhtml\"><table class=\"hl7__eu__lab__report\"><tr><th>Test</th><th>24-Mar-2023</th><th>Reference&#xA0;Range</th><th>Unit</th></tr><tr><td>Urea nitrogen [Mass/volume] in Serum or Plasma</td><td>15.8</td><td>7 - 20</td><td></td><td>mg/dL</td></tr></table></div>"
        },
        "status": "final",
        "subject": {
          "reference": "urn:uuid:77e9aba5-dbc9-4649-8e49-6bfb5aac646f",
          "display": "Victor Lagarde"
        },
        "effectiveDateTime": "2023-03-24T04:48:18Z",
        "specimen": {
          "reference": "urn:uuid:8105e329-c2e1-44c6-a32f-bdbb363bdc26"
        }
      }
    },
    {
      "fullUrl": "urn:uuid:5d9f760a-8f2c-41a7-bf2a-db54c5e4bf26",
      "resource": {
        "resourceType": "Observation",
        "id": "5d9f760a-8f2c-41a7-bf2a-db54c5e4bf26",
        "meta": {
          "profile": [
            "http://hl7.eu/fhir/laboratory/StructureDefinition/Observation-resultslab-eu-lab"
          ]
        },
        "performer": [
          {
            "display": "The Central European Lab"
          }
        ],
        "category": [
          {
            "coding": [
              {
                "system": "http://terminology.hl7.org/CodeSystem/observation-category",
                "code": "laboratory"
              }
            ]
          }
        ],
        "code": {
          "coding": [
            {
              "code": "2160-0",
              "system": "http://loinc.org",
              "display": "Creatinine [Mass/volume] in Serum or Plasma"
            }
          ],
          "text": "Creatinine [Mass/volume] in Serum or Plasma"
        },
        "valueQuantity": {
          "system": "http://unitsofmeasure.org",
          "value": 2,
          "unit": "mg/dL",
          "code": "mg/dL"
        },
        "referenceRange": [
          {
            "low": {
              "value": 0.9,
              "code": "mg/dL",
              "system": "http://unitsofmeasure.org"
            }
          },
          {
            "high": {
              "value": 1.3,
              "code": "mg/dL",
              "system": "http://unitsofmeasure.org"
            }
          }
        ],
        "interpretation": [
          {
            "coding": [
              {
                "code": "H",
                "system": "http://terminology.hl7.org/CodeSystem/v3-ObservationInterpretation",
                "display": "High"
              }
            ]
          }
        ],
        "text": {
          "status": "generated",
          "div": "<div xmlns=\"http://www.w3.org/1999/xhtml\"><table class=\"hl7__eu__lab__report\"><tr><th>Test</th><th>24-Mar-2023</th><th>Reference&#xA0;Range</th><th>Unit</th></tr><tr><td>Creatinine [Mass/volume] in Serum or Plasma</td><td>2.0</td><td>0.9 - 1.3</td><td>H</td><td>mg/dL</td></tr></table></div>"
        },
        "status": "final",
        "subject": {
          "reference": "urn:uuid:77e9aba5-dbc9-4649-8e49-6bfb5aac646f",
          "display": "Victor Lagarde"
        },
        "effectiveDateTime": "2023-03-24T04:48:18Z",
        "specimen": {
          "reference": "urn:uuid:8105e329-c2e1-44c6-a32f-bdbb363bdc26"
        }
      }
    },
    {
      "fullUrl": "urn:uuid:1aa80bb9-99a3-48ed-bed7-ee1327ce345d",
      "resource": {
        "resourceType": "Observation",
        "id": "1aa80bb9-99a3-48ed-bed7-ee1327ce345d",
        "meta": {
          "profile": [
            "http://hl7.eu/fhir/laboratory/StructureDefinition/Observation-resultslab-eu-lab"
          ]
        },
        "performer": [
          {
            "display": "The Central European Lab"
          }
        ],
        "category": [
          {
            "coding": [
              {
                "system": "http://terminology.hl7.org/CodeSystem/observation-category",
                "code": "laboratory"
              }
            ]
          }
        ],
        "code": {
          "coding": [
            {
              "code": "17861-6",
              "system": "http://loinc.org",
              "display": "Calcium [Mass/volume] in Serum or Plasma"
            }
          ],
          "text": "Calcium [Mass/volume] in Serum or Plasma"
        },
        "valueQuantity": {
          "system": "http://unitsofmeasure.org",
          "value": 8.6,
          "unit": "mg/dL",
          "code": "mg/dL"
        },
        "referenceRange": [
          {
            "low": {
              "value": 8.5,
              "code": "mg/dL",
              "system": "http://unitsofmeasure.org"
            }
          },
          {
            "high": {
              "value": 10.5,
              "code": "mg/dL",
              "system": "http://unitsofmeasure.org"
            }
          }
        ],
        "text": {
          "status": "generated",
          "div": "<div xmlns=\"http://www.w3.org/1999/xhtml\"><table class=\"hl7__eu__lab__report\"><tr><th>Test</th><th>24-Mar-2023</th><th>Reference&#xA0;Range</th><th>Unit</th></tr><tr><td>Calcium [Mass/volume] in Serum or Plasma</td><td>8.6</td><td>8.5 - 10.5</td><td></td><td>mg/dL</td></tr></table></div>"
        },
        "status": "final",
        "subject": {
          "reference": "urn:uuid:77e9aba5-dbc9-4649-8e49-6bfb5aac646f",
          "display": "Victor Lagarde"
        },
        "effectiveDateTime": "2023-03-24T04:48:18Z",
        "specimen": {
          "reference": "urn:uuid:8105e329-c2e1-44c6-a32f-bdbb363bdc26"
        }
      }
    },
    {
      "fullUrl": "urn:uuid:3705be92-536e-4540-a0cf-c4ecb89f9fc7",
      "resource": {
        "resourceType": "Observation",
        "id": "3705be92-536e-4540-a0cf-c4ecb89f9fc7",
        "meta": {
          "profile": [
            "http://hl7.eu/fhir/laboratory/StructureDefinition/Observation-resultslab-eu-lab"
          ]
        },
        "performer": [
          {
            "display": "The Central European Lab"
          }
        ],
        "category": [
          {
            "coding": [
              {
                "system": "http://terminology.hl7.org/CodeSystem/observation-category",
                "code": "laboratory"
              }
            ]
          }
        ],
        "code": {
          "coding": [
            {
              "code": "2951-2",
              "system": "http://loinc.org",
              "display": "Sodium [Moles/volume] in Serum or Plasma"
            }
          ],
          "text": "Sodium [Moles/volume] in Serum or Plasma"
        },
        "valueQuantity": {
          "system": "http://unitsofmeasure.org",
          "value": 142.8,
          "unit": "mmol/L",
          "code": "mmol/L"
        },
        "referenceRange": [
          {
            "low": {
              "value": 135,
              "code": "mmol/L",
              "system": "http://unitsofmeasure.org"
            }
          },
          {
            "high": {
              "value": 145,
              "code": "mmol/L",
              "system": "http://unitsofmeasure.org"
            }
          }
        ],
        "text": {
          "status": "generated",
          "div": "<div xmlns=\"http://www.w3.org/1999/xhtml\"><table class=\"hl7__eu__lab__report\"><tr><th>Test</th><th>24-Mar-2023</th><th>Reference&#xA0;Range</th><th>Unit</th></tr><tr><td>Sodium [Moles/volume] in Serum or Plasma</td><td>142.8</td><td>135 - 145</td><td></td><td>mmol/L</td></tr></table></div>"
        },
        "status": "final",
        "subject": {
          "reference": "urn:uuid:77e9aba5-dbc9-4649-8e49-6bfb5aac646f",
          "display": "Victor Lagarde"
        },
        "effectiveDateTime": "2023-03-24T04:48:18Z",
        "specimen": {
          "reference": "urn:uuid:8105e329-c2e1-44c6-a32f-bdbb363bdc26"
        }
      }
    },
    {
      "fullUrl": "urn:uuid:98d091e9-1a53-40dc-bd4d-3fa3c1d0db43",
      "resource": {
        "resourceType": "Observation",
        "id": "98d091e9-1a53-40dc-bd4d-3fa3c1d0db43",
        "meta": {
          "profile": [
            "http://hl7.eu/fhir/laboratory/StructureDefinition/Observation-resultslab-eu-lab"
          ]
        },
        "performer": [
          {
            "display": "The Central European Lab"
          }
        ],
        "category": [
          {
            "coding": [
              {
                "system": "http://terminology.hl7.org/CodeSystem/observation-category",
                "code": "laboratory"
              }
            ]
          }
        ],
        "code": {
          "coding": [
            {
              "code": "2823-3",
              "system": "http://loinc.org",
              "display": "Potassium [Moles/volume] in Serum or Plasma"
            }
          ],
          "text": "Potassium [Moles/volume] in Serum or Plasma"
        },
        "valueQuantity": {
          "system": "http://unitsofmeasure.org",
          "value": 5.2,
          "unit": "mmol/L",
          "code": "mmol/L"
        },
        "referenceRange": [
          {
            "low": {
              "value": 3.5,
              "code": "mmol/L",
              "system": "http://unitsofmeasure.org"
            }
          },
          {
            "high": {
              "value": 5.3,
              "code": "mmol/L",
              "system": "http://unitsofmeasure.org"
            }
          }
        ],
        "text": {
          "status": "generated",
          "div": "<div xmlns=\"http://www.w3.org/1999/xhtml\"><table class=\"hl7__eu__lab__report\"><tr><th>Test</th><th>24-Mar-2023</th><th>Reference&#xA0;Range</th><th>Unit</th></tr><tr><td>Potassium [Moles/volume] in Serum or Plasma</td><td>5.2</td><td>3.5 - 5.3</td><td></td><td>mmol/L</td></tr></table></div>"
        },
        "status": "final",
        "subject": {
          "reference": "urn:uuid:77e9aba5-dbc9-4649-8e49-6bfb5aac646f",
          "display": "Victor Lagarde"
        },
        "effectiveDateTime": "2023-03-24T04:48:18Z",
        "specimen": {
          "reference": "urn:uuid:8105e329-c2e1-44c6-a32f-bdbb363bdc26"
        }
      }
    },
    {
      "fullUrl": "urn:uuid:13f4f5f4-5e07-4a7f-bdda-1f0882355e4a",
      "resource": {
        "resourceType": "Observation",
        "id": "13f4f5f4-5e07-4a7f-bdda-1f0882355e4a",
        "meta": {
          "profile": [
            "http://hl7.eu/fhir/laboratory/StructureDefinition/Observation-resultslab-eu-lab"
          ]
        },
        "performer": [
          {
            "display": "The Central European Lab"
          }
        ],
        "category": [
          {
            "coding": [
              {
                "system": "http://terminology.hl7.org/CodeSystem/observation-category",
                "code": "laboratory"
              }
            ]
          }
        ],
        "code": {
          "coding": [
            {
              "code": "2075-0",
              "system": "http://loinc.org",
              "display": "Chloride [Moles/volume] in Serum or Plasma"
            }
          ],
          "text": "Chloride [Moles/volume] in Serum or Plasma"
        },
        "valueQuantity": {
          "system": "http://unitsofmeasure.org",
          "value": 110.2,
          "unit": "mmol/L",
          "code": "mmol/L"
        },
        "referenceRange": [
          {
            "low": {
              "value": 98,
              "code": "mmol/L",
              "system": "http://unitsofmeasure.org"
            }
          },
          {
            "high": {
              "value": 107,
              "code": "mmol/L",
              "system": "http://unitsofmeasure.org"
            }
          }
        ],
        "interpretation": [
          {
            "coding": [
              {
                "code": "H",
                "system": "http://terminology.hl7.org/CodeSystem/v3-ObservationInterpretation",
                "display": "High"
              }
            ]
          }
        ],
        "text": {
          "status": "generated",
          "div": "<div xmlns=\"http://www.w3.org/1999/xhtml\"><table class=\"hl7__eu__lab__report\"><tr><th>Test</th><th>24-Mar-2023</th><th>Reference&#xA0;Range</th><th>Unit</th></tr><tr><td>Chloride [Moles/volume] in Serum or Plasma</td><td>110.2</td><td>98 - 107</td><td>H</td><td>mmol/L</td></tr></table></div>"
        },
        "status": "final",
        "subject": {
          "reference": "urn:uuid:77e9aba5-dbc9-4649-8e49-6bfb5aac646f",
          "display": "Victor Lagarde"
        },
        "effectiveDateTime": "2023-03-24T04:48:18Z",
        "specimen": {
          "reference": "urn:uuid:8105e329-c2e1-44c6-a32f-bdbb363bdc26"
        }
      }
    },
    {
      "fullUrl": "urn:uuid:f489969d-4516-4cd3-b110-1c247912ca03",
      "resource": {
        "resourceType": "Observation",
        "id": "f489969d-4516-4cd3-b110-1c247912ca03",
        "meta": {
          "profile": [
            "http://hl7.eu/fhir/laboratory/StructureDefinition/Observation-resultslab-eu-lab"
          ]
        },
        "performer": [
          {
            "display": "The Central European Lab"
          }
        ],
        "category": [
          {
            "coding": [
              {
                "system": "http://terminology.hl7.org/CodeSystem/observation-category",
                "code": "laboratory"
              }
            ]
          }
        ],
        "code": {
          "coding": [
            {
              "code": "2028-9",
              "system": "http://loinc.org",
              "display": "Carbon dioxide, total [Moles/volume] in Serum or Plasma"
            }
          ],
          "text": "Carbon dioxide, total [Moles/volume] in Serum or Plasma"
        },
        "valueQuantity": {
          "system": "http://unitsofmeasure.org",
          "value": 29,
          "unit": "mmol/L",
          "code": "mmol/L"
        },
        "referenceRange": [
          {
            "low": {
              "value": 22,
              "code": "mmol/L",
              "system": "http://unitsofmeasure.org"
            }
          },
          {
            "high": {
              "value": 33,
              "code": "mmol/L",
              "system": "http://unitsofmeasure.org"
            }
          }
        ],
        "text": {
          "status": "generated",
          "div": "<div xmlns=\"http://www.w3.org/1999/xhtml\"><table class=\"hl7__eu__lab__report\"><tr><th>Test</th><th>24-Mar-2023</th><th>Reference&#xA0;Range</th><th>Unit</th></tr><tr><td>Carbon dioxide, total [Moles/volume] in Serum or Plasma</td><td>29.0</td><td>22 - 33</td><td></td><td>mmol/L</td></tr></table></div>"
        },
        "status": "final",
        "subject": {
          "reference": "urn:uuid:77e9aba5-dbc9-4649-8e49-6bfb5aac646f",
          "display": "Victor Lagarde"
        },
        "effectiveDateTime": "2023-03-24T04:48:18Z",
        "specimen": {
          "reference": "urn:uuid:8105e329-c2e1-44c6-a32f-bdbb363bdc26"
        }
      }
    },
    {
      "fullUrl": "urn:uuid:5f59a8c7-c65c-43e8-a341-79a581d5d1d4",
      "resource": {
        "resourceType": "Observation",
        "id": "5f59a8c7-c65c-43e8-a341-79a581d5d1d4",
        "meta": {
          "profile": [
            "http://hl7.eu/fhir/laboratory/StructureDefinition/Observation-resultslab-eu-lab"
          ]
        },
        "performer": [
          {
            "display": "The Central European Lab"
          }
        ],
        "category": [
          {
            "coding": [
              {
                "system": "http://terminology.hl7.org/CodeSystem/observation-category",
                "code": "laboratory"
              }
            ]
          }
        ],
        "code": {
          "coding": [
            {
              "code": "5767-9",
              "system": "http://loinc.org",
              "display": "Appearance of Urine"
            }
          ],
          "text": "Appearance of Urine"
        },
        "text": {
          "status": "generated",
          "div": "<div xmlns=\"http://www.w3.org/1999/xhtml\"><table class=\"hl7__eu__lab__report\"><tr><th>Test</th><th>24-Mar-2023</th><th>Reference&#xA0;Range</th><th>Unit</th></tr><tr><td>Appearance of Urine</td></tr></table></div>"
        },
        "status": "final",
        "subject": {
          "reference": "urn:uuid:77e9aba5-dbc9-4649-8e49-6bfb5aac646f",
          "display": "Victor Lagarde"
        },
        "effectiveDateTime": "2023-03-24T04:48:18Z",
        "specimen": {
          "reference": "urn:uuid:44e4b1fb-d256-4ec7-9933-d14627a32d49"
        }
      }
    },
    {
      "fullUrl": "urn:uuid:88b74480-f249-4a8c-866c-03db776c67b0",
      "resource": {
        "resourceType": "Observation",
        "id": "88b74480-f249-4a8c-866c-03db776c67b0",
        "meta": {
          "profile": [
            "http://hl7.eu/fhir/laboratory/StructureDefinition/Observation-resultslab-eu-lab"
          ]
        },
        "performer": [
          {
            "display": "The Central European Lab"
          }
        ],
        "category": [
          {
            "coding": [
              {
                "system": "http://terminology.hl7.org/CodeSystem/observation-category",
                "code": "laboratory"
              }
            ]
          }
        ],
        "code": {
          "coding": [
            {
              "code": "34533-0",
              "system": "http://loinc.org",
              "display": "Odor of Urine"
            }
          ],
          "text": "Odor of Urine"
        },
        "text": {
          "status": "generated",
          "div": "<div xmlns=\"http://www.w3.org/1999/xhtml\"><table class=\"hl7__eu__lab__report\"><tr><th>Test</th><th>24-Mar-2023</th><th>Reference&#xA0;Range</th><th>Unit</th></tr><tr><td>Odor of Urine</td></tr></table></div>"
        },
        "status": "final",
        "subject": {
          "reference": "urn:uuid:77e9aba5-dbc9-4649-8e49-6bfb5aac646f",
          "display": "Victor Lagarde"
        },
        "effectiveDateTime": "2023-03-24T04:48:18Z",
        "specimen": {
          "reference": "urn:uuid:44e4b1fb-d256-4ec7-9933-d14627a32d49"
        }
      }
    },
    {
      "fullUrl": "urn:uuid:7cfc459e-2a70-43cd-84ef-c4c4d185cde0",
      "resource": {
        "resourceType": "Observation",
        "id": "7cfc459e-2a70-43cd-84ef-c4c4d185cde0",
        "meta": {
          "profile": [
            "http://hl7.eu/fhir/laboratory/StructureDefinition/Observation-resultslab-eu-lab"
          ]
        },
        "performer": [
          {
            "display": "The Central European Lab"
          }
        ],
        "category": [
          {
            "coding": [
              {
                "system": "http://terminology.hl7.org/CodeSystem/observation-category",
                "code": "laboratory"
              }
            ]
          }
        ],
        "code": {
          "coding": [
            {
              "code": "32167-9",
              "system": "http://loinc.org",
              "display": "Clarity of Urine"
            }
          ],
          "text": "Clarity of Urine"
        },
        "text": {
          "status": "generated",
          "div": "<div xmlns=\"http://www.w3.org/1999/xhtml\"><table class=\"hl7__eu__lab__report\"><tr><th>Test</th><th>24-Mar-2023</th><th>Reference&#xA0;Range</th><th>Unit</th></tr><tr><td>Clarity of Urine</td></tr></table></div>"
        },
        "status": "final",
        "subject": {
          "reference": "urn:uuid:77e9aba5-dbc9-4649-8e49-6bfb5aac646f",
          "display": "Victor Lagarde"
        },
        "effectiveDateTime": "2023-03-24T04:48:18Z",
        "specimen": {
          "reference": "urn:uuid:44e4b1fb-d256-4ec7-9933-d14627a32d49"
        }
      }
    },
    {
      "fullUrl": "urn:uuid:9b22e8a9-0789-41f5-adf4-fe11299b2cf6",
      "resource": {
        "resourceType": "Observation",
        "id": "9b22e8a9-0789-41f5-adf4-fe11299b2cf6",
        "meta": {
          "profile": [
            "http://hl7.eu/fhir/laboratory/StructureDefinition/Observation-resultslab-eu-lab"
          ]
        },
        "performer": [
          {
            "display": "The Central European Lab"
          }
        ],
        "category": [
          {
            "coding": [
              {
                "system": "http://terminology.hl7.org/CodeSystem/observation-category",
                "code": "laboratory"
              }
            ]
          }
        ],
        "code": {
          "coding": [
            {
              "code": "5778-6",
              "system": "http://loinc.org",
              "display": "Color of Urine"
            }
          ],
          "text": "Color of Urine"
        },
        "text": {
          "status": "generated",
          "div": "<div xmlns=\"http://www.w3.org/1999/xhtml\"><table class=\"hl7__eu__lab__report\"><tr><th>Test</th><th>24-Mar-2023</th><th>Reference&#xA0;Range</th><th>Unit</th></tr><tr><td>Color of Urine</td></tr></table></div>"
        },
        "status": "final",
        "subject": {
          "reference": "urn:uuid:77e9aba5-dbc9-4649-8e49-6bfb5aac646f",
          "display": "Victor Lagarde"
        },
        "effectiveDateTime": "2023-03-24T04:48:18Z",
        "specimen": {
          "reference": "urn:uuid:44e4b1fb-d256-4ec7-9933-d14627a32d49"
        }
      }
    },
    {
      "fullUrl": "urn:uuid:6a3d9237-18d4-461d-9aed-975436af9e82",
      "resource": {
        "resourceType": "Observation",
        "id": "6a3d9237-18d4-461d-9aed-975436af9e82",
        "meta": {
          "profile": [
            "http://hl7.eu/fhir/laboratory/StructureDefinition/Observation-resultslab-eu-lab"
          ]
        },
        "performer": [
          {
            "display": "The Central European Lab"
          }
        ],
        "category": [
          {
            "coding": [
              {
                "system": "http://terminology.hl7.org/CodeSystem/observation-category",
                "code": "laboratory"
              }
            ]
          }
        ],
        "code": {
          "coding": [
            {
              "code": "5792-7",
              "system": "http://loinc.org",
              "display": "Glucose [Mass/volume] in Urine by Test strip"
            }
          ],
          "text": "Glucose [Mass/volume] in Urine by Test strip"
        },
        "valueQuantity": {
          "system": "http://unitsofmeasure.org",
          "value": 0.7,
          "unit": "mg/dL",
          "code": "mg/dL"
        },
        "referenceRange": [
          {
            "low": {
              "value": 0,
              "code": "mg/dL",
              "system": "http://unitsofmeasure.org"
            }
          },
          {
            "high": {
              "value": 0.8,
              "code": "mg/dL",
              "system": "http://unitsofmeasure.org"
            }
          }
        ],
        "text": {
          "status": "generated",
          "div": "<div xmlns=\"http://www.w3.org/1999/xhtml\"><table class=\"hl7__eu__lab__report\"><tr><th>Test</th><th>24-Mar-2023</th><th>Reference&#xA0;Range</th><th>Unit</th></tr><tr><td>Glucose [Mass/volume] in Urine by Test strip</td><td>0.7</td><td>0 - 0.8</td><td></td><td>mg/dL</td></tr></table></div>"
        },
        "status": "final",
        "subject": {
          "reference": "urn:uuid:77e9aba5-dbc9-4649-8e49-6bfb5aac646f",
          "display": "Victor Lagarde"
        },
        "effectiveDateTime": "2023-03-24T04:48:18Z",
        "specimen": {
          "reference": "urn:uuid:44e4b1fb-d256-4ec7-9933-d14627a32d49"
        }
      }
    },
    {
      "fullUrl": "urn:uuid:f1169e85-6780-41f1-8877-9095e088de00",
      "resource": {
        "resourceType": "Observation",
        "id": "f1169e85-6780-41f1-8877-9095e088de00",
        "meta": {
          "profile": [
            "http://hl7.eu/fhir/laboratory/StructureDefinition/Observation-resultslab-eu-lab"
          ]
        },
        "performer": [
          {
            "display": "The Central European Lab"
          }
        ],
        "category": [
          {
            "coding": [
              {
                "system": "http://terminology.hl7.org/CodeSystem/observation-category",
                "code": "laboratory"
              }
            ]
          }
        ],
        "code": {
          "coding": [
            {
              "code": "25428-4",
              "system": "http://loinc.org",
              "display": "Glucose [Presence] in Urine by Test strip"
            }
          ],
          "text": "Glucose [Presence] in Urine by Test strip"
        },
        "text": {
          "status": "generated",
          "div": "<div xmlns=\"http://www.w3.org/1999/xhtml\"><table class=\"hl7__eu__lab__report\"><tr><th>Test</th><th>24-Mar-2023</th><th>Reference&#xA0;Range</th><th>Unit</th></tr><tr><td>Glucose [Presence] in Urine by Test strip</td></tr></table></div>"
        },
        "status": "final",
        "subject": {
          "reference": "urn:uuid:77e9aba5-dbc9-4649-8e49-6bfb5aac646f",
          "display": "Victor Lagarde"
        },
        "effectiveDateTime": "2023-03-24T04:48:18Z",
        "specimen": {
          "reference": "urn:uuid:44e4b1fb-d256-4ec7-9933-d14627a32d49"
        }
      }
    },
    {
      "fullUrl": "urn:uuid:18049bce-a6dd-4a62-9b59-8b1bbe697eb4",
      "resource": {
        "resourceType": "Observation",
        "id": "18049bce-a6dd-4a62-9b59-8b1bbe697eb4",
        "meta": {
          "profile": [
            "http://hl7.eu/fhir/laboratory/StructureDefinition/Observation-resultslab-eu-lab"
          ]
        },
        "performer": [
          {
            "display": "The Central European Lab"
          }
        ],
        "category": [
          {
            "coding": [
              {
                "system": "http://terminology.hl7.org/CodeSystem/observation-category",
                "code": "laboratory"
              }
            ]
          }
        ],
        "code": {
          "coding": [
            {
              "code": "20505-4",
              "system": "http://loinc.org",
              "display": "Bilirubin.total [Mass/volume] in Urine by Test strip"
            }
          ],
          "text": "Bilirubin.total [Mass/volume] in Urine by Test strip"
        },
        "valueQuantity": {
          "system": "http://unitsofmeasure.org",
          "value": 1,
          "unit": "mg/dL",
          "code": "mg/dL"
        },
        "referenceRange": [
          {
            "low": {
              "value": 0,
              "code": "mg/dL",
              "system": "http://unitsofmeasure.org"
            }
          },
          {
            "high": {
              "value": 1.9,
              "code": "mg/dL",
              "system": "http://unitsofmeasure.org"
            }
          }
        ],
        "text": {
          "status": "generated",
          "div": "<div xmlns=\"http://www.w3.org/1999/xhtml\"><table class=\"hl7__eu__lab__report\"><tr><th>Test</th><th>24-Mar-2023</th><th>Reference&#xA0;Range</th><th>Unit</th></tr><tr><td>Bilirubin.total [Mass/volume] in Urine by Test strip</td><td>1.0</td><td>0 - 1.9</td><td></td><td>mg/dL</td></tr></table></div>"
        },
        "status": "final",
        "subject": {
          "reference": "urn:uuid:77e9aba5-dbc9-4649-8e49-6bfb5aac646f",
          "display": "Victor Lagarde"
        },
        "effectiveDateTime": "2023-03-24T04:48:18Z",
        "specimen": {
          "reference": "urn:uuid:44e4b1fb-d256-4ec7-9933-d14627a32d49"
        }
      }
    },
    {
      "fullUrl": "urn:uuid:16beee9a-b64c-4cec-ac69-9f71dbc93f45",
      "resource": {
        "resourceType": "Observation",
        "id": "16beee9a-b64c-4cec-ac69-9f71dbc93f45",
        "meta": {
          "profile": [
            "http://hl7.eu/fhir/laboratory/StructureDefinition/Observation-resultslab-eu-lab"
          ]
        },
        "performer": [
          {
            "display": "The Central European Lab"
          }
        ],
        "category": [
          {
            "coding": [
              {
                "system": "http://terminology.hl7.org/CodeSystem/observation-category",
                "code": "laboratory"
              }
            ]
          }
        ],
        "code": {
          "coding": [
            {
              "code": "5770-3",
              "system": "http://loinc.org",
              "display": "Bilirubin.total [Presence] in Urine by Test strip"
            }
          ],
          "text": "Bilirubin.total [Presence] in Urine by Test strip"
        },
        "text": {
          "status": "generated",
          "div": "<div xmlns=\"http://www.w3.org/1999/xhtml\"><table class=\"hl7__eu__lab__report\"><tr><th>Test</th><th>24-Mar-2023</th><th>Reference&#xA0;Range</th><th>Unit</th></tr><tr><td>Bilirubin.total [Presence] in Urine by Test strip</td></tr></table></div>"
        },
        "status": "final",
        "subject": {
          "reference": "urn:uuid:77e9aba5-dbc9-4649-8e49-6bfb5aac646f",
          "display": "Victor Lagarde"
        },
        "effectiveDateTime": "2023-03-24T04:48:18Z",
        "specimen": {
          "reference": "urn:uuid:44e4b1fb-d256-4ec7-9933-d14627a32d49"
        }
      }
    },
    {
      "fullUrl": "urn:uuid:00ab7590-adc9-4fec-af26-c99f366e231d",
      "resource": {
        "resourceType": "Observation",
        "id": "00ab7590-adc9-4fec-af26-c99f366e231d",
        "meta": {
          "profile": [
            "http://hl7.eu/fhir/laboratory/StructureDefinition/Observation-resultslab-eu-lab"
          ]
        },
        "performer": [
          {
            "display": "The Central European Lab"
          }
        ],
        "category": [
          {
            "coding": [
              {
                "system": "http://terminology.hl7.org/CodeSystem/observation-category",
                "code": "laboratory"
              }
            ]
          }
        ],
        "code": {
          "coding": [
            {
              "code": "5797-6",
              "system": "http://loinc.org",
              "display": "Ketones [Mass/volume] in Urine by Test strip"
            }
          ],
          "text": "Ketones [Mass/volume] in Urine by Test strip"
        },
        "valueQuantity": {
          "system": "http://unitsofmeasure.org",
          "value": 8.9,
          "unit": "mg/dL",
          "code": "mg/dL"
        },
        "referenceRange": [
          {
            "low": {
              "value": 0,
              "code": "mg/dL",
              "system": "http://unitsofmeasure.org"
            }
          },
          {
            "high": {
              "value": 3,
              "code": "mg/dL",
              "system": "http://unitsofmeasure.org"
            }
          }
        ],
        "interpretation": [
          {
            "coding": [
              {
                "code": "H",
                "system": "http://terminology.hl7.org/CodeSystem/v3-ObservationInterpretation",
                "display": "High"
              }
            ]
          }
        ],
        "text": {
          "status": "generated",
          "div": "<div xmlns=\"http://www.w3.org/1999/xhtml\"><table class=\"hl7__eu__lab__report\"><tr><th>Test</th><th>24-Mar-2023</th><th>Reference&#xA0;Range</th><th>Unit</th></tr><tr><td>Ketones [Mass/volume] in Urine by Test strip</td><td>8.9</td><td>0 - 3</td><td>H</td><td>mg/dL</td></tr></table></div>"
        },
        "status": "final",
        "subject": {
          "reference": "urn:uuid:77e9aba5-dbc9-4649-8e49-6bfb5aac646f",
          "display": "Victor Lagarde"
        },
        "effectiveDateTime": "2023-03-24T04:48:18Z",
        "specimen": {
          "reference": "urn:uuid:44e4b1fb-d256-4ec7-9933-d14627a32d49"
        }
      }
    },
    {
      "fullUrl": "urn:uuid:98dbc1a4-8e52-4f5a-8897-3a8564ebe085",
      "resource": {
        "resourceType": "Observation",
        "id": "98dbc1a4-8e52-4f5a-8897-3a8564ebe085",
        "meta": {
          "profile": [
            "http://hl7.eu/fhir/laboratory/StructureDefinition/Observation-resultslab-eu-lab"
          ]
        },
        "performer": [
          {
            "display": "The Central European Lab"
          }
        ],
        "category": [
          {
            "coding": [
              {
                "system": "http://terminology.hl7.org/CodeSystem/observation-category",
                "code": "laboratory"
              }
            ]
          }
        ],
        "code": {
          "coding": [
            {
              "code": "2514-8",
              "system": "http://loinc.org",
              "display": "Ketones [Presence] in Urine by Test strip"
            }
          ],
          "text": "Ketones [Presence] in Urine by Test strip"
        },
        "text": {
          "status": "generated",
          "div": "<div xmlns=\"http://www.w3.org/1999/xhtml\"><table class=\"hl7__eu__lab__report\"><tr><th>Test</th><th>24-Mar-2023</th><th>Reference&#xA0;Range</th><th>Unit</th></tr><tr><td>Ketones [Presence] in Urine by Test strip</td></tr></table></div>"
        },
        "status": "final",
        "subject": {
          "reference": "urn:uuid:77e9aba5-dbc9-4649-8e49-6bfb5aac646f",
          "display": "Victor Lagarde"
        },
        "effectiveDateTime": "2023-03-24T04:48:18Z",
        "specimen": {
          "reference": "urn:uuid:44e4b1fb-d256-4ec7-9933-d14627a32d49"
        }
      }
    },
    {
      "fullUrl": "urn:uuid:e667451d-0eeb-4732-a439-1e904893fc26",
      "resource": {
        "resourceType": "Observation",
        "id": "e667451d-0eeb-4732-a439-1e904893fc26",
        "meta": {
          "profile": [
            "http://hl7.eu/fhir/laboratory/StructureDefinition/Observation-resultslab-eu-lab"
          ]
        },
        "performer": [
          {
            "display": "The Central European Lab"
          }
        ],
        "category": [
          {
            "coding": [
              {
                "system": "http://terminology.hl7.org/CodeSystem/observation-category",
                "code": "laboratory"
              }
            ]
          }
        ],
        "code": {
          "coding": [
            {
              "code": "5811-5",
              "system": "http://loinc.org",
              "display": "Specific gravity of Urine by Test strip"
            }
          ],
          "text": "Specific gravity of Urine by Test strip"
        },
        "valueQuantity": {
          "system": "http://unitsofmeasure.org",
          "value": 1,
          "unit": "{nominal}",
          "code": "{nominal}"
        },
        "referenceRange": [
          {
            "low": {
              "value": 1.01,
              "code": "g/mL",
              "system": "http://unitsofmeasure.org"
            }
          },
          {
            "high": {
              "value": 1.03,
              "code": "g/mL",
              "system": "http://unitsofmeasure.org"
            }
          }
        ],
        "interpretation": [
          {
            "coding": [
              {
                "code": "L",
                "system": "http://terminology.hl7.org/CodeSystem/v3-ObservationInterpretation",
                "display": "Low"
              }
            ]
          }
        ],
        "text": {
          "status": "generated",
          "div": "<div xmlns=\"http://www.w3.org/1999/xhtml\"><table class=\"hl7__eu__lab__report\"><tr><th>Test</th><th>24-Mar-2023</th><th>Reference&#xA0;Range</th><th>Unit</th></tr><tr><td>Specific gravity of Urine by Test strip</td><td>1.0</td><td>1.01 - 1.03</td><td>L</td><td>{nominal}</td></tr></table></div>"
        },
        "status": "final",
        "subject": {
          "reference": "urn:uuid:77e9aba5-dbc9-4649-8e49-6bfb5aac646f",
          "display": "Victor Lagarde"
        },
        "effectiveDateTime": "2023-03-24T04:48:18Z",
        "specimen": {
          "reference": "urn:uuid:44e4b1fb-d256-4ec7-9933-d14627a32d49"
        }
      }
    },
    {
      "fullUrl": "urn:uuid:259a6931-1869-4c96-a3a8-de556a456018",
      "resource": {
        "resourceType": "Observation",
        "id": "259a6931-1869-4c96-a3a8-de556a456018",
        "meta": {
          "profile": [
            "http://hl7.eu/fhir/laboratory/StructureDefinition/Observation-resultslab-eu-lab"
          ]
        },
        "performer": [
          {
            "display": "The Central European Lab"
          }
        ],
        "category": [
          {
            "coding": [
              {
                "system": "http://terminology.hl7.org/CodeSystem/observation-category",
                "code": "laboratory"
              }
            ]
          }
        ],
        "code": {
          "coding": [
            {
              "code": "5803-2",
              "system": "http://loinc.org",
              "display": "pH of Urine by Test strip"
            }
          ],
          "text": "pH of Urine by Test strip"
        },
        "valueQuantity": {
          "system": "http://unitsofmeasure.org",
          "value": 6,
          "unit": "pH",
          "code": "pH"
        },
        "referenceRange": [
          {
            "low": {
              "value": 4.5,
              "code": "pH",
              "system": "http://unitsofmeasure.org"
            }
          },
          {
            "high": {
              "value": 7.5,
              "code": "pH",
              "system": "http://unitsofmeasure.org"
            }
          }
        ],
        "text": {
          "status": "generated",
          "div": "<div xmlns=\"http://www.w3.org/1999/xhtml\"><table class=\"hl7__eu__lab__report\"><tr><th>Test</th><th>24-Mar-2023</th><th>Reference&#xA0;Range</th><th>Unit</th></tr><tr><td>pH of Urine by Test strip</td><td>6.0</td><td>4.5 - 7.5</td><td></td><td>pH</td></tr></table></div>"
        },
        "status": "final",
        "subject": {
          "reference": "urn:uuid:77e9aba5-dbc9-4649-8e49-6bfb5aac646f",
          "display": "Victor Lagarde"
        },
        "effectiveDateTime": "2023-03-24T04:48:18Z",
        "specimen": {
          "reference": "urn:uuid:44e4b1fb-d256-4ec7-9933-d14627a32d49"
        }
      }
    },
    {
      "fullUrl": "urn:uuid:c502eb7f-bec4-470c-907b-6ef74d867317",
      "resource": {
        "resourceType": "Observation",
        "id": "c502eb7f-bec4-470c-907b-6ef74d867317",
        "meta": {
          "profile": [
            "http://hl7.eu/fhir/laboratory/StructureDefinition/Observation-resultslab-eu-lab"
          ]
        },
        "performer": [
          {
            "display": "The Central European Lab"
          }
        ],
        "category": [
          {
            "coding": [
              {
                "system": "http://terminology.hl7.org/CodeSystem/observation-category",
                "code": "laboratory"
              }
            ]
          }
        ],
        "code": {
          "coding": [
            {
              "code": "5804-0",
              "system": "http://loinc.org",
              "display": "Protein [Mass/volume] in Urine by Test strip"
            }
          ],
          "text": "Protein [Mass/volume] in Urine by Test strip"
        },
        "valueQuantity": {
          "system": "http://unitsofmeasure.org",
          "value": 303.7,
          "unit": "mg/dL",
          "code": "mg/dL"
        },
        "referenceRange": [
          {
            "low": {
              "value": 0,
              "code": "mg/dL",
              "system": "http://unitsofmeasure.org"
            }
          },
          {
            "high": {
              "value": 149,
              "code": "mg/dL",
              "system": "http://unitsofmeasure.org"
            }
          }
        ],
        "interpretation": [
          {
            "coding": [
              {
                "code": "H",
                "system": "http://terminology.hl7.org/CodeSystem/v3-ObservationInterpretation",
                "display": "High"
              }
            ]
          }
        ],
        "text": {
          "status": "generated",
          "div": "<div xmlns=\"http://www.w3.org/1999/xhtml\"><table class=\"hl7__eu__lab__report\"><tr><th>Test</th><th>24-Mar-2023</th><th>Reference&#xA0;Range</th><th>Unit</th></tr><tr><td>Protein [Mass/volume] in Urine by Test strip</td><td>303.7</td><td>0 - 149</td><td>H</td><td>mg/dL</td></tr></table></div>"
        },
        "status": "final",
        "subject": {
          "reference": "urn:uuid:77e9aba5-dbc9-4649-8e49-6bfb5aac646f",
          "display": "Victor Lagarde"
        },
        "effectiveDateTime": "2023-03-24T04:48:18Z",
        "specimen": {
          "reference": "urn:uuid:44e4b1fb-d256-4ec7-9933-d14627a32d49"
        }
      }
    },
    {
      "fullUrl": "urn:uuid:3518d676-7a1a-4288-8ea0-7f839da8935a",
      "resource": {
        "resourceType": "Observation",
        "id": "3518d676-7a1a-4288-8ea0-7f839da8935a",
        "meta": {
          "profile": [
            "http://hl7.eu/fhir/laboratory/StructureDefinition/Observation-resultslab-eu-lab"
          ]
        },
        "performer": [
          {
            "display": "The Central European Lab"
          }
        ],
        "category": [
          {
            "coding": [
              {
                "system": "http://terminology.hl7.org/CodeSystem/observation-category",
                "code": "laboratory"
              }
            ]
          }
        ],
        "code": {
          "coding": [
            {
              "code": "20454-5",
              "system": "http://loinc.org",
              "display": "Protein [Presence] in Urine by Test strip"
            }
          ],
          "text": "Protein [Presence] in Urine by Test strip"
        },
        "text": {
          "status": "generated",
          "div": "<div xmlns=\"http://www.w3.org/1999/xhtml\"><table class=\"hl7__eu__lab__report\"><tr><th>Test</th><th>24-Mar-2023</th><th>Reference&#xA0;Range</th><th>Unit</th></tr><tr><td>Protein [Presence] in Urine by Test strip</td></tr></table></div>"
        },
        "status": "final",
        "subject": {
          "reference": "urn:uuid:77e9aba5-dbc9-4649-8e49-6bfb5aac646f",
          "display": "Victor Lagarde"
        },
        "effectiveDateTime": "2023-03-24T04:48:18Z",
        "specimen": {
          "reference": "urn:uuid:44e4b1fb-d256-4ec7-9933-d14627a32d49"
        }
      }
    },
    {
      "fullUrl": "urn:uuid:853c64eb-79f8-4ed1-b77e-72e454ae28d4",
      "resource": {
        "resourceType": "Observation",
        "id": "853c64eb-79f8-4ed1-b77e-72e454ae28d4",
        "meta": {
          "profile": [
            "http://hl7.eu/fhir/laboratory/StructureDefinition/Observation-resultslab-eu-lab"
          ]
        },
        "performer": [
          {
            "display": "The Central European Lab"
          }
        ],
        "category": [
          {
            "coding": [
              {
                "system": "http://terminology.hl7.org/CodeSystem/observation-category",
                "code": "laboratory"
              }
            ]
          }
        ],
        "code": {
          "coding": [
            {
              "code": "5802-4",
              "system": "http://loinc.org",
              "display": "Nitrite [Presence] in Urine by Test strip"
            }
          ],
          "text": "Nitrite [Presence] in Urine by Test strip"
        },
        "text": {
          "status": "generated",
          "div": "<div xmlns=\"http://www.w3.org/1999/xhtml\"><table class=\"hl7__eu__lab__report\"><tr><th>Test</th><th>24-Mar-2023</th><th>Reference&#xA0;Range</th><th>Unit</th></tr><tr><td>Nitrite [Presence] in Urine by Test strip</td></tr></table></div>"
        },
        "status": "final",
        "subject": {
          "reference": "urn:uuid:77e9aba5-dbc9-4649-8e49-6bfb5aac646f",
          "display": "Victor Lagarde"
        },
        "effectiveDateTime": "2023-03-24T04:48:18Z",
        "specimen": {
          "reference": "urn:uuid:44e4b1fb-d256-4ec7-9933-d14627a32d49"
        }
      }
    },
    {
      "fullUrl": "urn:uuid:d0d841cd-3b0c-4908-a06b-91a35f03ddb6",
      "resource": {
        "resourceType": "Observation",
        "id": "d0d841cd-3b0c-4908-a06b-91a35f03ddb6",
        "meta": {
          "profile": [
            "http://hl7.eu/fhir/laboratory/StructureDefinition/Observation-resultslab-eu-lab"
          ]
        },
        "performer": [
          {
            "display": "The Central European Lab"
          }
        ],
        "category": [
          {
            "coding": [
              {
                "system": "http://terminology.hl7.org/CodeSystem/observation-category",
                "code": "laboratory"
              }
            ]
          }
        ],
        "code": {
          "coding": [
            {
              "code": "5794-3",
              "system": "http://loinc.org",
              "display": "Hemoglobin [Presence] in Urine by Test strip"
            }
          ],
          "text": "Hemoglobin [Presence] in Urine by Test strip"
        },
        "text": {
          "status": "generated",
          "div": "<div xmlns=\"http://www.w3.org/1999/xhtml\"><table class=\"hl7__eu__lab__report\"><tr><th>Test</th><th>24-Mar-2023</th><th>Reference&#xA0;Range</th><th>Unit</th></tr><tr><td>Hemoglobin [Presence] in Urine by Test strip</td></tr></table></div>"
        },
        "status": "final",
        "subject": {
          "reference": "urn:uuid:77e9aba5-dbc9-4649-8e49-6bfb5aac646f",
          "display": "Victor Lagarde"
        },
        "effectiveDateTime": "2023-03-24T04:48:18Z",
        "specimen": {
          "reference": "urn:uuid:44e4b1fb-d256-4ec7-9933-d14627a32d49"
        }
      }
    },
    {
      "fullUrl": "urn:uuid:7c9fe1fd-ffdd-4198-804e-ddab14bc4a0f",
      "resource": {
        "resourceType": "Observation",
        "id": "7c9fe1fd-ffdd-4198-804e-ddab14bc4a0f",
        "meta": {
          "profile": [
            "http://hl7.eu/fhir/laboratory/StructureDefinition/Observation-resultslab-eu-lab"
          ]
        },
        "performer": [
          {
            "display": "The Central European Lab"
          }
        ],
        "category": [
          {
            "coding": [
              {
                "system": "http://terminology.hl7.org/CodeSystem/observation-category",
                "code": "laboratory"
              }
            ]
          }
        ],
        "code": {
          "coding": [
            {
              "code": "5799-2",
              "system": "http://loinc.org",
              "display": "Leukocyte esterase [Presence] in Urine by Test strip"
            }
          ],
          "text": "Leukocyte esterase [Presence] in Urine by Test strip"
        },
        "text": {
          "status": "generated",
          "div": "<div xmlns=\"http://www.w3.org/1999/xhtml\"><table class=\"hl7__eu__lab__report\"><tr><th>Test</th><th>24-Mar-2023</th><th>Reference&#xA0;Range</th><th>Unit</th></tr><tr><td>Leukocyte esterase [Presence] in Urine by Test strip</td></tr></table></div>"
        },
        "status": "final",
        "subject": {
          "reference": "urn:uuid:77e9aba5-dbc9-4649-8e49-6bfb5aac646f",
          "display": "Victor Lagarde"
        },
        "effectiveDateTime": "2023-03-24T04:48:18Z",
        "specimen": {
          "reference": "urn:uuid:44e4b1fb-d256-4ec7-9933-d14627a32d49"
        }
      }
    },
    {
      "fullUrl": "urn:uuid:4346ccac-abab-4b93-948c-1982f075c7c7",
      "resource": {
        "resourceType": "Observation",
        "id": "4346ccac-abab-4b93-948c-1982f075c7c7",
        "meta": {
          "profile": [
            "http://hl7.eu/fhir/laboratory/StructureDefinition/Observation-resultslab-eu-lab"
          ]
        },
        "performer": [
          {
            "display": "The Central European Lab"
          }
        ],
        "category": [
          {
            "coding": [
              {
                "system": "http://terminology.hl7.org/CodeSystem/observation-category",
                "code": "laboratory"
              }
            ]
          }
        ],
        "code": {
          "coding": [
            {
              "code": "4548-4",
              "system": "http://loinc.org",
              "display": "Hemoglobin A1c/Hemoglobin.total in Blood"
            }
          ],
          "text": "Hemoglobin A1c/Hemoglobin.total in Blood"
        },
        "valueQuantity": {
          "system": "http://unitsofmeasure.org",
          "value": 3.2,
          "unit": "%",
          "code": "%"
        },
        "referenceRange": [
          {
            "low": {
              "value": 4.3,
              "code": "%",
              "system": "http://unitsofmeasure.org"
            }
          },
          {
            "high": {
              "value": 6,
              "code": "%",
              "system": "http://unitsofmeasure.org"
            }
          }
        ],
        "interpretation": [
          {
            "coding": [
              {
                "code": "L",
                "system": "http://terminology.hl7.org/CodeSystem/v3-ObservationInterpretation",
                "display": "Low"
              }
            ]
          }
        ],
        "text": {
          "status": "generated",
          "div": "<div xmlns=\"http://www.w3.org/1999/xhtml\"><table class=\"hl7__eu__lab__report\"><tr><th>Test</th><th>24-Mar-2023</th><th>Reference&#xA0;Range</th><th>Unit</th></tr><tr><td>Hemoglobin A1c/Hemoglobin.total in Blood</td><td>3.2</td><td>4.3 - 6</td><td>L</td><td>%</td></tr></table></div>"
        },
        "status": "final",
        "subject": {
          "reference": "urn:uuid:77e9aba5-dbc9-4649-8e49-6bfb5aac646f",
          "display": "Victor Lagarde"
        },
        "effectiveDateTime": "2023-03-24T04:48:18Z",
        "specimen": {
          "reference": "urn:uuid:b781187d-5d9a-4afc-a9d1-7f4f5a1daabf"
        }
      }
    },
    {
      "fullUrl": "urn:uuid:bb0f19c6-7a0f-4889-8320-535702782829",
      "resource": {
        "resourceType": "Observation",
        "id": "bb0f19c6-7a0f-4889-8320-535702782829",
        "meta": {
          "profile": [
            "http://hl7.eu/fhir/laboratory/StructureDefinition/Observation-resultslab-eu-lab"
          ]
        },
        "performer": [
          {
            "display": "The Central European Lab"
          }
        ],
        "category": [
          {
            "coding": [
              {
                "system": "http://terminology.hl7.org/CodeSystem/observation-category",
                "code": "laboratory"
              }
            ]
          }
        ],
        "code": {
          "coding": [
            {
              "code": "2339-0",
              "system": "http://loinc.org",
              "display": "Glucose [Mass/volume] in Blood"
            }
          ],
          "text": "Glucose [Mass/volume] in Blood"
        },
        "valueQuantity": {
          "system": "http://unitsofmeasure.org",
          "value": 66,
          "unit": "mg/dL",
          "code": "mg/dL"
        },
        "referenceRange": [
          {
            "low": {
              "value": 70,
              "code": "mg/dL",
              "system": "http://unitsofmeasure.org"
            }
          },
          {
            "high": {
              "value": 140,
              "code": "mg/dL",
              "system": "http://unitsofmeasure.org"
            }
          }
        ],
        "interpretation": [
          {
            "coding": [
              {
                "code": "L",
                "system": "http://terminology.hl7.org/CodeSystem/v3-ObservationInterpretation",
                "display": "Low"
              }
            ]
          }
        ],
        "text": {
          "status": "generated",
          "div": "<div xmlns=\"http://www.w3.org/1999/xhtml\"><table class=\"hl7__eu__lab__report\"><tr><th>Test</th><th>24-Mar-2023</th><th>Reference&#xA0;Range</th><th>Unit</th></tr><tr><td>Glucose [Mass/volume] in Blood</td><td>66.0</td><td>70 - 140</td><td>L</td><td>mg/dL</td></tr></table></div>"
        },
        "status": "final",
        "subject": {
          "reference": "urn:uuid:77e9aba5-dbc9-4649-8e49-6bfb5aac646f",
          "display": "Victor Lagarde"
        },
        "effectiveDateTime": "2023-03-24T04:48:18Z",
        "specimen": {
          "reference": "urn:uuid:b781187d-5d9a-4afc-a9d1-7f4f5a1daabf"
        }
      }
    },
    {
      "fullUrl": "urn:uuid:86b9f0ed-0ec3-449c-84b0-8b9f721a3724",
      "resource": {
        "resourceType": "Observation",
        "id": "86b9f0ed-0ec3-449c-84b0-8b9f721a3724",
        "meta": {
          "profile": [
            "http://hl7.eu/fhir/laboratory/StructureDefinition/Observation-resultslab-eu-lab"
          ]
        },
        "performer": [
          {
            "display": "The Central European Lab"
          }
        ],
        "category": [
          {
            "coding": [
              {
                "system": "http://terminology.hl7.org/CodeSystem/observation-category",
                "code": "laboratory"
              }
            ]
          }
        ],
        "code": {
          "coding": [
            {
              "code": "6299-2",
              "system": "http://loinc.org",
              "display": "Urea nitrogen [Mass/volume] in Blood"
            }
          ],
          "text": "Urea nitrogen [Mass/volume] in Blood"
        },
        "valueQuantity": {
          "system": "http://unitsofmeasure.org",
          "value": 15.8,
          "unit": "mg/dL",
          "code": "mg/dL"
        },
        "referenceRange": [
          {
            "low": {
              "value": 7,
              "code": "mg/dL",
              "system": "http://unitsofmeasure.org"
            }
          },
          {
            "high": {
              "value": 20,
              "code": "mg/dL",
              "system": "http://unitsofmeasure.org"
            }
          }
        ],
        "text": {
          "status": "generated",
          "div": "<div xmlns=\"http://www.w3.org/1999/xhtml\"><table class=\"hl7__eu__lab__report\"><tr><th>Test</th><th>24-Mar-2023</th><th>Reference&#xA0;Range</th><th>Unit</th></tr><tr><td>Urea nitrogen [Mass/volume] in Blood</td><td>15.8</td><td>7 - 20</td><td></td><td>mg/dL</td></tr></table></div>"
        },
        "status": "final",
        "subject": {
          "reference": "urn:uuid:77e9aba5-dbc9-4649-8e49-6bfb5aac646f",
          "display": "Victor Lagarde"
        },
        "effectiveDateTime": "2023-03-24T04:48:18Z",
        "specimen": {
          "reference": "urn:uuid:b781187d-5d9a-4afc-a9d1-7f4f5a1daabf"
        }
      }
    },
    {
      "fullUrl": "urn:uuid:d3517354-74de-4566-9a9d-bdf276d64000",
      "resource": {
        "resourceType": "Observation",
        "id": "d3517354-74de-4566-9a9d-bdf276d64000",
        "meta": {
          "profile": [
            "http://hl7.eu/fhir/laboratory/StructureDefinition/Observation-resultslab-eu-lab"
          ]
        },
        "performer": [
          {
            "display": "The Central European Lab"
          }
        ],
        "category": [
          {
            "coding": [
              {
                "system": "http://terminology.hl7.org/CodeSystem/observation-category",
                "code": "laboratory"
              }
            ]
          }
        ],
        "code": {
          "coding": [
            {
              "code": "38483-4",
              "system": "http://loinc.org",
              "display": "Creatinine [Mass/volume] in Blood"
            }
          ],
          "text": "Creatinine [Mass/volume] in Blood"
        },
        "valueQuantity": {
          "system": "http://unitsofmeasure.org",
          "value": 4.5,
          "unit": "mg/dL",
          "code": "mg/dL"
        },
        "referenceRange": [
          {
            "low": {
              "value": 0.9,
              "code": "mg/dL",
              "system": "http://unitsofmeasure.org"
            }
          },
          {
            "high": {
              "value": 1.3,
              "code": "mg/dL",
              "system": "http://unitsofmeasure.org"
            }
          }
        ],
        "interpretation": [
          {
            "coding": [
              {
                "code": "H",
                "system": "http://terminology.hl7.org/CodeSystem/v3-ObservationInterpretation",
                "display": "High"
              }
            ]
          }
        ],
        "text": {
          "status": "generated",
          "div": "<div xmlns=\"http://www.w3.org/1999/xhtml\"><table class=\"hl7__eu__lab__report\"><tr><th>Test</th><th>24-Mar-2023</th><th>Reference&#xA0;Range</th><th>Unit</th></tr><tr><td>Creatinine [Mass/volume] in Blood</td><td>4.5</td><td>0.9 - 1.3</td><td>H</td><td>mg/dL</td></tr></table></div>"
        },
        "status": "final",
        "subject": {
          "reference": "urn:uuid:77e9aba5-dbc9-4649-8e49-6bfb5aac646f",
          "display": "Victor Lagarde"
        },
        "effectiveDateTime": "2023-03-24T04:48:18Z",
        "specimen": {
          "reference": "urn:uuid:b781187d-5d9a-4afc-a9d1-7f4f5a1daabf"
        }
      }
    },
    {
      "fullUrl": "urn:uuid:43215a11-01d8-4e90-a475-59871ea35f2c",
      "resource": {
        "resourceType": "Observation",
        "id": "43215a11-01d8-4e90-a475-59871ea35f2c",
        "meta": {
          "profile": [
            "http://hl7.eu/fhir/laboratory/StructureDefinition/Observation-resultslab-eu-lab"
          ]
        },
        "performer": [
          {
            "display": "The Central European Lab"
          }
        ],
        "category": [
          {
            "coding": [
              {
                "system": "http://terminology.hl7.org/CodeSystem/observation-category",
                "code": "laboratory"
              }
            ]
          }
        ],
        "code": {
          "coding": [
            {
              "code": "49765-1",
              "system": "http://loinc.org",
              "display": "Calcium [Mass/volume] in Blood"
            }
          ],
          "text": "Calcium [Mass/volume] in Blood"
        },
        "valueQuantity": {
          "system": "http://unitsofmeasure.org",
          "value": 8.6,
          "unit": "mg/dL",
          "code": "mg/dL"
        },
        "referenceRange": [
          {
            "low": {
              "value": 8.5,
              "code": "mg/dL",
              "system": "http://unitsofmeasure.org"
            }
          },
          {
            "high": {
              "value": 10.5,
              "code": "mg/dL",
              "system": "http://unitsofmeasure.org"
            }
          }
        ],
        "text": {
          "status": "generated",
          "div": "<div xmlns=\"http://www.w3.org/1999/xhtml\"><table class=\"hl7__eu__lab__report\"><tr><th>Test</th><th>24-Mar-2023</th><th>Reference&#xA0;Range</th><th>Unit</th></tr><tr><td>Calcium [Mass/volume] in Blood</td><td>8.6</td><td>8.5 - 10.5</td><td></td><td>mg/dL</td></tr></table></div>"
        },
        "status": "final",
        "subject": {
          "reference": "urn:uuid:77e9aba5-dbc9-4649-8e49-6bfb5aac646f",
          "display": "Victor Lagarde"
        },
        "effectiveDateTime": "2023-03-24T04:48:18Z",
        "specimen": {
          "reference": "urn:uuid:b781187d-5d9a-4afc-a9d1-7f4f5a1daabf"
        }
      }
    },
    {
      "fullUrl": "urn:uuid:eb46dc2e-5783-4d9e-9374-51c5a784d13b",
      "resource": {
        "resourceType": "Observation",
        "id": "eb46dc2e-5783-4d9e-9374-51c5a784d13b",
        "meta": {
          "profile": [
            "http://hl7.eu/fhir/laboratory/StructureDefinition/Observation-resultslab-eu-lab"
          ]
        },
        "performer": [
          {
            "display": "The Central European Lab"
          }
        ],
        "category": [
          {
            "coding": [
              {
                "system": "http://terminology.hl7.org/CodeSystem/observation-category",
                "code": "laboratory"
              }
            ]
          }
        ],
        "code": {
          "coding": [
            {
              "code": "2947-0",
              "system": "http://loinc.org",
              "display": "Sodium [Moles/volume] in Blood"
            }
          ],
          "text": "Sodium [Moles/volume] in Blood"
        },
        "valueQuantity": {
          "system": "http://unitsofmeasure.org",
          "value": 142.8,
          "unit": "mmol/L",
          "code": "mmol/L"
        },
        "referenceRange": [
          {
            "low": {
              "value": 135,
              "code": "mmol/L",
              "system": "http://unitsofmeasure.org"
            }
          },
          {
            "high": {
              "value": 145,
              "code": "mmol/L",
              "system": "http://unitsofmeasure.org"
            }
          }
        ],
        "text": {
          "status": "generated",
          "div": "<div xmlns=\"http://www.w3.org/1999/xhtml\"><table class=\"hl7__eu__lab__report\"><tr><th>Test</th><th>24-Mar-2023</th><th>Reference&#xA0;Range</th><th>Unit</th></tr><tr><td>Sodium [Moles/volume] in Blood</td><td>142.8</td><td>135 - 145</td><td></td><td>mmol/L</td></tr></table></div>"
        },
        "status": "final",
        "subject": {
          "reference": "urn:uuid:77e9aba5-dbc9-4649-8e49-6bfb5aac646f",
          "display": "Victor Lagarde"
        },
        "effectiveDateTime": "2023-03-24T04:48:18Z",
        "specimen": {
          "reference": "urn:uuid:b781187d-5d9a-4afc-a9d1-7f4f5a1daabf"
        }
      }
    },
    {
      "fullUrl": "urn:uuid:66c14d5d-d2e3-49ef-b6b5-16822c30f133",
      "resource": {
        "resourceType": "Observation",
        "id": "66c14d5d-d2e3-49ef-b6b5-16822c30f133",
        "meta": {
          "profile": [
            "http://hl7.eu/fhir/laboratory/StructureDefinition/Observation-resultslab-eu-lab"
          ]
        },
        "performer": [
          {
            "display": "The Central European Lab"
          }
        ],
        "category": [
          {
            "coding": [
              {
                "system": "http://terminology.hl7.org/CodeSystem/observation-category",
                "code": "laboratory"
              }
            ]
          }
        ],
        "code": {
          "coding": [
            {
              "code": "6298-4",
              "system": "http://loinc.org",
              "display": "Potassium [Moles/volume] in Blood"
            }
          ],
          "text": "Potassium [Moles/volume] in Blood"
        },
        "valueQuantity": {
          "system": "http://unitsofmeasure.org",
          "value": 5.2,
          "unit": "mmol/L",
          "code": "mmol/L"
        },
        "referenceRange": [
          {
            "low": {
              "value": 3.5,
              "code": "mmol/L",
              "system": "http://unitsofmeasure.org"
            }
          },
          {
            "high": {
              "value": 5.1,
              "code": "mmol/L",
              "system": "http://unitsofmeasure.org"
            }
          }
        ],
        "interpretation": [
          {
            "coding": [
              {
                "code": "H",
                "system": "http://terminology.hl7.org/CodeSystem/v3-ObservationInterpretation",
                "display": "High"
              }
            ]
          }
        ],
        "text": {
          "status": "generated",
          "div": "<div xmlns=\"http://www.w3.org/1999/xhtml\"><table class=\"hl7__eu__lab__report\"><tr><th>Test</th><th>24-Mar-2023</th><th>Reference&#xA0;Range</th><th>Unit</th></tr><tr><td>Potassium [Moles/volume] in Blood</td><td>5.2</td><td>3.5 - 5.1</td><td>H</td><td>mmol/L</td></tr></table></div>"
        },
        "status": "final",
        "subject": {
          "reference": "urn:uuid:77e9aba5-dbc9-4649-8e49-6bfb5aac646f",
          "display": "Victor Lagarde"
        },
        "effectiveDateTime": "2023-03-24T04:48:18Z",
        "specimen": {
          "reference": "urn:uuid:b781187d-5d9a-4afc-a9d1-7f4f5a1daabf"
        }
      }
    },
    {
      "fullUrl": "urn:uuid:d0a99b0b-d1b5-4cde-8f49-7493a6da55a7",
      "resource": {
        "resourceType": "Observation",
        "id": "d0a99b0b-d1b5-4cde-8f49-7493a6da55a7",
        "meta": {
          "profile": [
            "http://hl7.eu/fhir/laboratory/StructureDefinition/Observation-resultslab-eu-lab"
          ]
        },
        "performer": [
          {
            "display": "The Central European Lab"
          }
        ],
        "category": [
          {
            "coding": [
              {
                "system": "http://terminology.hl7.org/CodeSystem/observation-category",
                "code": "laboratory"
              }
            ]
          }
        ],
        "code": {
          "coding": [
            {
              "code": "2069-3",
              "system": "http://loinc.org",
              "display": "Chloride [Moles/volume] in Blood"
            }
          ],
          "text": "Chloride [Moles/volume] in Blood"
        },
        "valueQuantity": {
          "system": "http://unitsofmeasure.org",
          "value": 110.2,
          "unit": "mmol/L",
          "code": "mmol/L"
        },
        "referenceRange": [
          {
            "low": {
              "value": 98,
              "code": "mmol/L",
              "system": "http://unitsofmeasure.org"
            }
          },
          {
            "high": {
              "value": 108,
              "code": "mmol/L",
              "system": "http://unitsofmeasure.org"
            }
          }
        ],
        "interpretation": [
          {
            "coding": [
              {
                "code": "H",
                "system": "http://terminology.hl7.org/CodeSystem/v3-ObservationInterpretation",
                "display": "High"
              }
            ]
          }
        ],
        "text": {
          "status": "generated",
          "div": "<div xmlns=\"http://www.w3.org/1999/xhtml\"><table class=\"hl7__eu__lab__report\"><tr><th>Test</th><th>24-Mar-2023</th><th>Reference&#xA0;Range</th><th>Unit</th></tr><tr><td>Chloride [Moles/volume] in Blood</td><td>110.2</td><td>98 - 108</td><td>H</td><td>mmol/L</td></tr></table></div>"
        },
        "status": "final",
        "subject": {
          "reference": "urn:uuid:77e9aba5-dbc9-4649-8e49-6bfb5aac646f",
          "display": "Victor Lagarde"
        },
        "effectiveDateTime": "2023-03-24T04:48:18Z",
        "specimen": {
          "reference": "urn:uuid:b781187d-5d9a-4afc-a9d1-7f4f5a1daabf"
        }
      }
    },
    {
      "fullUrl": "urn:uuid:c5e786b7-51c0-4781-9bad-8c0121185d29",
      "resource": {
        "resourceType": "Observation",
        "id": "c5e786b7-51c0-4781-9bad-8c0121185d29",
        "meta": {
          "profile": [
            "http://hl7.eu/fhir/laboratory/StructureDefinition/Observation-resultslab-eu-lab"
          ]
        },
        "performer": [
          {
            "display": "The Central European Lab"
          }
        ],
        "category": [
          {
            "coding": [
              {
                "system": "http://terminology.hl7.org/CodeSystem/observation-category",
                "code": "laboratory"
              }
            ]
          }
        ],
        "code": {
          "coding": [
            {
              "code": "20565-8",
              "system": "http://loinc.org",
              "display": "Carbon dioxide, total [Moles/volume] in Blood"
            }
          ],
          "text": "Carbon dioxide, total [Moles/volume] in Blood"
        },
        "valueQuantity": {
          "system": "http://unitsofmeasure.org",
          "value": 29,
          "unit": "mmol/L",
          "code": "mmol/L"
        },
        "referenceRange": [
          {
            "low": {
              "value": 22,
              "code": "mmol/L",
              "system": "http://unitsofmeasure.org"
            }
          },
          {
            "high": {
              "value": 29,
              "code": "mmol/L",
              "system": "http://unitsofmeasure.org"
            }
          }
        ],
        "text": {
          "status": "generated",
          "div": "<div xmlns=\"http://www.w3.org/1999/xhtml\"><table class=\"hl7__eu__lab__report\"><tr><th>Test</th><th>24-Mar-2023</th><th>Reference&#xA0;Range</th><th>Unit</th></tr><tr><td>Carbon dioxide, total [Moles/volume] in Blood</td><td>29.0</td><td>22 - 29</td><td></td><td>mmol/L</td></tr></table></div>"
        },
        "status": "final",
        "subject": {
          "reference": "urn:uuid:77e9aba5-dbc9-4649-8e49-6bfb5aac646f",
          "display": "Victor Lagarde"
        },
        "effectiveDateTime": "2023-03-24T04:48:18Z",
        "specimen": {
          "reference": "urn:uuid:b781187d-5d9a-4afc-a9d1-7f4f5a1daabf"
        }
      }
    },
    {
      "fullUrl": "urn:uuid:d2d48416-24b2-488b-84f6-66137e7d5213",
      "resource": {
        "resourceType": "Device",
        "id": "d2d48416-24b2-488b-84f6-66137e7d5213",
        "deviceName": [
          {
            "name": "SYNDERAI Synthetic Generator",
            "type": "manufacturer-name"
          }
        ],
        "version": [
          {
            "value": "5.0"
          }
        ],
        "text": {
          "status": "generated",
          "div": "<div xmlns=\"http://www.w3.org/1999/xhtml\">SYNDERAI Synthetic Generator v5.0</div>"
        },
        "status": "active\"",
        "distinctIdentifier": "synderai-generator-50",
        "manufacturer": "SYNDERAI Project"
      }
    },
    {
      "fullUrl": "urn:uuid:5b2753b5-fdb0-4168-8c54-818aded27a22",
      "resource": {
        "resourceType": "Provenance",
        "id": "5b2753b5-fdb0-4168-8c54-818aded27a22",
        "target": [
          {
            "reference": "Patient/77e9aba5-dbc9-4649-8e49-6bfb5aac646f"
          },
          {
            "reference": "Bundle/96bb676b-9537-41cf-aff5-46f229befbd0"
          },
          {
            "reference": "Composition/d06466b8-74cc-4b5b-9e9e-44ed37a73e1e"
          },
          {
            "reference": "PractitionerRole/5d01b025-33a9-46a7-8a0d-fe32dd1705b2"
          },
          {
            "reference": "Practitioner/89d0b135-e9d9-4c04-b5cb-4f2cef6a9384"
          },
          {
            "reference": "PractitionerRole/86e2012e-4acf-406a-bbc7-4a38f113bc6d"
          },
          {
            "reference": "Organization/36363570-dd34-4ecf-9333-4ec5882a4de4"
          }
        ],
        "activity": {
          "text": "Synthetic Example Data Generation"
        },
        "policy": [
          "https://synderai.net/synderai-synthetic-data-policy"
        ],
        "agent": [
          {
            "type": {
              "text": "author"
            },
            "who": {
              "reference": "Device/d2d48416-24b2-488b-84f6-66137e7d5213"
            }
          }
        ],
        "reason": [
          {
            "text": "Interoperability Testing and Training (non-clinical use)"
          }
        ],
        "text": {
          "status": "generated",
          "div": "<div xmlns=\"http://www.w3.org/1999/xhtml\">Provenance for SYNDERAI Synthetic Example Data Resource</div>"
        },
        "recorded": "2023-03-24T05:48:18Z"
      }
    },
    {
      "fullUrl": "urn:uuid:5d01b025-33a9-46a7-8a0d-fe32dd1705b2",
      "resource": {
        "resourceType": "PractitionerRole",
        "id": "5d01b025-33a9-46a7-8a0d-fe32dd1705b2",
        "meta": {
          "profile": [
            "http://hl7.eu/fhir/base/StructureDefinition/practitionerRole-eu"
          ]
        },
        "text": {
          "status": "generated",
          "div": "<div xmlns=\"http://www.w3.org/1999/xhtml\">Laboratory Role Id: 5d01b025-33a9-46a7-8a0d-fe32dd1705b2</div>"
        },
        "practitioner": {
          "reference": "urn:uuid:89d0b135-e9d9-4c04-b5cb-4f2cef6a9384"
        }
      }
    },
    {
      "fullUrl": "urn:uuid:89d0b135-e9d9-4c04-b5cb-4f2cef6a9384",
      "resource": {
        "resourceType": "Practitioner",
        "id": "89d0b135-e9d9-4c04-b5cb-4f2cef6a9384",
        "meta": {
          "profile": [
            "http://hl7.eu/fhir/base/StructureDefinition/practitioner-eu"
          ]
        },
        "identifier": [
          {
            "assigner": {
              "display": "HL7 Europe"
            },
            "system": "urn:oid:2.16.840.1.113883.2.51.999",
            "value": "af11faf5-39c0-4311-a71a-62eff1985b98"
          }
        ],
        "name": [
          {
            "prefix": [
              "dr"
            ],
            "given": [
              "Ex"
            ],
            "family": "Ample"
          }
        ],
        "address": [
          {
            "line": [
              "Laboratoire Central Européenne",
              "Boulevard du Jardin Botanique 32"
            ],
            "postalCode": "1000",
            "city": "Brussels",
            "country": "Belgium"
          }
        ],
        "text": {
          "status": "generated",
          "div": "<div xmlns=\"http://www.w3.org/1999/xhtml\">Laboratory: Laboratoire Central Européenne, 1000 Brussels, Belgium</div>"
        }
      }
    }
  ],
  "type": "document",
  "timestamp": "2023-03-24T05:48:18Z"
}
