{
  "resourceType": "Bundle",
  "id": "e9a60e7c-b00b-4173-a3be-aa5a9884e711",
  "meta": {
    "profile": [
      "http://hl7.eu/fhir/laboratory/StructureDefinition/Bundle-eu-lab"
    ]
  },
  "identifier": {
    "assigner": {
      "display": "HL7 Europe"
    },
    "system": "urn:oid:2.16.840.1.113883.2.51.999",
    "value": "f7cec8ed-8d81-4fd4-bce5-959476010665"
  },
  "entry": [
    {
      "fullUrl": "urn:uuid:9e741111-d275-499a-ac7d-37fe21bea3b3",
      "resource": {
        "resourceType": "Composition",
        "id": "9e741111-d275-499a-ac7d-37fe21bea3b3",
        "meta": {
          "profile": [
            "http://hl7.eu/fhir/laboratory/StructureDefinition/Composition-eu-lab"
          ]
        },
        "identifier": {
          "assigner": {
            "display": "HL7 Europe"
          },
          "system": "urn:oid:2.16.840.1.113883.2.51.999",
          "value": "ef295d16-bc82-4336-a2a2-b317ee6583ce"
        },
        "author": [
          {
            "reference": "urn:uuid:ececd6f5-d056-41cb-ba51-6991df25d5d5"
          }
        ],
        "category": [
          {
            "coding": [
              {
                "code": "26436-6",
                "system": "http://loinc.org",
                "display": "Laboratory studies (set)"
              }
            ]
          }
        ],
        "type": {
          "coding": [
            {
              "code": "11502-2",
              "system": "http://loinc.org",
              "display": "Laboratory report"
            }
          ],
          "text": "Laboratory Report"
        },
        "section": [
          {
            "code": {
              "coding": [
                {
                  "code": "26436-6",
                  "system": "http://loinc.org",
                  "display": "Laboratory studies (set)"
                }
              ],
              "text": "Laboratory studies"
            },
            "section": [
              {
                "code": {
                  "coding": [
                    {
                      "code": "$18723-7",
                      "system": "http://loinc.org",
                      "display": "Hematology studies (set)"
                    }
                  ],
                  "text": "Hematology"
                },
                "entry": [
                  {
                    "reference": "urn:uuid:73231a88-53d7-4f32-a9c0-5657ba85f9b0"
                  },
                  {
                    "reference": "urn:uuid:25109b27-323e-4bc3-bb96-622cb6b6d664"
                  },
                  {
                    "reference": "urn:uuid:7859ae1e-7b9a-4bd3-af08-fa96fe167a08"
                  },
                  {
                    "reference": "urn:uuid:2a0941d9-1f06-4c7d-abfa-dad61efa951c"
                  },
                  {
                    "reference": "urn:uuid:8c38864d-82e9-4a69-a420-4d444aa864a3"
                  },
                  {
                    "reference": "urn:uuid:e20c322d-1caf-4de8-a4f1-daeb25acac11"
                  },
                  {
                    "reference": "urn:uuid:5bae460d-c1ed-4a4c-9ff0-61587f7081b5"
                  },
                  {
                    "reference": "urn:uuid:be93f11b-6f21-4cef-bd24-df27bf11fca1"
                  },
                  {
                    "reference": "urn:uuid:4873760c-fef7-4957-b294-fd1b520be46c"
                  },
                  {
                    "reference": "urn:uuid:3686f601-7f1a-4b3d-baf9-b8361bc9762d"
                  },
                  {
                    "reference": "urn:uuid:2b364baa-7ab8-4705-b5aa-bab22e84b2aa"
                  }
                ],
                "text": {
                  "status": "generated",
                  "div": "<div xmlns=\"http://www.w3.org/1999/xhtml\"><h3>Hematology</h3><table class=\"hl7__eu__lab__report\"><thead><tr><th>Test</th><th>22-JUL-2021</th><th>Reference&#xA0;Range</th><th>Unit</th></tr></thead><tbody><tr><td>Leukocytes [#/volume] in Blood by Automated count</td><td>6.1</td><td>3.6 - 10.5</td><td>10*3/uL</td></tr><tr><td>Erythrocytes [#/volume] in Blood by Automated count</td><td><strong>4.2 L</strong></td><td>4.5 - 5</td><td>10*6/uL</td></tr><tr><td>Hemoglobin [Mass/volume] in Blood</td><td>13.3</td><td>12 - 15.5</td><td>g/dL</td></tr><tr><td>Hematocrit [Volume Fraction] of Blood by Automated count</td><td>37.1</td><td>37 - 52</td><td>%</td></tr><tr><td>MCV [Entitic volume] by Automated count</td><td>93.3</td><td>82 - 98</td><td>fL</td></tr><tr><td>MCH [Entitic mass] by Automated count</td><td>28.3</td><td>27 - 34.5</td><td>pg</td></tr><tr><td>MCHC [Mass/volume] by Automated count</td><td>34.5</td><td>32 - 37</td><td>g/dL</td></tr><tr><td>Erythrocyte distribution width [Entitic volume] by Automated count</td><td>43.7</td><td>36 - 55</td><td>fL</td></tr><tr><td>Platelets [#/volume] in Blood by Automated count</td><td>380.2</td><td>150 - 400</td><td>10*3/uL</td></tr><tr><td>Platelet distribution width [Entitic volume] in Blood by Automated count</td><td><strong>297.8 H</strong></td><td>11.6 - 17.4</td><td>fL</td></tr><tr><td>Platelet mean volume [Entitic volume] in Blood by Automated count</td><td>11.5</td><td>7.2 - 13.5</td><td>fL</td></tr></tbody></table></div>"
                },
                "title": "Hematology"
              },
              {
                "code": {
                  "coding": [
                    {
                      "code": "$18719-5",
                      "system": "http://loinc.org",
                      "display": "Chemistry studies (set)"
                    }
                  ],
                  "text": "Chemistry"
                },
                "entry": [
                  {
                    "reference": "urn:uuid:4dbfb2af-ceaa-49aa-837e-11acc8228fd1"
                  },
                  {
                    "reference": "urn:uuid:4cef8b86-f3f0-4d14-95f5-1b8c9914112d"
                  },
                  {
                    "reference": "urn:uuid:6edc4650-615a-4909-b896-2185a4833c6d"
                  },
                  {
                    "reference": "urn:uuid:dab628c0-097b-4f38-8da5-489419fdf0db"
                  },
                  {
                    "reference": "urn:uuid:bfad7221-7801-4aa8-916f-0daca641daba"
                  },
                  {
                    "reference": "urn:uuid:22f1f293-d6eb-444f-b8a4-c60ecb3b0950"
                  },
                  {
                    "reference": "urn:uuid:b8da7cbe-426e-41c6-9867-4ee05e2a4bb4"
                  },
                  {
                    "reference": "urn:uuid:147cc6b1-9225-4d2d-92d9-ca5ee626566b"
                  },
                  {
                    "reference": "urn:uuid:358e0a29-905a-416b-a8a7-4092c7e2d919"
                  },
                  {
                    "reference": "urn:uuid:dd3b3abf-ea45-4bab-9ae4-d6bba9002f8a"
                  },
                  {
                    "reference": "urn:uuid:5ce487d2-6fd7-4998-b421-50ddd7f4c070"
                  },
                  {
                    "reference": "urn:uuid:e38ef3a1-6136-4ccf-9c07-bc260e523733"
                  },
                  {
                    "reference": "urn:uuid:016fca29-2a4d-4e65-b42a-1d1189524818"
                  },
                  {
                    "reference": "urn:uuid:8d506094-ec6a-4f6d-850f-56d5b8c8a01a"
                  },
                  {
                    "reference": "urn:uuid:774a3e93-637f-4f87-a5ed-a2ba5885c27d"
                  },
                  {
                    "reference": "urn:uuid:b8cb94a3-b0c9-45f0-a175-89604d2ff1bc"
                  },
                  {
                    "reference": "urn:uuid:776f1921-3ae8-4c96-bdca-8a532b1c11a2"
                  },
                  {
                    "reference": "urn:uuid:93871b72-6e54-4940-be98-8acc0a705725"
                  },
                  {
                    "reference": "urn:uuid:edb2920c-88b6-4395-ab0e-d6045aed0bb1"
                  },
                  {
                    "reference": "urn:uuid:e87ad98e-819f-4bde-8199-3abfb4506538"
                  },
                  {
                    "reference": "urn:uuid:f9e1edf4-f39d-476b-9bdc-e48ec704f55f"
                  },
                  {
                    "reference": "urn:uuid:cce437a6-c1e7-4a4b-95dd-356bb7812626"
                  }
                ],
                "text": {
                  "status": "generated",
                  "div": "<div xmlns=\"http://www.w3.org/1999/xhtml\"><h3>Chemistry</h3><table class=\"hl7__eu__lab__report\"><thead><tr><th>Test</th><th>22-JUL-2021</th><th>Reference&#xA0;Range</th><th>Unit</th></tr></thead><tbody><tr><td>Glucose [Mass/volume] in Serum or Plasma</td><td>76.1</td><td>70 - 139</td><td>mg/dL</td></tr><tr><td>Urea nitrogen [Mass/volume] in Serum or Plasma</td><td>12.7</td><td>7 - 20</td><td>mg/dL</td></tr><tr><td>Creatinine [Mass/volume] in Serum or Plasma</td><td><strong>1.9 H</strong></td><td>0.6 - 1.1</td><td>mg/dL</td></tr><tr><td>Calcium [Mass/volume] in Serum or Plasma</td><td>9.5</td><td>8.5 - 10.4</td><td>mg/dL</td></tr><tr><td>Sodium [Moles/volume] in Serum or Plasma</td><td>140.7</td><td>135 - 145</td><td>mmol/L</td></tr><tr><td>Potassium [Moles/volume] in Serum or Plasma</td><td>5.1</td><td>3.5 - 5.1</td><td>mmol/L</td></tr><tr><td>Chloride [Moles/volume] in Serum or Plasma</td><td>104.4</td><td>98 - 110</td><td>mmol/L</td></tr><tr><td>Carbon dioxide, total [Moles/volume] in Serum or Plasma</td><td>26.5</td><td>22 - 32</td><td>mmol/L</td></tr><tr><td>Ketones [Presence] in Urine by Test strip</td><td>Urine ketone test = +</td><td></td><td></td></tr><tr><td>Hemoglobin A1c/Hemoglobin.total in Blood</td><td><strong>3.2 L</strong></td><td>4 - 6</td><td>%</td></tr><tr><td>Glucose [Mass/volume] in Blood</td><td>76.1</td><td>70 - 100</td><td>mg/dL</td></tr><tr><td>Urea nitrogen [Mass/volume] in Blood</td><td>12.7</td><td>7 - 20</td><td>mg/dL</td></tr><tr><td>Creatinine [Mass/volume] in Blood</td><td>1.3</td><td>0.6 - 1.3</td><td>mg/dL</td></tr><tr><td>Calcium [Mass/volume] in Blood</td><td>9.5</td><td>8.6 - 10.4</td><td>mg/dL</td></tr><tr><td>Sodium [Moles/volume] in Blood</td><td>140.7</td><td>135 - 145</td><td>mmol/L</td></tr><tr><td>Potassium [Moles/volume] in Blood</td><td>5.1</td><td>3.5 - 5.1</td><td>mmol/L</td></tr><tr><td>Chloride [Moles/volume] in Blood</td><td>104.4</td><td>98 - 110</td><td>mmol/L</td></tr><tr><td>Carbon dioxide, total [Moles/volume] in Blood</td><td>26.5</td><td>22 - 29</td><td>mmol/L</td></tr><tr><td>Cholesterol [Mass/volume] in Serum or Plasma</td><td>146.4</td><td>125 - 200</td><td>mg/dL</td></tr><tr><td>Triglyceride [Mass/volume] in Serum or Plasma</td><td>117.8</td><td>35 - 150</td><td>mg/dL</td></tr><tr><td>Cholesterol in LDL [Mass/volume] in Serum or Plasma by Direct assay</td><td>66.3</td><td>0 - 130</td><td>mg/dL</td></tr><tr><td>Cholesterol in HDL [Mass/volume] in Serum or Plasma</td><td>56.6</td><td>46 - 82</td><td>mg/dL</td></tr></tbody></table></div>"
                },
                "title": "Chemistry"
              },
              {
                "code": {
                  "coding": [
                    {
                      "code": "$18729-4",
                      "system": "http://loinc.org",
                      "display": "Urinalysis studies (set)"
                    }
                  ],
                  "text": "Urinalysis"
                },
                "entry": [
                  {
                    "reference": "urn:uuid:b923cfdd-7b77-4f07-8816-4d03b34f9570"
                  },
                  {
                    "reference": "urn:uuid:c3c07277-5f73-49ec-b216-b182a1544612"
                  },
                  {
                    "reference": "urn:uuid:47e9bf7a-fb11-4fc5-aec7-dc4829e87931"
                  },
                  {
                    "reference": "urn:uuid:25d7f572-d555-46a8-97ee-924c01df18c7"
                  },
                  {
                    "reference": "urn:uuid:a285708f-53c8-424c-80bb-b8eaea358f67"
                  },
                  {
                    "reference": "urn:uuid:9a468d67-3f36-4329-8f8c-5ace44fbc4e9"
                  },
                  {
                    "reference": "urn:uuid:1ab2c98f-6a08-4bff-9a8b-cf6ecc46ffa7"
                  },
                  {
                    "reference": "urn:uuid:5dfc5dee-faf1-4dd1-b824-cde035ccb5df"
                  },
                  {
                    "reference": "urn:uuid:1b52424d-a40e-4784-848c-707f591b68cb"
                  },
                  {
                    "reference": "urn:uuid:23c2409d-7839-4f4a-944c-17c694cbc807"
                  },
                  {
                    "reference": "urn:uuid:c05afb72-9954-4043-b885-960c6d953662"
                  },
                  {
                    "reference": "urn:uuid:905e3cad-c66f-4ad0-9ad0-bdf248575bf7"
                  }
                ],
                "text": {
                  "status": "generated",
                  "div": "<div xmlns=\"http://www.w3.org/1999/xhtml\"><h3>Urinalysis</h3><table class=\"hl7__eu__lab__report\"><thead><tr><th>Test</th><th>22-JUL-2021</th><th>Reference&#xA0;Range</th><th>Unit</th></tr></thead><tbody><tr><td>Glucose [Mass/volume] in Urine by Test strip</td><td><strong>0.6 H</strong></td><td>0 - 0</td><td>mg/dL</td></tr><tr><td>Glucose [Presence] in Urine by Test strip</td><td>++</td><td></td><td></td></tr><tr><td>Bilirubin.total [Mass/volume] in Urine by Test strip</td><td>0.7</td><td>0 - 1.6</td><td>mg/dL</td></tr><tr><td>Bilirubin.total [Presence] in Urine by Test strip</td><td>Finding of bilirubin in urine</td><td></td><td></td></tr><tr><td>Ketones [Mass/volume] in Urine by Test strip</td><td><strong>9.3 H</strong></td><td>0 - 0.5</td><td>mg/dL</td></tr><tr><td>Specific gravity of Urine by Test strip</td><td><strong>1.0 L</strong></td><td>1.005 - 1.03</td><td>{nominal}</td></tr><tr><td>pH of Urine by Test strip</td><td>6.1</td><td>4.5 - 7.5</td><td>pH</td></tr><tr><td>Protein [Mass/volume] in Urine by Test strip</td><td><strong>280.1 H</strong></td><td>0 - 15</td><td>mg/dL</td></tr><tr><td>Protein [Presence] in Urine by Test strip</td><td>Urine protein test = ++</td><td></td><td></td></tr><tr><td>Nitrite [Presence] in Urine by Test strip</td><td>Urine nitrite negative</td><td></td><td></td></tr><tr><td>Hemoglobin [Presence] in Urine by Test strip</td><td>Urine blood test = negative</td><td></td><td></td></tr><tr><td>Leukocyte esterase [Presence] in Urine by Test strip</td><td>Urine leukocyte test negative</td><td></td><td></td></tr></tbody></table></div>"
                },
                "title": "Urinalysis"
              },
              {
                "code": {
                  "coding": [
                    {
                      "code": "$LP7846-1",
                      "system": "http://loinc.org",
                      "display": "Specimen information"
                    }
                  ],
                  "text": "Specimen information"
                },
                "entry": [
                  {
                    "reference": "urn:uuid:92a4e287-7951-44a2-8b33-42f539ad55e3"
                  },
                  {
                    "reference": "urn:uuid:ae737ad7-45c5-49b2-ac39-eebe78fd617d"
                  },
                  {
                    "reference": "urn:uuid:d41c9339-94cf-4446-aac0-2d2f156976c8"
                  },
                  {
                    "reference": "urn:uuid:a8fdbcef-44f4-4862-b6dd-cabecd301449"
                  }
                ],
                "text": {
                  "status": "generated",
                  "div": "<div xmlns=\"http://www.w3.org/1999/xhtml\"><h3>Specimen information</h3><table class=\"hl7__eu__lab__report\"><thead><tr><th>Test</th><th>22-JUL-2021</th><th>Specimen</th><th></th></tr></thead><tbody><tr><td>Appearance of Urine</td><td>Cloudy urine</td><td>Urine</td><td></td></tr><tr><td>Odor of Urine</td><td>Urine smell ammoniacal</td><td>Urine</td><td></td></tr><tr><td>Clarity of Urine</td><td>Translucent</td><td>Urine</td><td></td></tr><tr><td>Color of Urine</td><td>Brown color</td><td>Urine</td><td></td></tr></tbody></table></div>"
                },
                "title": "Specimen information"
              }
            ],
            "title": "Laboratory Report"
          },
          {
            "text": {
              "status": "generated",
              "div": "<div xmlns=\"http://www.w3.org/1999/xhtml\"><h3>Annotation</h3><table class=\"hl7__eu__lab__report\"><tr><th>Conclusion and Recommendations based on this report and previous findings known to us</th></tr><tr><td>The patient shows elevated serum creatinine, significant proteinuria, glycosuria, and ketonuria, with low urine specific gravity and brown, cloudy urine, suggesting possible renal dysfunction (likely glomerular) and impaired tubular reabsorption. Blood glucose and HbA1c are not elevated, making diabetes less likely. Mildly low erythrocyte count may indicate early anemia. Recommend further nephrological evaluation and assessment for possible acute or chronic kidney disease and underlying causes. No evidence of infection or hematuria.</td></tr></table></div>"
            },
            "code": {
              "coding": [
                {
                  "system": "http://loinc.org",
                  "code": "48767-8",
                  "display": "Annotation comment"
                }
              ]
            },
            "title": "Annotation comment"
          }
        ],
        "status": "final",
        "subject": {
          "reference": "urn:uuid:e3ecc197-4b2c-4966-9bed-08f32b4ec182",
          "display": "Molly Jenkins"
        },
        "date": "2021-07-22T16:42:11Z",
        "title": "Laboratory Report",
        "confidentiality": "N"
      }
    },
    {
      "fullUrl": "urn:uuid:b0c156a1-31dc-4e29-abc5-3b7db7590beb",
      "resource": {
        "resourceType": "DiagnosticReport",
        "id": "b0c156a1-31dc-4e29-abc5-3b7db7590beb",
        "meta": {
          "profile": [
            "http://hl7.eu/fhir/laboratory/StructureDefinition/DiagnosticReport-eu-lab"
          ]
        },
        "identifier": [
          {
            "assigner": {
              "display": "HL7 Europe"
            },
            "system": "urn:oid:2.16.840.1.113883.2.51.999",
            "value": "26bfb385-b278-4ac8-a74a-2dcc3bef80ed"
          }
        ],
        "extension": [
          {
            "url": "http://hl7.org/fhir/5.0/StructureDefinition/extension-DiagnosticReport.composition",
            "valueReference": {
              "reference": "urn:uuid:ef295d16-bc82-4336-a2a2-b317ee6583ce"
            }
          }
        ],
        "category": [
          {
            "coding": [
              {
                "code": "26436-6",
                "system": "http://loinc.org",
                "display": "Laboratory studies (set)"
              }
            ]
          }
        ],
        "specimen": [
          {
            "reference": "urn:uuid:6db423ac-3cde-48c6-be0c-59c9adb9c274"
          },
          {
            "reference": "urn:uuid:7ccb6e56-2864-47fd-9b5e-524dea9e5697"
          },
          {
            "reference": "urn:uuid:b74fe10c-3c3b-4b4c-ba0b-ccb15b3e19c0"
          },
          {
            "reference": "urn:uuid:b74fe10c-3c3b-4b4c-ba0b-ccb15b3e19c0"
          }
        ],
        "result": [
          {
            "reference": "urn:uuid:4dbfb2af-ceaa-49aa-837e-11acc8228fd1"
          },
          {
            "reference": "urn:uuid:4cef8b86-f3f0-4d14-95f5-1b8c9914112d"
          },
          {
            "reference": "urn:uuid:6edc4650-615a-4909-b896-2185a4833c6d"
          },
          {
            "reference": "urn:uuid:dab628c0-097b-4f38-8da5-489419fdf0db"
          },
          {
            "reference": "urn:uuid:bfad7221-7801-4aa8-916f-0daca641daba"
          },
          {
            "reference": "urn:uuid:22f1f293-d6eb-444f-b8a4-c60ecb3b0950"
          },
          {
            "reference": "urn:uuid:b8da7cbe-426e-41c6-9867-4ee05e2a4bb4"
          },
          {
            "reference": "urn:uuid:147cc6b1-9225-4d2d-92d9-ca5ee626566b"
          },
          {
            "reference": "urn:uuid:92a4e287-7951-44a2-8b33-42f539ad55e3"
          },
          {
            "reference": "urn:uuid:ae737ad7-45c5-49b2-ac39-eebe78fd617d"
          },
          {
            "reference": "urn:uuid:d41c9339-94cf-4446-aac0-2d2f156976c8"
          },
          {
            "reference": "urn:uuid:a8fdbcef-44f4-4862-b6dd-cabecd301449"
          },
          {
            "reference": "urn:uuid:b923cfdd-7b77-4f07-8816-4d03b34f9570"
          },
          {
            "reference": "urn:uuid:c3c07277-5f73-49ec-b216-b182a1544612"
          },
          {
            "reference": "urn:uuid:47e9bf7a-fb11-4fc5-aec7-dc4829e87931"
          },
          {
            "reference": "urn:uuid:25d7f572-d555-46a8-97ee-924c01df18c7"
          },
          {
            "reference": "urn:uuid:a285708f-53c8-424c-80bb-b8eaea358f67"
          },
          {
            "reference": "urn:uuid:358e0a29-905a-416b-a8a7-4092c7e2d919"
          },
          {
            "reference": "urn:uuid:9a468d67-3f36-4329-8f8c-5ace44fbc4e9"
          },
          {
            "reference": "urn:uuid:1ab2c98f-6a08-4bff-9a8b-cf6ecc46ffa7"
          },
          {
            "reference": "urn:uuid:5dfc5dee-faf1-4dd1-b824-cde035ccb5df"
          },
          {
            "reference": "urn:uuid:1b52424d-a40e-4784-848c-707f591b68cb"
          },
          {
            "reference": "urn:uuid:23c2409d-7839-4f4a-944c-17c694cbc807"
          },
          {
            "reference": "urn:uuid:c05afb72-9954-4043-b885-960c6d953662"
          },
          {
            "reference": "urn:uuid:905e3cad-c66f-4ad0-9ad0-bdf248575bf7"
          },
          {
            "reference": "urn:uuid:dd3b3abf-ea45-4bab-9ae4-d6bba9002f8a"
          },
          {
            "reference": "urn:uuid:5ce487d2-6fd7-4998-b421-50ddd7f4c070"
          },
          {
            "reference": "urn:uuid:e38ef3a1-6136-4ccf-9c07-bc260e523733"
          },
          {
            "reference": "urn:uuid:016fca29-2a4d-4e65-b42a-1d1189524818"
          },
          {
            "reference": "urn:uuid:8d506094-ec6a-4f6d-850f-56d5b8c8a01a"
          },
          {
            "reference": "urn:uuid:774a3e93-637f-4f87-a5ed-a2ba5885c27d"
          },
          {
            "reference": "urn:uuid:b8cb94a3-b0c9-45f0-a175-89604d2ff1bc"
          },
          {
            "reference": "urn:uuid:776f1921-3ae8-4c96-bdca-8a532b1c11a2"
          },
          {
            "reference": "urn:uuid:93871b72-6e54-4940-be98-8acc0a705725"
          },
          {
            "reference": "urn:uuid:edb2920c-88b6-4395-ab0e-d6045aed0bb1"
          },
          {
            "reference": "urn:uuid:e87ad98e-819f-4bde-8199-3abfb4506538"
          },
          {
            "reference": "urn:uuid:f9e1edf4-f39d-476b-9bdc-e48ec704f55f"
          },
          {
            "reference": "urn:uuid:cce437a6-c1e7-4a4b-95dd-356bb7812626"
          },
          {
            "reference": "urn:uuid:73231a88-53d7-4f32-a9c0-5657ba85f9b0"
          },
          {
            "reference": "urn:uuid:25109b27-323e-4bc3-bb96-622cb6b6d664"
          },
          {
            "reference": "urn:uuid:7859ae1e-7b9a-4bd3-af08-fa96fe167a08"
          },
          {
            "reference": "urn:uuid:2a0941d9-1f06-4c7d-abfa-dad61efa951c"
          },
          {
            "reference": "urn:uuid:8c38864d-82e9-4a69-a420-4d444aa864a3"
          },
          {
            "reference": "urn:uuid:e20c322d-1caf-4de8-a4f1-daeb25acac11"
          },
          {
            "reference": "urn:uuid:5bae460d-c1ed-4a4c-9ff0-61587f7081b5"
          },
          {
            "reference": "urn:uuid:be93f11b-6f21-4cef-bd24-df27bf11fca1"
          },
          {
            "reference": "urn:uuid:4873760c-fef7-4957-b294-fd1b520be46c"
          },
          {
            "reference": "urn:uuid:3686f601-7f1a-4b3d-baf9-b8361bc9762d"
          },
          {
            "reference": "urn:uuid:2b364baa-7ab8-4705-b5aa-bab22e84b2aa"
          }
        ],
        "status": "registered",
        "code": {
          "coding": [
            {
              "code": "11502-2",
              "system": "http://loinc.org",
              "display": "Laboratory report"
            }
          ]
        },
        "subject": {
          "reference": "urn:uuid:e3ecc197-4b2c-4966-9bed-08f32b4ec182",
          "display": "Molly Jenkins"
        }
      }
    },
    {
      "fullUrl": "urn:uuid:e3ecc197-4b2c-4966-9bed-08f32b4ec182",
      "resource": {
        "resourceType": "Patient",
        "id": "e3ecc197-4b2c-4966-9bed-08f32b4ec182",
        "meta": {
          "security": [
            {
              "system": "http://terminology.hl7.org/CodeSystem/v3-ActReason",
              "code": "HTEST"
            },
            {
              "system": "http://terminology.hl7.org/CodeSystem/v3-ActReason",
              "code": "TRAIN"
            }
          ],
          "tag": [
            {
              "system": "https://synderai.net/fhir/CodeSystem/tags",
              "code": "synthetic",
              "display": "SYNDERAI Synthetic data"
            }
          ],
          "profile": [
            "http://hl7.eu/fhir/base/StructureDefinition/patient-eu-core"
          ]
        },
        "identifier": [
          {
            "type": {
              "coding": [
                {
                  "code": "PT",
                  "system": "http://terminology.hl7.org/CodeSystem/v2-0203"
                }
              ]
            },
            "system": "http://ec.europa.eu/identifier/eci",
            "value": "7634-012682-0"
          },
          {
            "type": {
              "coding": [
                {
                  "code": "MR",
                  "system": "http://terminology.hl7.org/CodeSystem/v2-0203"
                }
              ]
            },
            "system": "http://local.setting.eu/identifier",
            "value": "9934a8eb-b6e1-34e1-edf5-57a0262d1bea"
          }
        ],
        "name": [
          {
            "family": "Jenkins"
          },
          {
            "given": [
              "Molly"
            ]
          },
          {
            "text": "Molly Jenkins"
          }
        ],
        "address": [
          {
            "line": [
              "98 Ali field"
            ],
            "use": "home",
            "type": "physical",
            "postalCode": "AB42",
            "city": "Port Jennamouth",
            "country": "United Kingdom"
          }
        ],
        "telecom": [
          {
            "system": "phone",
            "value": "(0118) 496 0334"
          }
        ],
        "extension": [
          {
            "url": "http://hl7.org/fhir/StructureDefinition/patient-nationality",
            "valueCodeableConcept": {
              "coding": [
                {
                  "code": "GB",
                  "system": "http://hl7.org/fhir/ValueSet/country"
                }
              ]
            }
          }
        ],
        "text": {
          "status": "generated",
          "div": "<div xmlns=\"http://www.w3.org/1999/xhtml\"><table class=\"hl7__ips\"><tr><td>Molly Jenkins</td><td>female</td><td>14-Aug-1967</td></tr></table></div>"
        },
        "gender": "female",
        "birthDate": "1967-08-14"
      }
    },
    {
      "fullUrl": "urn:uuid:47c71c92-339f-4899-b63b-1d8f5d0dd0de",
      "resource": {
        "resourceType": "ServiceRequest",
        "id": "47c71c92-339f-4899-b63b-1d8f5d0dd0de",
        "meta": {
          "profile": [
            "http://hl7.eu/fhir/laboratory/StructureDefinition/ServiceRequest-eu-lab"
          ]
        },
        "identifier": [
          {
            "system": "http://example.org",
            "value": "21161077-5858-46ca-87fd-c0e72d920f34"
          }
        ],
        "specimen": [
          {
            "reference": "urn:uuid:6db423ac-3cde-48c6-be0c-59c9adb9c274"
          },
          {
            "reference": "urn:uuid:7ccb6e56-2864-47fd-9b5e-524dea9e5697"
          },
          {
            "reference": "urn:uuid:b74fe10c-3c3b-4b4c-ba0b-ccb15b3e19c0"
          }
        ],
        "reasonCode": [
          {
            "coding": [
              {
                "code": "431856006",
                "system": "http://snomed.info/sct",
                "display": "Chronic kidney disease stage 2"
              }
            ]
          },
          {
            "coding": [
              {
                "code": "90781000119102",
                "system": "http://snomed.info/sct",
                "display": "Microalbuminuria due to type 2 diabetes mellitus"
              }
            ]
          },
          {
            "coding": [
              {
                "code": "127013003",
                "system": "http://snomed.info/sct",
                "display": "Disorder of kidney due to diabetes mellitus"
              }
            ]
          },
          {
            "coding": [
              {
                "code": "431855005",
                "system": "http://snomed.info/sct",
                "display": "Chronic kidney disease stage 1"
              }
            ]
          },
          {
            "coding": [
              {
                "code": "15777000",
                "system": "http://snomed.info/sct",
                "display": "Prediabetes"
              }
            ]
          },
          {
            "coding": [
              {
                "code": "59621000",
                "system": "http://snomed.info/sct",
                "display": "Essential hypertension"
              }
            ]
          },
          {
            "coding": [
              {
                "code": "53827007",
                "system": "http://snomed.info/sct",
                "display": "Excessive salivation"
              }
            ]
          },
          {
            "coding": [
              {
                "code": "64859006",
                "system": "http://snomed.info/sct",
                "display": "Osteoporosis"
              }
            ]
          },
          {
            "coding": [
              {
                "code": "128188000",
                "system": "http://snomed.info/sct",
                "display": "Cerebral palsy"
              }
            ]
          },
          {
            "coding": [
              {
                "code": "235595009",
                "system": "http://snomed.info/sct",
                "display": "Gastroesophageal reflux disease"
              }
            ]
          }
        ],
        "status": "active",
        "intent": "order",
        "code": {
          "coding": [
            {
              "code": "108252007",
              "system": "http://snomed.info/sct",
              "display": "Laboratory procedure"
            }
          ]
        },
        "subject": {
          "reference": "urn:uuid:e3ecc197-4b2c-4966-9bed-08f32b4ec182",
          "display": "Molly Jenkins"
        },
        "requester": {
          "reference": "urn:uuid:a00facb3-ecd9-49aa-9d3a-032df7ceb23f"
        }
      }
    },
    {
      "fullUrl": "urn:uuid:a00facb3-ecd9-49aa-9d3a-032df7ceb23f",
      "resource": {
        "resourceType": "PractitionerRole",
        "id": "a00facb3-ecd9-49aa-9d3a-032df7ceb23f",
        "meta": {
          "profile": [
            "http://hl7.eu/fhir/base/StructureDefinition/practitionerRole-eu"
          ]
        },
        "text": {
          "status": "generated",
          "div": "<div xmlns=\"http://www.w3.org/1999/xhtml\">Provider Role Id: a00facb3-ecd9-49aa-9d3a-032df7ceb23f</div>"
        },
        "organization": {
          "reference": "urn:uuid:5a9fa3ed-ee19-4c52-b512-bca043fb98a5"
        }
      }
    },
    {
      "fullUrl": "urn:uuid:5a9fa3ed-ee19-4c52-b512-bca043fb98a5",
      "resource": {
        "resourceType": "Organization",
        "id": "5a9fa3ed-ee19-4c52-b512-bca043fb98a5",
        "meta": {
          "profile": [
            "http://hl7.eu/fhir/base/StructureDefinition/organization-eu"
          ]
        },
        "identifier": [
          {
            "assigner": {
              "display": "HL7 Europe"
            },
            "system": "urn:oid:2.16.840.1.113883.2.51.999",
            "value": "3704f62f-9f63-4ae4-a2be-80bb220519ee"
          }
        ],
        "address": [
          {
            "city": "Aberdeen",
            "postalCode": "AB11 6",
            "country": "United Kingdom"
          }
        ],
        "text": {
          "status": "generated",
          "div": "<div xmlns=\"http://www.w3.org/1999/xhtml\">Provider Organization: Aberdeen Community Health and Care Village</div>"
        },
        "name": "Aberdeen Community Health and Care Village"
      }
    },
    {
      "fullUrl": "urn:uuid:6db423ac-3cde-48c6-be0c-59c9adb9c274",
      "resource": {
        "resourceType": "Specimen",
        "id": "6db423ac-3cde-48c6-be0c-59c9adb9c274",
        "meta": {
          "profile": [
            "http://hl7.eu/fhir/laboratory/StructureDefinition/Specimen-eu-lab"
          ]
        },
        "collection": {
          "collectedDateTime": "2021-07-22"
        },
        "text": {
          "status": "generated",
          "div": "<div xmlns=\"http://www.w3.org/1999/xhtml\"><table class=\"hl7__eu__lab__report\"><tr><th>Specimen</th><th>Collection Date</th></tr><tr><td>Acellular blood (serum or plasma) specimen</td><td><span class=\"nb\">22-Jul-2021</span></td></tr></table></div>"
        },
        "type": {
          "coding": [
            {
              "code": "122592007",
              "system": "http://snomed.info/sct",
              "display": "Acellular blood (serum or plasma) specimen"
            }
          ]
        }
      }
    },
    {
      "fullUrl": "urn:uuid:7ccb6e56-2864-47fd-9b5e-524dea9e5697",
      "resource": {
        "resourceType": "Specimen",
        "id": "7ccb6e56-2864-47fd-9b5e-524dea9e5697",
        "meta": {
          "profile": [
            "http://hl7.eu/fhir/laboratory/StructureDefinition/Specimen-eu-lab"
          ]
        },
        "collection": {
          "collectedDateTime": "2021-07-22"
        },
        "text": {
          "status": "generated",
          "div": "<div xmlns=\"http://www.w3.org/1999/xhtml\"><table class=\"hl7__eu__lab__report\"><tr><th>Specimen</th><th>Collection Date</th></tr><tr><td>Urine specimen</td><td><span class=\"nb\">22-Jul-2021</span></td></tr></table></div>"
        },
        "type": {
          "coding": [
            {
              "code": "122575003",
              "system": "http://snomed.info/sct",
              "display": "Urine specimen"
            }
          ]
        }
      }
    },
    {
      "fullUrl": "urn:uuid:b74fe10c-3c3b-4b4c-ba0b-ccb15b3e19c0",
      "resource": {
        "resourceType": "Specimen",
        "id": "b74fe10c-3c3b-4b4c-ba0b-ccb15b3e19c0",
        "meta": {
          "profile": [
            "http://hl7.eu/fhir/laboratory/StructureDefinition/Specimen-eu-lab"
          ]
        },
        "collection": {
          "collectedDateTime": "2021-07-22"
        },
        "text": {
          "status": "generated",
          "div": "<div xmlns=\"http://www.w3.org/1999/xhtml\"><table class=\"hl7__eu__lab__report\"><tr><th>Specimen</th><th>Collection Date</th></tr><tr><td>Whole blood specimen (specimen)</td><td><span class=\"nb\">22-Jul-2021</span></td></tr></table></div>"
        },
        "type": {
          "coding": [
            {
              "code": "258580003",
              "system": "http://snomed.info/sct",
              "display": "Whole blood specimen (specimen)"
            }
          ]
        }
      }
    },
    {
      "fullUrl": "urn:uuid:b74fe10c-3c3b-4b4c-ba0b-ccb15b3e19c0",
      "resource": {
        "resourceType": "Specimen",
        "id": "b74fe10c-3c3b-4b4c-ba0b-ccb15b3e19c0",
        "meta": {
          "profile": [
            "http://hl7.eu/fhir/laboratory/StructureDefinition/Specimen-eu-lab"
          ]
        },
        "collection": {
          "collectedDateTime": "2021-07-22"
        },
        "text": {
          "status": "generated",
          "div": "<div xmlns=\"http://www.w3.org/1999/xhtml\"><table class=\"hl7__eu__lab__report\"><tr><th>Specimen</th><th>Collection Date</th></tr><tr><td>Whole blood specimen (specimen)</td><td><span class=\"nb\">22-Jul-2021</span></td></tr></table></div>"
        },
        "type": {
          "coding": [
            {
              "code": "258580003",
              "system": "http://snomed.info/sct",
              "display": "Whole blood specimen (specimen)"
            }
          ]
        }
      }
    },
    {
      "fullUrl": "urn:uuid:4dbfb2af-ceaa-49aa-837e-11acc8228fd1",
      "resource": {
        "resourceType": "Observation",
        "id": "4dbfb2af-ceaa-49aa-837e-11acc8228fd1",
        "meta": {
          "profile": [
            "http://hl7.eu/fhir/laboratory/StructureDefinition/Observation-resultslab-eu-lab"
          ]
        },
        "performer": [
          {
            "display": "The Central European Lab"
          }
        ],
        "category": [
          {
            "coding": [
              {
                "system": "http://terminology.hl7.org/CodeSystem/observation-category",
                "code": "laboratory"
              }
            ]
          }
        ],
        "code": {
          "coding": [
            {
              "code": "2345-7",
              "system": "http://loinc.org",
              "display": "Glucose [Mass/volume] in Serum or Plasma"
            }
          ],
          "text": "Glucose [Mass/volume] in Serum or Plasma"
        },
        "valueQuantity": {
          "system": "http://unitsofmeasure.org",
          "value": 76.1,
          "unit": "mg/dL",
          "code": "mg/dL"
        },
        "referenceRange": [
          {
            "low": {
              "value": 70,
              "code": "mg/dL",
              "system": "http://unitsofmeasure.org"
            }
          },
          {
            "high": {
              "value": 139,
              "code": "mg/dL",
              "system": "http://unitsofmeasure.org"
            }
          }
        ],
        "text": {
          "status": "generated",
          "div": "<div xmlns=\"http://www.w3.org/1999/xhtml\"><table class=\"hl7__eu__lab__report\"><tr><th>Test</th><th>22-Jul-2021</th><th>Reference&#xA0;Range</th><th>Unit</th></tr><tr><td>Glucose [Mass/volume] in Serum or Plasma</td><td>76.1</td><td>70 - 139</td><td></td><td>mg/dL</td></tr></table></div>"
        },
        "status": "final",
        "subject": {
          "reference": "urn:uuid:e3ecc197-4b2c-4966-9bed-08f32b4ec182",
          "display": "Molly Jenkins"
        },
        "effectiveDateTime": "2021-07-22T14:42:11Z",
        "specimen": {
          "reference": "urn:uuid:6db423ac-3cde-48c6-be0c-59c9adb9c274"
        }
      }
    },
    {
      "fullUrl": "urn:uuid:4cef8b86-f3f0-4d14-95f5-1b8c9914112d",
      "resource": {
        "resourceType": "Observation",
        "id": "4cef8b86-f3f0-4d14-95f5-1b8c9914112d",
        "meta": {
          "profile": [
            "http://hl7.eu/fhir/laboratory/StructureDefinition/Observation-resultslab-eu-lab"
          ]
        },
        "performer": [
          {
            "display": "The Central European Lab"
          }
        ],
        "category": [
          {
            "coding": [
              {
                "system": "http://terminology.hl7.org/CodeSystem/observation-category",
                "code": "laboratory"
              }
            ]
          }
        ],
        "code": {
          "coding": [
            {
              "code": "3094-0",
              "system": "http://loinc.org",
              "display": "Urea nitrogen [Mass/volume] in Serum or Plasma"
            }
          ],
          "text": "Urea nitrogen [Mass/volume] in Serum or Plasma"
        },
        "valueQuantity": {
          "system": "http://unitsofmeasure.org",
          "value": 12.7,
          "unit": "mg/dL",
          "code": "mg/dL"
        },
        "referenceRange": [
          {
            "low": {
              "value": 7,
              "code": "mg/dL",
              "system": "http://unitsofmeasure.org"
            }
          },
          {
            "high": {
              "value": 20,
              "code": "mg/dL",
              "system": "http://unitsofmeasure.org"
            }
          }
        ],
        "text": {
          "status": "generated",
          "div": "<div xmlns=\"http://www.w3.org/1999/xhtml\"><table class=\"hl7__eu__lab__report\"><tr><th>Test</th><th>22-Jul-2021</th><th>Reference&#xA0;Range</th><th>Unit</th></tr><tr><td>Urea nitrogen [Mass/volume] in Serum or Plasma</td><td>12.7</td><td>7 - 20</td><td></td><td>mg/dL</td></tr></table></div>"
        },
        "status": "final",
        "subject": {
          "reference": "urn:uuid:e3ecc197-4b2c-4966-9bed-08f32b4ec182",
          "display": "Molly Jenkins"
        },
        "effectiveDateTime": "2021-07-22T14:42:11Z",
        "specimen": {
          "reference": "urn:uuid:6db423ac-3cde-48c6-be0c-59c9adb9c274"
        }
      }
    },
    {
      "fullUrl": "urn:uuid:6edc4650-615a-4909-b896-2185a4833c6d",
      "resource": {
        "resourceType": "Observation",
        "id": "6edc4650-615a-4909-b896-2185a4833c6d",
        "meta": {
          "profile": [
            "http://hl7.eu/fhir/laboratory/StructureDefinition/Observation-resultslab-eu-lab"
          ]
        },
        "performer": [
          {
            "display": "The Central European Lab"
          }
        ],
        "category": [
          {
            "coding": [
              {
                "system": "http://terminology.hl7.org/CodeSystem/observation-category",
                "code": "laboratory"
              }
            ]
          }
        ],
        "code": {
          "coding": [
            {
              "code": "2160-0",
              "system": "http://loinc.org",
              "display": "Creatinine [Mass/volume] in Serum or Plasma"
            }
          ],
          "text": "Creatinine [Mass/volume] in Serum or Plasma"
        },
        "valueQuantity": {
          "system": "http://unitsofmeasure.org",
          "value": 1.9,
          "unit": "mg/dL",
          "code": "mg/dL"
        },
        "referenceRange": [
          {
            "low": {
              "value": 0.6,
              "code": "mg/dL",
              "system": "http://unitsofmeasure.org"
            }
          },
          {
            "high": {
              "value": 1.1,
              "code": "mg/dL",
              "system": "http://unitsofmeasure.org"
            }
          }
        ],
        "interpretation": [
          {
            "coding": [
              {
                "code": "H",
                "system": "http://terminology.hl7.org/CodeSystem/v3-ObservationInterpretation",
                "display": "High"
              }
            ]
          }
        ],
        "text": {
          "status": "generated",
          "div": "<div xmlns=\"http://www.w3.org/1999/xhtml\"><table class=\"hl7__eu__lab__report\"><tr><th>Test</th><th>22-Jul-2021</th><th>Reference&#xA0;Range</th><th>Unit</th></tr><tr><td>Creatinine [Mass/volume] in Serum or Plasma</td><td>1.9</td><td>0.6 - 1.1</td><td>H</td><td>mg/dL</td></tr></table></div>"
        },
        "status": "final",
        "subject": {
          "reference": "urn:uuid:e3ecc197-4b2c-4966-9bed-08f32b4ec182",
          "display": "Molly Jenkins"
        },
        "effectiveDateTime": "2021-07-22T14:42:11Z",
        "specimen": {
          "reference": "urn:uuid:6db423ac-3cde-48c6-be0c-59c9adb9c274"
        }
      }
    },
    {
      "fullUrl": "urn:uuid:dab628c0-097b-4f38-8da5-489419fdf0db",
      "resource": {
        "resourceType": "Observation",
        "id": "dab628c0-097b-4f38-8da5-489419fdf0db",
        "meta": {
          "profile": [
            "http://hl7.eu/fhir/laboratory/StructureDefinition/Observation-resultslab-eu-lab"
          ]
        },
        "performer": [
          {
            "display": "The Central European Lab"
          }
        ],
        "category": [
          {
            "coding": [
              {
                "system": "http://terminology.hl7.org/CodeSystem/observation-category",
                "code": "laboratory"
              }
            ]
          }
        ],
        "code": {
          "coding": [
            {
              "code": "17861-6",
              "system": "http://loinc.org",
              "display": "Calcium [Mass/volume] in Serum or Plasma"
            }
          ],
          "text": "Calcium [Mass/volume] in Serum or Plasma"
        },
        "valueQuantity": {
          "system": "http://unitsofmeasure.org",
          "value": 9.5,
          "unit": "mg/dL",
          "code": "mg/dL"
        },
        "referenceRange": [
          {
            "low": {
              "value": 8.5,
              "code": "mg/dL",
              "system": "http://unitsofmeasure.org"
            }
          },
          {
            "high": {
              "value": 10.4,
              "code": "mg/dL",
              "system": "http://unitsofmeasure.org"
            }
          }
        ],
        "text": {
          "status": "generated",
          "div": "<div xmlns=\"http://www.w3.org/1999/xhtml\"><table class=\"hl7__eu__lab__report\"><tr><th>Test</th><th>22-Jul-2021</th><th>Reference&#xA0;Range</th><th>Unit</th></tr><tr><td>Calcium [Mass/volume] in Serum or Plasma</td><td>9.5</td><td>8.5 - 10.4</td><td></td><td>mg/dL</td></tr></table></div>"
        },
        "status": "final",
        "subject": {
          "reference": "urn:uuid:e3ecc197-4b2c-4966-9bed-08f32b4ec182",
          "display": "Molly Jenkins"
        },
        "effectiveDateTime": "2021-07-22T14:42:11Z",
        "specimen": {
          "reference": "urn:uuid:6db423ac-3cde-48c6-be0c-59c9adb9c274"
        }
      }
    },
    {
      "fullUrl": "urn:uuid:bfad7221-7801-4aa8-916f-0daca641daba",
      "resource": {
        "resourceType": "Observation",
        "id": "bfad7221-7801-4aa8-916f-0daca641daba",
        "meta": {
          "profile": [
            "http://hl7.eu/fhir/laboratory/StructureDefinition/Observation-resultslab-eu-lab"
          ]
        },
        "performer": [
          {
            "display": "The Central European Lab"
          }
        ],
        "category": [
          {
            "coding": [
              {
                "system": "http://terminology.hl7.org/CodeSystem/observation-category",
                "code": "laboratory"
              }
            ]
          }
        ],
        "code": {
          "coding": [
            {
              "code": "2951-2",
              "system": "http://loinc.org",
              "display": "Sodium [Moles/volume] in Serum or Plasma"
            }
          ],
          "text": "Sodium [Moles/volume] in Serum or Plasma"
        },
        "valueQuantity": {
          "system": "http://unitsofmeasure.org",
          "value": 140.7,
          "unit": "mmol/L",
          "code": "mmol/L"
        },
        "referenceRange": [
          {
            "low": {
              "value": 135,
              "code": "mmol/L",
              "system": "http://unitsofmeasure.org"
            }
          },
          {
            "high": {
              "value": 145,
              "code": "mmol/L",
              "system": "http://unitsofmeasure.org"
            }
          }
        ],
        "text": {
          "status": "generated",
          "div": "<div xmlns=\"http://www.w3.org/1999/xhtml\"><table class=\"hl7__eu__lab__report\"><tr><th>Test</th><th>22-Jul-2021</th><th>Reference&#xA0;Range</th><th>Unit</th></tr><tr><td>Sodium [Moles/volume] in Serum or Plasma</td><td>140.7</td><td>135 - 145</td><td></td><td>mmol/L</td></tr></table></div>"
        },
        "status": "final",
        "subject": {
          "reference": "urn:uuid:e3ecc197-4b2c-4966-9bed-08f32b4ec182",
          "display": "Molly Jenkins"
        },
        "effectiveDateTime": "2021-07-22T14:42:11Z",
        "specimen": {
          "reference": "urn:uuid:6db423ac-3cde-48c6-be0c-59c9adb9c274"
        }
      }
    },
    {
      "fullUrl": "urn:uuid:22f1f293-d6eb-444f-b8a4-c60ecb3b0950",
      "resource": {
        "resourceType": "Observation",
        "id": "22f1f293-d6eb-444f-b8a4-c60ecb3b0950",
        "meta": {
          "profile": [
            "http://hl7.eu/fhir/laboratory/StructureDefinition/Observation-resultslab-eu-lab"
          ]
        },
        "performer": [
          {
            "display": "The Central European Lab"
          }
        ],
        "category": [
          {
            "coding": [
              {
                "system": "http://terminology.hl7.org/CodeSystem/observation-category",
                "code": "laboratory"
              }
            ]
          }
        ],
        "code": {
          "coding": [
            {
              "code": "2823-3",
              "system": "http://loinc.org",
              "display": "Potassium [Moles/volume] in Serum or Plasma"
            }
          ],
          "text": "Potassium [Moles/volume] in Serum or Plasma"
        },
        "valueQuantity": {
          "system": "http://unitsofmeasure.org",
          "value": 5.1,
          "unit": "mmol/L",
          "code": "mmol/L"
        },
        "referenceRange": [
          {
            "low": {
              "value": 3.5,
              "code": "mmol/L",
              "system": "http://unitsofmeasure.org"
            }
          },
          {
            "high": {
              "value": 5.1,
              "code": "mmol/L",
              "system": "http://unitsofmeasure.org"
            }
          }
        ],
        "text": {
          "status": "generated",
          "div": "<div xmlns=\"http://www.w3.org/1999/xhtml\"><table class=\"hl7__eu__lab__report\"><tr><th>Test</th><th>22-Jul-2021</th><th>Reference&#xA0;Range</th><th>Unit</th></tr><tr><td>Potassium [Moles/volume] in Serum or Plasma</td><td>5.1</td><td>3.5 - 5.1</td><td></td><td>mmol/L</td></tr></table></div>"
        },
        "status": "final",
        "subject": {
          "reference": "urn:uuid:e3ecc197-4b2c-4966-9bed-08f32b4ec182",
          "display": "Molly Jenkins"
        },
        "effectiveDateTime": "2021-07-22T14:42:11Z",
        "specimen": {
          "reference": "urn:uuid:6db423ac-3cde-48c6-be0c-59c9adb9c274"
        }
      }
    },
    {
      "fullUrl": "urn:uuid:b8da7cbe-426e-41c6-9867-4ee05e2a4bb4",
      "resource": {
        "resourceType": "Observation",
        "id": "b8da7cbe-426e-41c6-9867-4ee05e2a4bb4",
        "meta": {
          "profile": [
            "http://hl7.eu/fhir/laboratory/StructureDefinition/Observation-resultslab-eu-lab"
          ]
        },
        "performer": [
          {
            "display": "The Central European Lab"
          }
        ],
        "category": [
          {
            "coding": [
              {
                "system": "http://terminology.hl7.org/CodeSystem/observation-category",
                "code": "laboratory"
              }
            ]
          }
        ],
        "code": {
          "coding": [
            {
              "code": "2075-0",
              "system": "http://loinc.org",
              "display": "Chloride [Moles/volume] in Serum or Plasma"
            }
          ],
          "text": "Chloride [Moles/volume] in Serum or Plasma"
        },
        "valueQuantity": {
          "system": "http://unitsofmeasure.org",
          "value": 104.4,
          "unit": "mmol/L",
          "code": "mmol/L"
        },
        "referenceRange": [
          {
            "low": {
              "value": 98,
              "code": "mmol/L",
              "system": "http://unitsofmeasure.org"
            }
          },
          {
            "high": {
              "value": 110,
              "code": "mmol/L",
              "system": "http://unitsofmeasure.org"
            }
          }
        ],
        "text": {
          "status": "generated",
          "div": "<div xmlns=\"http://www.w3.org/1999/xhtml\"><table class=\"hl7__eu__lab__report\"><tr><th>Test</th><th>22-Jul-2021</th><th>Reference&#xA0;Range</th><th>Unit</th></tr><tr><td>Chloride [Moles/volume] in Serum or Plasma</td><td>104.4</td><td>98 - 110</td><td></td><td>mmol/L</td></tr></table></div>"
        },
        "status": "final",
        "subject": {
          "reference": "urn:uuid:e3ecc197-4b2c-4966-9bed-08f32b4ec182",
          "display": "Molly Jenkins"
        },
        "effectiveDateTime": "2021-07-22T14:42:11Z",
        "specimen": {
          "reference": "urn:uuid:6db423ac-3cde-48c6-be0c-59c9adb9c274"
        }
      }
    },
    {
      "fullUrl": "urn:uuid:147cc6b1-9225-4d2d-92d9-ca5ee626566b",
      "resource": {
        "resourceType": "Observation",
        "id": "147cc6b1-9225-4d2d-92d9-ca5ee626566b",
        "meta": {
          "profile": [
            "http://hl7.eu/fhir/laboratory/StructureDefinition/Observation-resultslab-eu-lab"
          ]
        },
        "performer": [
          {
            "display": "The Central European Lab"
          }
        ],
        "category": [
          {
            "coding": [
              {
                "system": "http://terminology.hl7.org/CodeSystem/observation-category",
                "code": "laboratory"
              }
            ]
          }
        ],
        "code": {
          "coding": [
            {
              "code": "2028-9",
              "system": "http://loinc.org",
              "display": "Carbon dioxide, total [Moles/volume] in Serum or Plasma"
            }
          ],
          "text": "Carbon dioxide, total [Moles/volume] in Serum or Plasma"
        },
        "valueQuantity": {
          "system": "http://unitsofmeasure.org",
          "value": 26.5,
          "unit": "mmol/L",
          "code": "mmol/L"
        },
        "referenceRange": [
          {
            "low": {
              "value": 22,
              "code": "mmol/L",
              "system": "http://unitsofmeasure.org"
            }
          },
          {
            "high": {
              "value": 32,
              "code": "mmol/L",
              "system": "http://unitsofmeasure.org"
            }
          }
        ],
        "text": {
          "status": "generated",
          "div": "<div xmlns=\"http://www.w3.org/1999/xhtml\"><table class=\"hl7__eu__lab__report\"><tr><th>Test</th><th>22-Jul-2021</th><th>Reference&#xA0;Range</th><th>Unit</th></tr><tr><td>Carbon dioxide, total [Moles/volume] in Serum or Plasma</td><td>26.5</td><td>22 - 32</td><td></td><td>mmol/L</td></tr></table></div>"
        },
        "status": "final",
        "subject": {
          "reference": "urn:uuid:e3ecc197-4b2c-4966-9bed-08f32b4ec182",
          "display": "Molly Jenkins"
        },
        "effectiveDateTime": "2021-07-22T14:42:11Z",
        "specimen": {
          "reference": "urn:uuid:6db423ac-3cde-48c6-be0c-59c9adb9c274"
        }
      }
    },
    {
      "fullUrl": "urn:uuid:92a4e287-7951-44a2-8b33-42f539ad55e3",
      "resource": {
        "resourceType": "Observation",
        "id": "92a4e287-7951-44a2-8b33-42f539ad55e3",
        "meta": {
          "profile": [
            "http://hl7.eu/fhir/laboratory/StructureDefinition/Observation-resultslab-eu-lab"
          ]
        },
        "performer": [
          {
            "display": "The Central European Lab"
          }
        ],
        "category": [
          {
            "coding": [
              {
                "system": "http://terminology.hl7.org/CodeSystem/observation-category",
                "code": "laboratory"
              }
            ]
          }
        ],
        "code": {
          "coding": [
            {
              "code": "5767-9",
              "system": "http://loinc.org",
              "display": "Appearance of Urine"
            }
          ],
          "text": "Appearance of Urine"
        },
        "text": {
          "status": "generated",
          "div": "<div xmlns=\"http://www.w3.org/1999/xhtml\"><table class=\"hl7__eu__lab__report\"><tr><th>Test</th><th>22-Jul-2021</th><th>Reference&#xA0;Range</th><th>Unit</th></tr><tr><td>Appearance of Urine</td></tr></table></div>"
        },
        "status": "final",
        "subject": {
          "reference": "urn:uuid:e3ecc197-4b2c-4966-9bed-08f32b4ec182",
          "display": "Molly Jenkins"
        },
        "effectiveDateTime": "2021-07-22T14:42:11Z",
        "specimen": {
          "reference": "urn:uuid:7ccb6e56-2864-47fd-9b5e-524dea9e5697"
        }
      }
    },
    {
      "fullUrl": "urn:uuid:ae737ad7-45c5-49b2-ac39-eebe78fd617d",
      "resource": {
        "resourceType": "Observation",
        "id": "ae737ad7-45c5-49b2-ac39-eebe78fd617d",
        "meta": {
          "profile": [
            "http://hl7.eu/fhir/laboratory/StructureDefinition/Observation-resultslab-eu-lab"
          ]
        },
        "performer": [
          {
            "display": "The Central European Lab"
          }
        ],
        "category": [
          {
            "coding": [
              {
                "system": "http://terminology.hl7.org/CodeSystem/observation-category",
                "code": "laboratory"
              }
            ]
          }
        ],
        "code": {
          "coding": [
            {
              "code": "34533-0",
              "system": "http://loinc.org",
              "display": "Odor of Urine"
            }
          ],
          "text": "Odor of Urine"
        },
        "text": {
          "status": "generated",
          "div": "<div xmlns=\"http://www.w3.org/1999/xhtml\"><table class=\"hl7__eu__lab__report\"><tr><th>Test</th><th>22-Jul-2021</th><th>Reference&#xA0;Range</th><th>Unit</th></tr><tr><td>Odor of Urine</td></tr></table></div>"
        },
        "status": "final",
        "subject": {
          "reference": "urn:uuid:e3ecc197-4b2c-4966-9bed-08f32b4ec182",
          "display": "Molly Jenkins"
        },
        "effectiveDateTime": "2021-07-22T14:42:11Z",
        "specimen": {
          "reference": "urn:uuid:7ccb6e56-2864-47fd-9b5e-524dea9e5697"
        }
      }
    },
    {
      "fullUrl": "urn:uuid:d41c9339-94cf-4446-aac0-2d2f156976c8",
      "resource": {
        "resourceType": "Observation",
        "id": "d41c9339-94cf-4446-aac0-2d2f156976c8",
        "meta": {
          "profile": [
            "http://hl7.eu/fhir/laboratory/StructureDefinition/Observation-resultslab-eu-lab"
          ]
        },
        "performer": [
          {
            "display": "The Central European Lab"
          }
        ],
        "category": [
          {
            "coding": [
              {
                "system": "http://terminology.hl7.org/CodeSystem/observation-category",
                "code": "laboratory"
              }
            ]
          }
        ],
        "code": {
          "coding": [
            {
              "code": "32167-9",
              "system": "http://loinc.org",
              "display": "Clarity of Urine"
            }
          ],
          "text": "Clarity of Urine"
        },
        "text": {
          "status": "generated",
          "div": "<div xmlns=\"http://www.w3.org/1999/xhtml\"><table class=\"hl7__eu__lab__report\"><tr><th>Test</th><th>22-Jul-2021</th><th>Reference&#xA0;Range</th><th>Unit</th></tr><tr><td>Clarity of Urine</td></tr></table></div>"
        },
        "status": "final",
        "subject": {
          "reference": "urn:uuid:e3ecc197-4b2c-4966-9bed-08f32b4ec182",
          "display": "Molly Jenkins"
        },
        "effectiveDateTime": "2021-07-22T14:42:11Z",
        "specimen": {
          "reference": "urn:uuid:7ccb6e56-2864-47fd-9b5e-524dea9e5697"
        }
      }
    },
    {
      "fullUrl": "urn:uuid:a8fdbcef-44f4-4862-b6dd-cabecd301449",
      "resource": {
        "resourceType": "Observation",
        "id": "a8fdbcef-44f4-4862-b6dd-cabecd301449",
        "meta": {
          "profile": [
            "http://hl7.eu/fhir/laboratory/StructureDefinition/Observation-resultslab-eu-lab"
          ]
        },
        "performer": [
          {
            "display": "The Central European Lab"
          }
        ],
        "category": [
          {
            "coding": [
              {
                "system": "http://terminology.hl7.org/CodeSystem/observation-category",
                "code": "laboratory"
              }
            ]
          }
        ],
        "code": {
          "coding": [
            {
              "code": "5778-6",
              "system": "http://loinc.org",
              "display": "Color of Urine"
            }
          ],
          "text": "Color of Urine"
        },
        "text": {
          "status": "generated",
          "div": "<div xmlns=\"http://www.w3.org/1999/xhtml\"><table class=\"hl7__eu__lab__report\"><tr><th>Test</th><th>22-Jul-2021</th><th>Reference&#xA0;Range</th><th>Unit</th></tr><tr><td>Color of Urine</td></tr></table></div>"
        },
        "status": "final",
        "subject": {
          "reference": "urn:uuid:e3ecc197-4b2c-4966-9bed-08f32b4ec182",
          "display": "Molly Jenkins"
        },
        "effectiveDateTime": "2021-07-22T14:42:11Z",
        "specimen": {
          "reference": "urn:uuid:7ccb6e56-2864-47fd-9b5e-524dea9e5697"
        }
      }
    },
    {
      "fullUrl": "urn:uuid:b923cfdd-7b77-4f07-8816-4d03b34f9570",
      "resource": {
        "resourceType": "Observation",
        "id": "b923cfdd-7b77-4f07-8816-4d03b34f9570",
        "meta": {
          "profile": [
            "http://hl7.eu/fhir/laboratory/StructureDefinition/Observation-resultslab-eu-lab"
          ]
        },
        "performer": [
          {
            "display": "The Central European Lab"
          }
        ],
        "category": [
          {
            "coding": [
              {
                "system": "http://terminology.hl7.org/CodeSystem/observation-category",
                "code": "laboratory"
              }
            ]
          }
        ],
        "code": {
          "coding": [
            {
              "code": "5792-7",
              "system": "http://loinc.org",
              "display": "Glucose [Mass/volume] in Urine by Test strip"
            }
          ],
          "text": "Glucose [Mass/volume] in Urine by Test strip"
        },
        "valueQuantity": {
          "system": "http://unitsofmeasure.org",
          "value": 0.6,
          "unit": "mg/dL",
          "code": "mg/dL"
        },
        "referenceRange": [
          {
            "low": {
              "value": 0,
              "code": "mg/dL",
              "system": "http://unitsofmeasure.org"
            }
          },
          {
            "high": {
              "value": 0,
              "code": "mg/dL",
              "system": "http://unitsofmeasure.org"
            }
          }
        ],
        "interpretation": [
          {
            "coding": [
              {
                "code": "H",
                "system": "http://terminology.hl7.org/CodeSystem/v3-ObservationInterpretation",
                "display": "High"
              }
            ]
          }
        ],
        "text": {
          "status": "generated",
          "div": "<div xmlns=\"http://www.w3.org/1999/xhtml\"><table class=\"hl7__eu__lab__report\"><tr><th>Test</th><th>22-Jul-2021</th><th>Reference&#xA0;Range</th><th>Unit</th></tr><tr><td>Glucose [Mass/volume] in Urine by Test strip</td><td>0.6</td><td>0 - 0</td><td>H</td><td>mg/dL</td></tr></table></div>"
        },
        "status": "final",
        "subject": {
          "reference": "urn:uuid:e3ecc197-4b2c-4966-9bed-08f32b4ec182",
          "display": "Molly Jenkins"
        },
        "effectiveDateTime": "2021-07-22T14:42:11Z",
        "specimen": {
          "reference": "urn:uuid:7ccb6e56-2864-47fd-9b5e-524dea9e5697"
        }
      }
    },
    {
      "fullUrl": "urn:uuid:c3c07277-5f73-49ec-b216-b182a1544612",
      "resource": {
        "resourceType": "Observation",
        "id": "c3c07277-5f73-49ec-b216-b182a1544612",
        "meta": {
          "profile": [
            "http://hl7.eu/fhir/laboratory/StructureDefinition/Observation-resultslab-eu-lab"
          ]
        },
        "performer": [
          {
            "display": "The Central European Lab"
          }
        ],
        "category": [
          {
            "coding": [
              {
                "system": "http://terminology.hl7.org/CodeSystem/observation-category",
                "code": "laboratory"
              }
            ]
          }
        ],
        "code": {
          "coding": [
            {
              "code": "25428-4",
              "system": "http://loinc.org",
              "display": "Glucose [Presence] in Urine by Test strip"
            }
          ],
          "text": "Glucose [Presence] in Urine by Test strip"
        },
        "text": {
          "status": "generated",
          "div": "<div xmlns=\"http://www.w3.org/1999/xhtml\"><table class=\"hl7__eu__lab__report\"><tr><th>Test</th><th>22-Jul-2021</th><th>Reference&#xA0;Range</th><th>Unit</th></tr><tr><td>Glucose [Presence] in Urine by Test strip</td></tr></table></div>"
        },
        "status": "final",
        "subject": {
          "reference": "urn:uuid:e3ecc197-4b2c-4966-9bed-08f32b4ec182",
          "display": "Molly Jenkins"
        },
        "effectiveDateTime": "2021-07-22T14:42:11Z",
        "specimen": {
          "reference": "urn:uuid:7ccb6e56-2864-47fd-9b5e-524dea9e5697"
        }
      }
    },
    {
      "fullUrl": "urn:uuid:47e9bf7a-fb11-4fc5-aec7-dc4829e87931",
      "resource": {
        "resourceType": "Observation",
        "id": "47e9bf7a-fb11-4fc5-aec7-dc4829e87931",
        "meta": {
          "profile": [
            "http://hl7.eu/fhir/laboratory/StructureDefinition/Observation-resultslab-eu-lab"
          ]
        },
        "performer": [
          {
            "display": "The Central European Lab"
          }
        ],
        "category": [
          {
            "coding": [
              {
                "system": "http://terminology.hl7.org/CodeSystem/observation-category",
                "code": "laboratory"
              }
            ]
          }
        ],
        "code": {
          "coding": [
            {
              "code": "20505-4",
              "system": "http://loinc.org",
              "display": "Bilirubin.total [Mass/volume] in Urine by Test strip"
            }
          ],
          "text": "Bilirubin.total [Mass/volume] in Urine by Test strip"
        },
        "valueQuantity": {
          "system": "http://unitsofmeasure.org",
          "value": 0.7,
          "unit": "mg/dL",
          "code": "mg/dL"
        },
        "referenceRange": [
          {
            "low": {
              "value": 0,
              "code": "mg/dL",
              "system": "http://unitsofmeasure.org"
            }
          },
          {
            "high": {
              "value": 1.6,
              "code": "mg/dL",
              "system": "http://unitsofmeasure.org"
            }
          }
        ],
        "text": {
          "status": "generated",
          "div": "<div xmlns=\"http://www.w3.org/1999/xhtml\"><table class=\"hl7__eu__lab__report\"><tr><th>Test</th><th>22-Jul-2021</th><th>Reference&#xA0;Range</th><th>Unit</th></tr><tr><td>Bilirubin.total [Mass/volume] in Urine by Test strip</td><td>0.7</td><td>0 - 1.6</td><td></td><td>mg/dL</td></tr></table></div>"
        },
        "status": "final",
        "subject": {
          "reference": "urn:uuid:e3ecc197-4b2c-4966-9bed-08f32b4ec182",
          "display": "Molly Jenkins"
        },
        "effectiveDateTime": "2021-07-22T14:42:11Z",
        "specimen": {
          "reference": "urn:uuid:7ccb6e56-2864-47fd-9b5e-524dea9e5697"
        }
      }
    },
    {
      "fullUrl": "urn:uuid:25d7f572-d555-46a8-97ee-924c01df18c7",
      "resource": {
        "resourceType": "Observation",
        "id": "25d7f572-d555-46a8-97ee-924c01df18c7",
        "meta": {
          "profile": [
            "http://hl7.eu/fhir/laboratory/StructureDefinition/Observation-resultslab-eu-lab"
          ]
        },
        "performer": [
          {
            "display": "The Central European Lab"
          }
        ],
        "category": [
          {
            "coding": [
              {
                "system": "http://terminology.hl7.org/CodeSystem/observation-category",
                "code": "laboratory"
              }
            ]
          }
        ],
        "code": {
          "coding": [
            {
              "code": "5770-3",
              "system": "http://loinc.org",
              "display": "Bilirubin.total [Presence] in Urine by Test strip"
            }
          ],
          "text": "Bilirubin.total [Presence] in Urine by Test strip"
        },
        "text": {
          "status": "generated",
          "div": "<div xmlns=\"http://www.w3.org/1999/xhtml\"><table class=\"hl7__eu__lab__report\"><tr><th>Test</th><th>22-Jul-2021</th><th>Reference&#xA0;Range</th><th>Unit</th></tr><tr><td>Bilirubin.total [Presence] in Urine by Test strip</td></tr></table></div>"
        },
        "status": "final",
        "subject": {
          "reference": "urn:uuid:e3ecc197-4b2c-4966-9bed-08f32b4ec182",
          "display": "Molly Jenkins"
        },
        "effectiveDateTime": "2021-07-22T14:42:11Z",
        "specimen": {
          "reference": "urn:uuid:7ccb6e56-2864-47fd-9b5e-524dea9e5697"
        }
      }
    },
    {
      "fullUrl": "urn:uuid:a285708f-53c8-424c-80bb-b8eaea358f67",
      "resource": {
        "resourceType": "Observation",
        "id": "a285708f-53c8-424c-80bb-b8eaea358f67",
        "meta": {
          "profile": [
            "http://hl7.eu/fhir/laboratory/StructureDefinition/Observation-resultslab-eu-lab"
          ]
        },
        "performer": [
          {
            "display": "The Central European Lab"
          }
        ],
        "category": [
          {
            "coding": [
              {
                "system": "http://terminology.hl7.org/CodeSystem/observation-category",
                "code": "laboratory"
              }
            ]
          }
        ],
        "code": {
          "coding": [
            {
              "code": "5797-6",
              "system": "http://loinc.org",
              "display": "Ketones [Mass/volume] in Urine by Test strip"
            }
          ],
          "text": "Ketones [Mass/volume] in Urine by Test strip"
        },
        "valueQuantity": {
          "system": "http://unitsofmeasure.org",
          "value": 9.3,
          "unit": "mg/dL",
          "code": "mg/dL"
        },
        "referenceRange": [
          {
            "low": {
              "value": 0,
              "code": "mg/dL",
              "system": "http://unitsofmeasure.org"
            }
          },
          {
            "high": {
              "value": 0.5,
              "code": "mg/dL",
              "system": "http://unitsofmeasure.org"
            }
          }
        ],
        "interpretation": [
          {
            "coding": [
              {
                "code": "H",
                "system": "http://terminology.hl7.org/CodeSystem/v3-ObservationInterpretation",
                "display": "High"
              }
            ]
          }
        ],
        "text": {
          "status": "generated",
          "div": "<div xmlns=\"http://www.w3.org/1999/xhtml\"><table class=\"hl7__eu__lab__report\"><tr><th>Test</th><th>22-Jul-2021</th><th>Reference&#xA0;Range</th><th>Unit</th></tr><tr><td>Ketones [Mass/volume] in Urine by Test strip</td><td>9.3</td><td>0 - 0.5</td><td>H</td><td>mg/dL</td></tr></table></div>"
        },
        "status": "final",
        "subject": {
          "reference": "urn:uuid:e3ecc197-4b2c-4966-9bed-08f32b4ec182",
          "display": "Molly Jenkins"
        },
        "effectiveDateTime": "2021-07-22T14:42:11Z",
        "specimen": {
          "reference": "urn:uuid:7ccb6e56-2864-47fd-9b5e-524dea9e5697"
        }
      }
    },
    {
      "fullUrl": "urn:uuid:358e0a29-905a-416b-a8a7-4092c7e2d919",
      "resource": {
        "resourceType": "Observation",
        "id": "358e0a29-905a-416b-a8a7-4092c7e2d919",
        "meta": {
          "profile": [
            "http://hl7.eu/fhir/laboratory/StructureDefinition/Observation-resultslab-eu-lab"
          ]
        },
        "performer": [
          {
            "display": "The Central European Lab"
          }
        ],
        "category": [
          {
            "coding": [
              {
                "system": "http://terminology.hl7.org/CodeSystem/observation-category",
                "code": "laboratory"
              }
            ]
          }
        ],
        "code": {
          "coding": [
            {
              "code": "2514-8",
              "system": "http://loinc.org",
              "display": "Ketones [Presence] in Urine by Test strip"
            }
          ],
          "text": "Ketones [Presence] in Urine by Test strip"
        },
        "text": {
          "status": "generated",
          "div": "<div xmlns=\"http://www.w3.org/1999/xhtml\"><table class=\"hl7__eu__lab__report\"><tr><th>Test</th><th>22-Jul-2021</th><th>Reference&#xA0;Range</th><th>Unit</th></tr><tr><td>Ketones [Presence] in Urine by Test strip</td></tr></table></div>"
        },
        "status": "final",
        "subject": {
          "reference": "urn:uuid:e3ecc197-4b2c-4966-9bed-08f32b4ec182",
          "display": "Molly Jenkins"
        },
        "effectiveDateTime": "2021-07-22T14:42:11Z",
        "specimen": {
          "reference": "urn:uuid:7ccb6e56-2864-47fd-9b5e-524dea9e5697"
        }
      }
    },
    {
      "fullUrl": "urn:uuid:9a468d67-3f36-4329-8f8c-5ace44fbc4e9",
      "resource": {
        "resourceType": "Observation",
        "id": "9a468d67-3f36-4329-8f8c-5ace44fbc4e9",
        "meta": {
          "profile": [
            "http://hl7.eu/fhir/laboratory/StructureDefinition/Observation-resultslab-eu-lab"
          ]
        },
        "performer": [
          {
            "display": "The Central European Lab"
          }
        ],
        "category": [
          {
            "coding": [
              {
                "system": "http://terminology.hl7.org/CodeSystem/observation-category",
                "code": "laboratory"
              }
            ]
          }
        ],
        "code": {
          "coding": [
            {
              "code": "5811-5",
              "system": "http://loinc.org",
              "display": "Specific gravity of Urine by Test strip"
            }
          ],
          "text": "Specific gravity of Urine by Test strip"
        },
        "valueQuantity": {
          "system": "http://unitsofmeasure.org",
          "value": 1,
          "unit": "{nominal}",
          "code": "{nominal}"
        },
        "referenceRange": [
          {
            "low": {
              "value": 1.005,
              "code": "g/mL",
              "system": "http://unitsofmeasure.org"
            }
          },
          {
            "high": {
              "value": 1.03,
              "code": "g/mL",
              "system": "http://unitsofmeasure.org"
            }
          }
        ],
        "interpretation": [
          {
            "coding": [
              {
                "code": "L",
                "system": "http://terminology.hl7.org/CodeSystem/v3-ObservationInterpretation",
                "display": "Low"
              }
            ]
          }
        ],
        "text": {
          "status": "generated",
          "div": "<div xmlns=\"http://www.w3.org/1999/xhtml\"><table class=\"hl7__eu__lab__report\"><tr><th>Test</th><th>22-Jul-2021</th><th>Reference&#xA0;Range</th><th>Unit</th></tr><tr><td>Specific gravity of Urine by Test strip</td><td>1.0</td><td>1.005 - 1.03</td><td>L</td><td>{nominal}</td></tr></table></div>"
        },
        "status": "final",
        "subject": {
          "reference": "urn:uuid:e3ecc197-4b2c-4966-9bed-08f32b4ec182",
          "display": "Molly Jenkins"
        },
        "effectiveDateTime": "2021-07-22T14:42:11Z",
        "specimen": {
          "reference": "urn:uuid:7ccb6e56-2864-47fd-9b5e-524dea9e5697"
        }
      }
    },
    {
      "fullUrl": "urn:uuid:1ab2c98f-6a08-4bff-9a8b-cf6ecc46ffa7",
      "resource": {
        "resourceType": "Observation",
        "id": "1ab2c98f-6a08-4bff-9a8b-cf6ecc46ffa7",
        "meta": {
          "profile": [
            "http://hl7.eu/fhir/laboratory/StructureDefinition/Observation-resultslab-eu-lab"
          ]
        },
        "performer": [
          {
            "display": "The Central European Lab"
          }
        ],
        "category": [
          {
            "coding": [
              {
                "system": "http://terminology.hl7.org/CodeSystem/observation-category",
                "code": "laboratory"
              }
            ]
          }
        ],
        "code": {
          "coding": [
            {
              "code": "5803-2",
              "system": "http://loinc.org",
              "display": "pH of Urine by Test strip"
            }
          ],
          "text": "pH of Urine by Test strip"
        },
        "valueQuantity": {
          "system": "http://unitsofmeasure.org",
          "value": 6.1,
          "unit": "pH",
          "code": "pH"
        },
        "referenceRange": [
          {
            "low": {
              "value": 4.5,
              "code": "pH",
              "system": "http://unitsofmeasure.org"
            }
          },
          {
            "high": {
              "value": 7.5,
              "code": "pH",
              "system": "http://unitsofmeasure.org"
            }
          }
        ],
        "text": {
          "status": "generated",
          "div": "<div xmlns=\"http://www.w3.org/1999/xhtml\"><table class=\"hl7__eu__lab__report\"><tr><th>Test</th><th>22-Jul-2021</th><th>Reference&#xA0;Range</th><th>Unit</th></tr><tr><td>pH of Urine by Test strip</td><td>6.1</td><td>4.5 - 7.5</td><td></td><td>pH</td></tr></table></div>"
        },
        "status": "final",
        "subject": {
          "reference": "urn:uuid:e3ecc197-4b2c-4966-9bed-08f32b4ec182",
          "display": "Molly Jenkins"
        },
        "effectiveDateTime": "2021-07-22T14:42:11Z",
        "specimen": {
          "reference": "urn:uuid:7ccb6e56-2864-47fd-9b5e-524dea9e5697"
        }
      }
    },
    {
      "fullUrl": "urn:uuid:5dfc5dee-faf1-4dd1-b824-cde035ccb5df",
      "resource": {
        "resourceType": "Observation",
        "id": "5dfc5dee-faf1-4dd1-b824-cde035ccb5df",
        "meta": {
          "profile": [
            "http://hl7.eu/fhir/laboratory/StructureDefinition/Observation-resultslab-eu-lab"
          ]
        },
        "performer": [
          {
            "display": "The Central European Lab"
          }
        ],
        "category": [
          {
            "coding": [
              {
                "system": "http://terminology.hl7.org/CodeSystem/observation-category",
                "code": "laboratory"
              }
            ]
          }
        ],
        "code": {
          "coding": [
            {
              "code": "5804-0",
              "system": "http://loinc.org",
              "display": "Protein [Mass/volume] in Urine by Test strip"
            }
          ],
          "text": "Protein [Mass/volume] in Urine by Test strip"
        },
        "valueQuantity": {
          "system": "http://unitsofmeasure.org",
          "value": 280.1,
          "unit": "mg/dL",
          "code": "mg/dL"
        },
        "referenceRange": [
          {
            "low": {
              "value": 0,
              "code": "mg/dL",
              "system": "http://unitsofmeasure.org"
            }
          },
          {
            "high": {
              "value": 15,
              "code": "mg/dL",
              "system": "http://unitsofmeasure.org"
            }
          }
        ],
        "interpretation": [
          {
            "coding": [
              {
                "code": "H",
                "system": "http://terminology.hl7.org/CodeSystem/v3-ObservationInterpretation",
                "display": "High"
              }
            ]
          }
        ],
        "text": {
          "status": "generated",
          "div": "<div xmlns=\"http://www.w3.org/1999/xhtml\"><table class=\"hl7__eu__lab__report\"><tr><th>Test</th><th>22-Jul-2021</th><th>Reference&#xA0;Range</th><th>Unit</th></tr><tr><td>Protein [Mass/volume] in Urine by Test strip</td><td>280.1</td><td>0 - 15</td><td>H</td><td>mg/dL</td></tr></table></div>"
        },
        "status": "final",
        "subject": {
          "reference": "urn:uuid:e3ecc197-4b2c-4966-9bed-08f32b4ec182",
          "display": "Molly Jenkins"
        },
        "effectiveDateTime": "2021-07-22T14:42:11Z",
        "specimen": {
          "reference": "urn:uuid:7ccb6e56-2864-47fd-9b5e-524dea9e5697"
        }
      }
    },
    {
      "fullUrl": "urn:uuid:1b52424d-a40e-4784-848c-707f591b68cb",
      "resource": {
        "resourceType": "Observation",
        "id": "1b52424d-a40e-4784-848c-707f591b68cb",
        "meta": {
          "profile": [
            "http://hl7.eu/fhir/laboratory/StructureDefinition/Observation-resultslab-eu-lab"
          ]
        },
        "performer": [
          {
            "display": "The Central European Lab"
          }
        ],
        "category": [
          {
            "coding": [
              {
                "system": "http://terminology.hl7.org/CodeSystem/observation-category",
                "code": "laboratory"
              }
            ]
          }
        ],
        "code": {
          "coding": [
            {
              "code": "20454-5",
              "system": "http://loinc.org",
              "display": "Protein [Presence] in Urine by Test strip"
            }
          ],
          "text": "Protein [Presence] in Urine by Test strip"
        },
        "text": {
          "status": "generated",
          "div": "<div xmlns=\"http://www.w3.org/1999/xhtml\"><table class=\"hl7__eu__lab__report\"><tr><th>Test</th><th>22-Jul-2021</th><th>Reference&#xA0;Range</th><th>Unit</th></tr><tr><td>Protein [Presence] in Urine by Test strip</td></tr></table></div>"
        },
        "status": "final",
        "subject": {
          "reference": "urn:uuid:e3ecc197-4b2c-4966-9bed-08f32b4ec182",
          "display": "Molly Jenkins"
        },
        "effectiveDateTime": "2021-07-22T14:42:11Z",
        "specimen": {
          "reference": "urn:uuid:7ccb6e56-2864-47fd-9b5e-524dea9e5697"
        }
      }
    },
    {
      "fullUrl": "urn:uuid:23c2409d-7839-4f4a-944c-17c694cbc807",
      "resource": {
        "resourceType": "Observation",
        "id": "23c2409d-7839-4f4a-944c-17c694cbc807",
        "meta": {
          "profile": [
            "http://hl7.eu/fhir/laboratory/StructureDefinition/Observation-resultslab-eu-lab"
          ]
        },
        "performer": [
          {
            "display": "The Central European Lab"
          }
        ],
        "category": [
          {
            "coding": [
              {
                "system": "http://terminology.hl7.org/CodeSystem/observation-category",
                "code": "laboratory"
              }
            ]
          }
        ],
        "code": {
          "coding": [
            {
              "code": "5802-4",
              "system": "http://loinc.org",
              "display": "Nitrite [Presence] in Urine by Test strip"
            }
          ],
          "text": "Nitrite [Presence] in Urine by Test strip"
        },
        "text": {
          "status": "generated",
          "div": "<div xmlns=\"http://www.w3.org/1999/xhtml\"><table class=\"hl7__eu__lab__report\"><tr><th>Test</th><th>22-Jul-2021</th><th>Reference&#xA0;Range</th><th>Unit</th></tr><tr><td>Nitrite [Presence] in Urine by Test strip</td></tr></table></div>"
        },
        "status": "final",
        "subject": {
          "reference": "urn:uuid:e3ecc197-4b2c-4966-9bed-08f32b4ec182",
          "display": "Molly Jenkins"
        },
        "effectiveDateTime": "2021-07-22T14:42:11Z",
        "specimen": {
          "reference": "urn:uuid:7ccb6e56-2864-47fd-9b5e-524dea9e5697"
        }
      }
    },
    {
      "fullUrl": "urn:uuid:c05afb72-9954-4043-b885-960c6d953662",
      "resource": {
        "resourceType": "Observation",
        "id": "c05afb72-9954-4043-b885-960c6d953662",
        "meta": {
          "profile": [
            "http://hl7.eu/fhir/laboratory/StructureDefinition/Observation-resultslab-eu-lab"
          ]
        },
        "performer": [
          {
            "display": "The Central European Lab"
          }
        ],
        "category": [
          {
            "coding": [
              {
                "system": "http://terminology.hl7.org/CodeSystem/observation-category",
                "code": "laboratory"
              }
            ]
          }
        ],
        "code": {
          "coding": [
            {
              "code": "5794-3",
              "system": "http://loinc.org",
              "display": "Hemoglobin [Presence] in Urine by Test strip"
            }
          ],
          "text": "Hemoglobin [Presence] in Urine by Test strip"
        },
        "text": {
          "status": "generated",
          "div": "<div xmlns=\"http://www.w3.org/1999/xhtml\"><table class=\"hl7__eu__lab__report\"><tr><th>Test</th><th>22-Jul-2021</th><th>Reference&#xA0;Range</th><th>Unit</th></tr><tr><td>Hemoglobin [Presence] in Urine by Test strip</td></tr></table></div>"
        },
        "status": "final",
        "subject": {
          "reference": "urn:uuid:e3ecc197-4b2c-4966-9bed-08f32b4ec182",
          "display": "Molly Jenkins"
        },
        "effectiveDateTime": "2021-07-22T14:42:11Z",
        "specimen": {
          "reference": "urn:uuid:7ccb6e56-2864-47fd-9b5e-524dea9e5697"
        }
      }
    },
    {
      "fullUrl": "urn:uuid:905e3cad-c66f-4ad0-9ad0-bdf248575bf7",
      "resource": {
        "resourceType": "Observation",
        "id": "905e3cad-c66f-4ad0-9ad0-bdf248575bf7",
        "meta": {
          "profile": [
            "http://hl7.eu/fhir/laboratory/StructureDefinition/Observation-resultslab-eu-lab"
          ]
        },
        "performer": [
          {
            "display": "The Central European Lab"
          }
        ],
        "category": [
          {
            "coding": [
              {
                "system": "http://terminology.hl7.org/CodeSystem/observation-category",
                "code": "laboratory"
              }
            ]
          }
        ],
        "code": {
          "coding": [
            {
              "code": "5799-2",
              "system": "http://loinc.org",
              "display": "Leukocyte esterase [Presence] in Urine by Test strip"
            }
          ],
          "text": "Leukocyte esterase [Presence] in Urine by Test strip"
        },
        "text": {
          "status": "generated",
          "div": "<div xmlns=\"http://www.w3.org/1999/xhtml\"><table class=\"hl7__eu__lab__report\"><tr><th>Test</th><th>22-Jul-2021</th><th>Reference&#xA0;Range</th><th>Unit</th></tr><tr><td>Leukocyte esterase [Presence] in Urine by Test strip</td></tr></table></div>"
        },
        "status": "final",
        "subject": {
          "reference": "urn:uuid:e3ecc197-4b2c-4966-9bed-08f32b4ec182",
          "display": "Molly Jenkins"
        },
        "effectiveDateTime": "2021-07-22T14:42:11Z",
        "specimen": {
          "reference": "urn:uuid:7ccb6e56-2864-47fd-9b5e-524dea9e5697"
        }
      }
    },
    {
      "fullUrl": "urn:uuid:dd3b3abf-ea45-4bab-9ae4-d6bba9002f8a",
      "resource": {
        "resourceType": "Observation",
        "id": "dd3b3abf-ea45-4bab-9ae4-d6bba9002f8a",
        "meta": {
          "profile": [
            "http://hl7.eu/fhir/laboratory/StructureDefinition/Observation-resultslab-eu-lab"
          ]
        },
        "performer": [
          {
            "display": "The Central European Lab"
          }
        ],
        "category": [
          {
            "coding": [
              {
                "system": "http://terminology.hl7.org/CodeSystem/observation-category",
                "code": "laboratory"
              }
            ]
          }
        ],
        "code": {
          "coding": [
            {
              "code": "4548-4",
              "system": "http://loinc.org",
              "display": "Hemoglobin A1c/Hemoglobin.total in Blood"
            }
          ],
          "text": "Hemoglobin A1c/Hemoglobin.total in Blood"
        },
        "valueQuantity": {
          "system": "http://unitsofmeasure.org",
          "value": 3.2,
          "unit": "%",
          "code": "%"
        },
        "referenceRange": [
          {
            "low": {
              "value": 4,
              "code": "%",
              "system": "http://unitsofmeasure.org"
            }
          },
          {
            "high": {
              "value": 6,
              "code": "%",
              "system": "http://unitsofmeasure.org"
            }
          }
        ],
        "interpretation": [
          {
            "coding": [
              {
                "code": "L",
                "system": "http://terminology.hl7.org/CodeSystem/v3-ObservationInterpretation",
                "display": "Low"
              }
            ]
          }
        ],
        "text": {
          "status": "generated",
          "div": "<div xmlns=\"http://www.w3.org/1999/xhtml\"><table class=\"hl7__eu__lab__report\"><tr><th>Test</th><th>22-Jul-2021</th><th>Reference&#xA0;Range</th><th>Unit</th></tr><tr><td>Hemoglobin A1c/Hemoglobin.total in Blood</td><td>3.2</td><td>4 - 6</td><td>L</td><td>%</td></tr></table></div>"
        },
        "status": "final",
        "subject": {
          "reference": "urn:uuid:e3ecc197-4b2c-4966-9bed-08f32b4ec182",
          "display": "Molly Jenkins"
        },
        "effectiveDateTime": "2021-07-22T14:42:11Z",
        "specimen": {
          "reference": "urn:uuid:b74fe10c-3c3b-4b4c-ba0b-ccb15b3e19c0"
        }
      }
    },
    {
      "fullUrl": "urn:uuid:5ce487d2-6fd7-4998-b421-50ddd7f4c070",
      "resource": {
        "resourceType": "Observation",
        "id": "5ce487d2-6fd7-4998-b421-50ddd7f4c070",
        "meta": {
          "profile": [
            "http://hl7.eu/fhir/laboratory/StructureDefinition/Observation-resultslab-eu-lab"
          ]
        },
        "performer": [
          {
            "display": "The Central European Lab"
          }
        ],
        "category": [
          {
            "coding": [
              {
                "system": "http://terminology.hl7.org/CodeSystem/observation-category",
                "code": "laboratory"
              }
            ]
          }
        ],
        "code": {
          "coding": [
            {
              "code": "2339-0",
              "system": "http://loinc.org",
              "display": "Glucose [Mass/volume] in Blood"
            }
          ],
          "text": "Glucose [Mass/volume] in Blood"
        },
        "valueQuantity": {
          "system": "http://unitsofmeasure.org",
          "value": 76.1,
          "unit": "mg/dL",
          "code": "mg/dL"
        },
        "referenceRange": [
          {
            "low": {
              "value": 70,
              "code": "mg/dL",
              "system": "http://unitsofmeasure.org"
            }
          },
          {
            "high": {
              "value": 100,
              "code": "mg/dL",
              "system": "http://unitsofmeasure.org"
            }
          }
        ],
        "text": {
          "status": "generated",
          "div": "<div xmlns=\"http://www.w3.org/1999/xhtml\"><table class=\"hl7__eu__lab__report\"><tr><th>Test</th><th>22-Jul-2021</th><th>Reference&#xA0;Range</th><th>Unit</th></tr><tr><td>Glucose [Mass/volume] in Blood</td><td>76.1</td><td>70 - 100</td><td></td><td>mg/dL</td></tr></table></div>"
        },
        "status": "final",
        "subject": {
          "reference": "urn:uuid:e3ecc197-4b2c-4966-9bed-08f32b4ec182",
          "display": "Molly Jenkins"
        },
        "effectiveDateTime": "2021-07-22T14:42:11Z",
        "specimen": {
          "reference": "urn:uuid:b74fe10c-3c3b-4b4c-ba0b-ccb15b3e19c0"
        }
      }
    },
    {
      "fullUrl": "urn:uuid:e38ef3a1-6136-4ccf-9c07-bc260e523733",
      "resource": {
        "resourceType": "Observation",
        "id": "e38ef3a1-6136-4ccf-9c07-bc260e523733",
        "meta": {
          "profile": [
            "http://hl7.eu/fhir/laboratory/StructureDefinition/Observation-resultslab-eu-lab"
          ]
        },
        "performer": [
          {
            "display": "The Central European Lab"
          }
        ],
        "category": [
          {
            "coding": [
              {
                "system": "http://terminology.hl7.org/CodeSystem/observation-category",
                "code": "laboratory"
              }
            ]
          }
        ],
        "code": {
          "coding": [
            {
              "code": "6299-2",
              "system": "http://loinc.org",
              "display": "Urea nitrogen [Mass/volume] in Blood"
            }
          ],
          "text": "Urea nitrogen [Mass/volume] in Blood"
        },
        "valueQuantity": {
          "system": "http://unitsofmeasure.org",
          "value": 12.7,
          "unit": "mg/dL",
          "code": "mg/dL"
        },
        "referenceRange": [
          {
            "low": {
              "value": 7,
              "code": "mg/dL",
              "system": "http://unitsofmeasure.org"
            }
          },
          {
            "high": {
              "value": 20,
              "code": "mg/dL",
              "system": "http://unitsofmeasure.org"
            }
          }
        ],
        "text": {
          "status": "generated",
          "div": "<div xmlns=\"http://www.w3.org/1999/xhtml\"><table class=\"hl7__eu__lab__report\"><tr><th>Test</th><th>22-Jul-2021</th><th>Reference&#xA0;Range</th><th>Unit</th></tr><tr><td>Urea nitrogen [Mass/volume] in Blood</td><td>12.7</td><td>7 - 20</td><td></td><td>mg/dL</td></tr></table></div>"
        },
        "status": "final",
        "subject": {
          "reference": "urn:uuid:e3ecc197-4b2c-4966-9bed-08f32b4ec182",
          "display": "Molly Jenkins"
        },
        "effectiveDateTime": "2021-07-22T14:42:11Z",
        "specimen": {
          "reference": "urn:uuid:b74fe10c-3c3b-4b4c-ba0b-ccb15b3e19c0"
        }
      }
    },
    {
      "fullUrl": "urn:uuid:016fca29-2a4d-4e65-b42a-1d1189524818",
      "resource": {
        "resourceType": "Observation",
        "id": "016fca29-2a4d-4e65-b42a-1d1189524818",
        "meta": {
          "profile": [
            "http://hl7.eu/fhir/laboratory/StructureDefinition/Observation-resultslab-eu-lab"
          ]
        },
        "performer": [
          {
            "display": "The Central European Lab"
          }
        ],
        "category": [
          {
            "coding": [
              {
                "system": "http://terminology.hl7.org/CodeSystem/observation-category",
                "code": "laboratory"
              }
            ]
          }
        ],
        "code": {
          "coding": [
            {
              "code": "38483-4",
              "system": "http://loinc.org",
              "display": "Creatinine [Mass/volume] in Blood"
            }
          ],
          "text": "Creatinine [Mass/volume] in Blood"
        },
        "valueQuantity": {
          "system": "http://unitsofmeasure.org",
          "value": 1.3,
          "unit": "mg/dL",
          "code": "mg/dL"
        },
        "referenceRange": [
          {
            "low": {
              "value": 0.6,
              "code": "mg/dL",
              "system": "http://unitsofmeasure.org"
            }
          },
          {
            "high": {
              "value": 1.3,
              "code": "mg/dL",
              "system": "http://unitsofmeasure.org"
            }
          }
        ],
        "text": {
          "status": "generated",
          "div": "<div xmlns=\"http://www.w3.org/1999/xhtml\"><table class=\"hl7__eu__lab__report\"><tr><th>Test</th><th>22-Jul-2021</th><th>Reference&#xA0;Range</th><th>Unit</th></tr><tr><td>Creatinine [Mass/volume] in Blood</td><td>1.3</td><td>0.6 - 1.3</td><td></td><td>mg/dL</td></tr></table></div>"
        },
        "status": "final",
        "subject": {
          "reference": "urn:uuid:e3ecc197-4b2c-4966-9bed-08f32b4ec182",
          "display": "Molly Jenkins"
        },
        "effectiveDateTime": "2021-07-22T14:42:11Z",
        "specimen": {
          "reference": "urn:uuid:b74fe10c-3c3b-4b4c-ba0b-ccb15b3e19c0"
        }
      }
    },
    {
      "fullUrl": "urn:uuid:8d506094-ec6a-4f6d-850f-56d5b8c8a01a",
      "resource": {
        "resourceType": "Observation",
        "id": "8d506094-ec6a-4f6d-850f-56d5b8c8a01a",
        "meta": {
          "profile": [
            "http://hl7.eu/fhir/laboratory/StructureDefinition/Observation-resultslab-eu-lab"
          ]
        },
        "performer": [
          {
            "display": "The Central European Lab"
          }
        ],
        "category": [
          {
            "coding": [
              {
                "system": "http://terminology.hl7.org/CodeSystem/observation-category",
                "code": "laboratory"
              }
            ]
          }
        ],
        "code": {
          "coding": [
            {
              "code": "49765-1",
              "system": "http://loinc.org",
              "display": "Calcium [Mass/volume] in Blood"
            }
          ],
          "text": "Calcium [Mass/volume] in Blood"
        },
        "valueQuantity": {
          "system": "http://unitsofmeasure.org",
          "value": 9.5,
          "unit": "mg/dL",
          "code": "mg/dL"
        },
        "referenceRange": [
          {
            "low": {
              "value": 8.6,
              "code": "mg/dL",
              "system": "http://unitsofmeasure.org"
            }
          },
          {
            "high": {
              "value": 10.4,
              "code": "mg/dL",
              "system": "http://unitsofmeasure.org"
            }
          }
        ],
        "text": {
          "status": "generated",
          "div": "<div xmlns=\"http://www.w3.org/1999/xhtml\"><table class=\"hl7__eu__lab__report\"><tr><th>Test</th><th>22-Jul-2021</th><th>Reference&#xA0;Range</th><th>Unit</th></tr><tr><td>Calcium [Mass/volume] in Blood</td><td>9.5</td><td>8.6 - 10.4</td><td></td><td>mg/dL</td></tr></table></div>"
        },
        "status": "final",
        "subject": {
          "reference": "urn:uuid:e3ecc197-4b2c-4966-9bed-08f32b4ec182",
          "display": "Molly Jenkins"
        },
        "effectiveDateTime": "2021-07-22T14:42:11Z",
        "specimen": {
          "reference": "urn:uuid:b74fe10c-3c3b-4b4c-ba0b-ccb15b3e19c0"
        }
      }
    },
    {
      "fullUrl": "urn:uuid:774a3e93-637f-4f87-a5ed-a2ba5885c27d",
      "resource": {
        "resourceType": "Observation",
        "id": "774a3e93-637f-4f87-a5ed-a2ba5885c27d",
        "meta": {
          "profile": [
            "http://hl7.eu/fhir/laboratory/StructureDefinition/Observation-resultslab-eu-lab"
          ]
        },
        "performer": [
          {
            "display": "The Central European Lab"
          }
        ],
        "category": [
          {
            "coding": [
              {
                "system": "http://terminology.hl7.org/CodeSystem/observation-category",
                "code": "laboratory"
              }
            ]
          }
        ],
        "code": {
          "coding": [
            {
              "code": "2947-0",
              "system": "http://loinc.org",
              "display": "Sodium [Moles/volume] in Blood"
            }
          ],
          "text": "Sodium [Moles/volume] in Blood"
        },
        "valueQuantity": {
          "system": "http://unitsofmeasure.org",
          "value": 140.7,
          "unit": "mmol/L",
          "code": "mmol/L"
        },
        "referenceRange": [
          {
            "low": {
              "value": 135,
              "code": "mmol/L",
              "system": "http://unitsofmeasure.org"
            }
          },
          {
            "high": {
              "value": 145,
              "code": "mmol/L",
              "system": "http://unitsofmeasure.org"
            }
          }
        ],
        "text": {
          "status": "generated",
          "div": "<div xmlns=\"http://www.w3.org/1999/xhtml\"><table class=\"hl7__eu__lab__report\"><tr><th>Test</th><th>22-Jul-2021</th><th>Reference&#xA0;Range</th><th>Unit</th></tr><tr><td>Sodium [Moles/volume] in Blood</td><td>140.7</td><td>135 - 145</td><td></td><td>mmol/L</td></tr></table></div>"
        },
        "status": "final",
        "subject": {
          "reference": "urn:uuid:e3ecc197-4b2c-4966-9bed-08f32b4ec182",
          "display": "Molly Jenkins"
        },
        "effectiveDateTime": "2021-07-22T14:42:11Z",
        "specimen": {
          "reference": "urn:uuid:b74fe10c-3c3b-4b4c-ba0b-ccb15b3e19c0"
        }
      }
    },
    {
      "fullUrl": "urn:uuid:b8cb94a3-b0c9-45f0-a175-89604d2ff1bc",
      "resource": {
        "resourceType": "Observation",
        "id": "b8cb94a3-b0c9-45f0-a175-89604d2ff1bc",
        "meta": {
          "profile": [
            "http://hl7.eu/fhir/laboratory/StructureDefinition/Observation-resultslab-eu-lab"
          ]
        },
        "performer": [
          {
            "display": "The Central European Lab"
          }
        ],
        "category": [
          {
            "coding": [
              {
                "system": "http://terminology.hl7.org/CodeSystem/observation-category",
                "code": "laboratory"
              }
            ]
          }
        ],
        "code": {
          "coding": [
            {
              "code": "6298-4",
              "system": "http://loinc.org",
              "display": "Potassium [Moles/volume] in Blood"
            }
          ],
          "text": "Potassium [Moles/volume] in Blood"
        },
        "valueQuantity": {
          "system": "http://unitsofmeasure.org",
          "value": 5.1,
          "unit": "mmol/L",
          "code": "mmol/L"
        },
        "referenceRange": [
          {
            "low": {
              "value": 3.5,
              "code": "mmol/L",
              "system": "http://unitsofmeasure.org"
            }
          },
          {
            "high": {
              "value": 5.1,
              "code": "mmol/L",
              "system": "http://unitsofmeasure.org"
            }
          }
        ],
        "text": {
          "status": "generated",
          "div": "<div xmlns=\"http://www.w3.org/1999/xhtml\"><table class=\"hl7__eu__lab__report\"><tr><th>Test</th><th>22-Jul-2021</th><th>Reference&#xA0;Range</th><th>Unit</th></tr><tr><td>Potassium [Moles/volume] in Blood</td><td>5.1</td><td>3.5 - 5.1</td><td></td><td>mmol/L</td></tr></table></div>"
        },
        "status": "final",
        "subject": {
          "reference": "urn:uuid:e3ecc197-4b2c-4966-9bed-08f32b4ec182",
          "display": "Molly Jenkins"
        },
        "effectiveDateTime": "2021-07-22T14:42:11Z",
        "specimen": {
          "reference": "urn:uuid:b74fe10c-3c3b-4b4c-ba0b-ccb15b3e19c0"
        }
      }
    },
    {
      "fullUrl": "urn:uuid:776f1921-3ae8-4c96-bdca-8a532b1c11a2",
      "resource": {
        "resourceType": "Observation",
        "id": "776f1921-3ae8-4c96-bdca-8a532b1c11a2",
        "meta": {
          "profile": [
            "http://hl7.eu/fhir/laboratory/StructureDefinition/Observation-resultslab-eu-lab"
          ]
        },
        "performer": [
          {
            "display": "The Central European Lab"
          }
        ],
        "category": [
          {
            "coding": [
              {
                "system": "http://terminology.hl7.org/CodeSystem/observation-category",
                "code": "laboratory"
              }
            ]
          }
        ],
        "code": {
          "coding": [
            {
              "code": "2069-3",
              "system": "http://loinc.org",
              "display": "Chloride [Moles/volume] in Blood"
            }
          ],
          "text": "Chloride [Moles/volume] in Blood"
        },
        "valueQuantity": {
          "system": "http://unitsofmeasure.org",
          "value": 104.4,
          "unit": "mmol/L",
          "code": "mmol/L"
        },
        "referenceRange": [
          {
            "low": {
              "value": 98,
              "code": "mmol/L",
              "system": "http://unitsofmeasure.org"
            }
          },
          {
            "high": {
              "value": 110,
              "code": "mmol/L",
              "system": "http://unitsofmeasure.org"
            }
          }
        ],
        "text": {
          "status": "generated",
          "div": "<div xmlns=\"http://www.w3.org/1999/xhtml\"><table class=\"hl7__eu__lab__report\"><tr><th>Test</th><th>22-Jul-2021</th><th>Reference&#xA0;Range</th><th>Unit</th></tr><tr><td>Chloride [Moles/volume] in Blood</td><td>104.4</td><td>98 - 110</td><td></td><td>mmol/L</td></tr></table></div>"
        },
        "status": "final",
        "subject": {
          "reference": "urn:uuid:e3ecc197-4b2c-4966-9bed-08f32b4ec182",
          "display": "Molly Jenkins"
        },
        "effectiveDateTime": "2021-07-22T14:42:11Z",
        "specimen": {
          "reference": "urn:uuid:b74fe10c-3c3b-4b4c-ba0b-ccb15b3e19c0"
        }
      }
    },
    {
      "fullUrl": "urn:uuid:93871b72-6e54-4940-be98-8acc0a705725",
      "resource": {
        "resourceType": "Observation",
        "id": "93871b72-6e54-4940-be98-8acc0a705725",
        "meta": {
          "profile": [
            "http://hl7.eu/fhir/laboratory/StructureDefinition/Observation-resultslab-eu-lab"
          ]
        },
        "performer": [
          {
            "display": "The Central European Lab"
          }
        ],
        "category": [
          {
            "coding": [
              {
                "system": "http://terminology.hl7.org/CodeSystem/observation-category",
                "code": "laboratory"
              }
            ]
          }
        ],
        "code": {
          "coding": [
            {
              "code": "20565-8",
              "system": "http://loinc.org",
              "display": "Carbon dioxide, total [Moles/volume] in Blood"
            }
          ],
          "text": "Carbon dioxide, total [Moles/volume] in Blood"
        },
        "valueQuantity": {
          "system": "http://unitsofmeasure.org",
          "value": 26.5,
          "unit": "mmol/L",
          "code": "mmol/L"
        },
        "referenceRange": [
          {
            "low": {
              "value": 22,
              "code": "mmol/L",
              "system": "http://unitsofmeasure.org"
            }
          },
          {
            "high": {
              "value": 29,
              "code": "mmol/L",
              "system": "http://unitsofmeasure.org"
            }
          }
        ],
        "text": {
          "status": "generated",
          "div": "<div xmlns=\"http://www.w3.org/1999/xhtml\"><table class=\"hl7__eu__lab__report\"><tr><th>Test</th><th>22-Jul-2021</th><th>Reference&#xA0;Range</th><th>Unit</th></tr><tr><td>Carbon dioxide, total [Moles/volume] in Blood</td><td>26.5</td><td>22 - 29</td><td></td><td>mmol/L</td></tr></table></div>"
        },
        "status": "final",
        "subject": {
          "reference": "urn:uuid:e3ecc197-4b2c-4966-9bed-08f32b4ec182",
          "display": "Molly Jenkins"
        },
        "effectiveDateTime": "2021-07-22T14:42:11Z",
        "specimen": {
          "reference": "urn:uuid:b74fe10c-3c3b-4b4c-ba0b-ccb15b3e19c0"
        }
      }
    },
    {
      "fullUrl": "urn:uuid:edb2920c-88b6-4395-ab0e-d6045aed0bb1",
      "resource": {
        "resourceType": "Observation",
        "id": "edb2920c-88b6-4395-ab0e-d6045aed0bb1",
        "meta": {
          "profile": [
            "http://hl7.eu/fhir/laboratory/StructureDefinition/Observation-resultslab-eu-lab"
          ]
        },
        "performer": [
          {
            "display": "The Central European Lab"
          }
        ],
        "category": [
          {
            "coding": [
              {
                "system": "http://terminology.hl7.org/CodeSystem/observation-category",
                "code": "laboratory"
              }
            ]
          }
        ],
        "code": {
          "coding": [
            {
              "code": "2093-3",
              "system": "http://loinc.org",
              "display": "Cholesterol [Mass/volume] in Serum or Plasma"
            }
          ],
          "text": "Cholesterol [Mass/volume] in Serum or Plasma"
        },
        "valueQuantity": {
          "system": "http://unitsofmeasure.org",
          "value": 146.4,
          "unit": "mg/dL",
          "code": "mg/dL"
        },
        "referenceRange": [
          {
            "low": {
              "value": 125,
              "code": "mg/dL",
              "system": "http://unitsofmeasure.org"
            }
          },
          {
            "high": {
              "value": 200,
              "code": "mg/dL",
              "system": "http://unitsofmeasure.org"
            }
          }
        ],
        "text": {
          "status": "generated",
          "div": "<div xmlns=\"http://www.w3.org/1999/xhtml\"><table class=\"hl7__eu__lab__report\"><tr><th>Test</th><th>22-Jul-2021</th><th>Reference&#xA0;Range</th><th>Unit</th></tr><tr><td>Cholesterol [Mass/volume] in Serum or Plasma</td><td>146.4</td><td>125 - 200</td><td></td><td>mg/dL</td></tr></table></div>"
        },
        "status": "final",
        "subject": {
          "reference": "urn:uuid:e3ecc197-4b2c-4966-9bed-08f32b4ec182",
          "display": "Molly Jenkins"
        },
        "effectiveDateTime": "2021-07-22T14:42:11Z",
        "specimen": {
          "reference": "urn:uuid:6db423ac-3cde-48c6-be0c-59c9adb9c274"
        }
      }
    },
    {
      "fullUrl": "urn:uuid:e87ad98e-819f-4bde-8199-3abfb4506538",
      "resource": {
        "resourceType": "Observation",
        "id": "e87ad98e-819f-4bde-8199-3abfb4506538",
        "meta": {
          "profile": [
            "http://hl7.eu/fhir/laboratory/StructureDefinition/Observation-resultslab-eu-lab"
          ]
        },
        "performer": [
          {
            "display": "The Central European Lab"
          }
        ],
        "category": [
          {
            "coding": [
              {
                "system": "http://terminology.hl7.org/CodeSystem/observation-category",
                "code": "laboratory"
              }
            ]
          }
        ],
        "code": {
          "coding": [
            {
              "code": "2571-8",
              "system": "http://loinc.org",
              "display": "Triglyceride [Mass/volume] in Serum or Plasma"
            }
          ],
          "text": "Triglyceride [Mass/volume] in Serum or Plasma"
        },
        "valueQuantity": {
          "system": "http://unitsofmeasure.org",
          "value": 117.8,
          "unit": "mg/dL",
          "code": "mg/dL"
        },
        "referenceRange": [
          {
            "low": {
              "value": 35,
              "code": "mg/dL",
              "system": "http://unitsofmeasure.org"
            }
          },
          {
            "high": {
              "value": 150,
              "code": "mg/dL",
              "system": "http://unitsofmeasure.org"
            }
          }
        ],
        "text": {
          "status": "generated",
          "div": "<div xmlns=\"http://www.w3.org/1999/xhtml\"><table class=\"hl7__eu__lab__report\"><tr><th>Test</th><th>22-Jul-2021</th><th>Reference&#xA0;Range</th><th>Unit</th></tr><tr><td>Triglyceride [Mass/volume] in Serum or Plasma</td><td>117.8</td><td>35 - 150</td><td></td><td>mg/dL</td></tr></table></div>"
        },
        "status": "final",
        "subject": {
          "reference": "urn:uuid:e3ecc197-4b2c-4966-9bed-08f32b4ec182",
          "display": "Molly Jenkins"
        },
        "effectiveDateTime": "2021-07-22T14:42:11Z",
        "specimen": {
          "reference": "urn:uuid:6db423ac-3cde-48c6-be0c-59c9adb9c274"
        }
      }
    },
    {
      "fullUrl": "urn:uuid:f9e1edf4-f39d-476b-9bdc-e48ec704f55f",
      "resource": {
        "resourceType": "Observation",
        "id": "f9e1edf4-f39d-476b-9bdc-e48ec704f55f",
        "meta": {
          "profile": [
            "http://hl7.eu/fhir/laboratory/StructureDefinition/Observation-resultslab-eu-lab"
          ]
        },
        "performer": [
          {
            "display": "The Central European Lab"
          }
        ],
        "category": [
          {
            "coding": [
              {
                "system": "http://terminology.hl7.org/CodeSystem/observation-category",
                "code": "laboratory"
              }
            ]
          }
        ],
        "code": {
          "coding": [
            {
              "code": "18262-6",
              "system": "http://loinc.org",
              "display": "Cholesterol in LDL [Mass/volume] in Serum or Plasma by Direct assay"
            }
          ],
          "text": "Cholesterol in LDL [Mass/volume] in Serum or Plasma by Direct assay"
        },
        "valueQuantity": {
          "system": "http://unitsofmeasure.org",
          "value": 66.3,
          "unit": "mg/dL",
          "code": "mg/dL"
        },
        "referenceRange": [
          {
            "low": {
              "value": 0,
              "code": "mg/dL",
              "system": "http://unitsofmeasure.org"
            }
          },
          {
            "high": {
              "value": 130,
              "code": "mg/dL",
              "system": "http://unitsofmeasure.org"
            }
          }
        ],
        "text": {
          "status": "generated",
          "div": "<div xmlns=\"http://www.w3.org/1999/xhtml\"><table class=\"hl7__eu__lab__report\"><tr><th>Test</th><th>22-Jul-2021</th><th>Reference&#xA0;Range</th><th>Unit</th></tr><tr><td>Cholesterol in LDL [Mass/volume] in Serum or Plasma by Direct assay</td><td>66.3</td><td>0 - 130</td><td></td><td>mg/dL</td></tr></table></div>"
        },
        "status": "final",
        "subject": {
          "reference": "urn:uuid:e3ecc197-4b2c-4966-9bed-08f32b4ec182",
          "display": "Molly Jenkins"
        },
        "effectiveDateTime": "2021-07-22T14:42:11Z",
        "specimen": {
          "reference": "urn:uuid:6db423ac-3cde-48c6-be0c-59c9adb9c274"
        }
      }
    },
    {
      "fullUrl": "urn:uuid:cce437a6-c1e7-4a4b-95dd-356bb7812626",
      "resource": {
        "resourceType": "Observation",
        "id": "cce437a6-c1e7-4a4b-95dd-356bb7812626",
        "meta": {
          "profile": [
            "http://hl7.eu/fhir/laboratory/StructureDefinition/Observation-resultslab-eu-lab"
          ]
        },
        "performer": [
          {
            "display": "The Central European Lab"
          }
        ],
        "category": [
          {
            "coding": [
              {
                "system": "http://terminology.hl7.org/CodeSystem/observation-category",
                "code": "laboratory"
              }
            ]
          }
        ],
        "code": {
          "coding": [
            {
              "code": "2085-9",
              "system": "http://loinc.org",
              "display": "Cholesterol in HDL [Mass/volume] in Serum or Plasma"
            }
          ],
          "text": "Cholesterol in HDL [Mass/volume] in Serum or Plasma"
        },
        "valueQuantity": {
          "system": "http://unitsofmeasure.org",
          "value": 56.6,
          "unit": "mg/dL",
          "code": "mg/dL"
        },
        "referenceRange": [
          {
            "low": {
              "value": 46,
              "code": "mg/dL",
              "system": "http://unitsofmeasure.org"
            }
          },
          {
            "high": {
              "value": 82,
              "code": "mg/dL",
              "system": "http://unitsofmeasure.org"
            }
          }
        ],
        "text": {
          "status": "generated",
          "div": "<div xmlns=\"http://www.w3.org/1999/xhtml\"><table class=\"hl7__eu__lab__report\"><tr><th>Test</th><th>22-Jul-2021</th><th>Reference&#xA0;Range</th><th>Unit</th></tr><tr><td>Cholesterol in HDL [Mass/volume] in Serum or Plasma</td><td>56.6</td><td>46 - 82</td><td></td><td>mg/dL</td></tr></table></div>"
        },
        "status": "final",
        "subject": {
          "reference": "urn:uuid:e3ecc197-4b2c-4966-9bed-08f32b4ec182",
          "display": "Molly Jenkins"
        },
        "effectiveDateTime": "2021-07-22T14:42:11Z",
        "specimen": {
          "reference": "urn:uuid:6db423ac-3cde-48c6-be0c-59c9adb9c274"
        }
      }
    },
    {
      "fullUrl": "urn:uuid:73231a88-53d7-4f32-a9c0-5657ba85f9b0",
      "resource": {
        "resourceType": "Observation",
        "id": "73231a88-53d7-4f32-a9c0-5657ba85f9b0",
        "meta": {
          "profile": [
            "http://hl7.eu/fhir/laboratory/StructureDefinition/Observation-resultslab-eu-lab"
          ]
        },
        "performer": [
          {
            "display": "The Central European Lab"
          }
        ],
        "category": [
          {
            "coding": [
              {
                "system": "http://terminology.hl7.org/CodeSystem/observation-category",
                "code": "laboratory"
              }
            ]
          }
        ],
        "code": {
          "coding": [
            {
              "code": "6690-2",
              "system": "http://loinc.org",
              "display": "Leukocytes [#/volume] in Blood by Automated count"
            }
          ],
          "text": "Leukocytes [#/volume] in Blood by Automated count"
        },
        "valueQuantity": {
          "system": "http://unitsofmeasure.org",
          "value": 6.1,
          "unit": "10*3/uL",
          "code": "10*3/uL"
        },
        "referenceRange": [
          {
            "low": {
              "value": 3.6,
              "code": "10*3/uL",
              "system": "http://unitsofmeasure.org"
            }
          },
          {
            "high": {
              "value": 10.5,
              "code": "10*3/uL",
              "system": "http://unitsofmeasure.org"
            }
          }
        ],
        "text": {
          "status": "generated",
          "div": "<div xmlns=\"http://www.w3.org/1999/xhtml\"><table class=\"hl7__eu__lab__report\"><tr><th>Test</th><th>22-Jul-2021</th><th>Reference&#xA0;Range</th><th>Unit</th></tr><tr><td>Leukocytes [#/volume] in Blood by Automated count</td><td>6.1</td><td>3.6 - 10.5</td><td></td><td>10*3/uL</td></tr></table></div>"
        },
        "status": "final",
        "subject": {
          "reference": "urn:uuid:e3ecc197-4b2c-4966-9bed-08f32b4ec182",
          "display": "Molly Jenkins"
        },
        "effectiveDateTime": "2021-07-22T14:42:11Z",
        "specimen": {
          "reference": "urn:uuid:b74fe10c-3c3b-4b4c-ba0b-ccb15b3e19c0"
        }
      }
    },
    {
      "fullUrl": "urn:uuid:25109b27-323e-4bc3-bb96-622cb6b6d664",
      "resource": {
        "resourceType": "Observation",
        "id": "25109b27-323e-4bc3-bb96-622cb6b6d664",
        "meta": {
          "profile": [
            "http://hl7.eu/fhir/laboratory/StructureDefinition/Observation-resultslab-eu-lab"
          ]
        },
        "performer": [
          {
            "display": "The Central European Lab"
          }
        ],
        "category": [
          {
            "coding": [
              {
                "system": "http://terminology.hl7.org/CodeSystem/observation-category",
                "code": "laboratory"
              }
            ]
          }
        ],
        "code": {
          "coding": [
            {
              "code": "789-8",
              "system": "http://loinc.org",
              "display": "Erythrocytes [#/volume] in Blood by Automated count"
            }
          ],
          "text": "Erythrocytes [#/volume] in Blood by Automated count"
        },
        "valueQuantity": {
          "system": "http://unitsofmeasure.org",
          "value": 4.2,
          "unit": "10*6/uL",
          "code": "10*6/uL"
        },
        "referenceRange": [
          {
            "low": {
              "value": 4.5,
              "code": "10*6/uL",
              "system": "http://unitsofmeasure.org"
            }
          },
          {
            "high": {
              "value": 5,
              "code": "10*6/uL",
              "system": "http://unitsofmeasure.org"
            }
          }
        ],
        "interpretation": [
          {
            "coding": [
              {
                "code": "L",
                "system": "http://terminology.hl7.org/CodeSystem/v3-ObservationInterpretation",
                "display": "Low"
              }
            ]
          }
        ],
        "text": {
          "status": "generated",
          "div": "<div xmlns=\"http://www.w3.org/1999/xhtml\"><table class=\"hl7__eu__lab__report\"><tr><th>Test</th><th>22-Jul-2021</th><th>Reference&#xA0;Range</th><th>Unit</th></tr><tr><td>Erythrocytes [#/volume] in Blood by Automated count</td><td>4.2</td><td>4.5 - 5</td><td>L</td><td>10*6/uL</td></tr></table></div>"
        },
        "status": "final",
        "subject": {
          "reference": "urn:uuid:e3ecc197-4b2c-4966-9bed-08f32b4ec182",
          "display": "Molly Jenkins"
        },
        "effectiveDateTime": "2021-07-22T14:42:11Z",
        "specimen": {
          "reference": "urn:uuid:b74fe10c-3c3b-4b4c-ba0b-ccb15b3e19c0"
        }
      }
    },
    {
      "fullUrl": "urn:uuid:7859ae1e-7b9a-4bd3-af08-fa96fe167a08",
      "resource": {
        "resourceType": "Observation",
        "id": "7859ae1e-7b9a-4bd3-af08-fa96fe167a08",
        "meta": {
          "profile": [
            "http://hl7.eu/fhir/laboratory/StructureDefinition/Observation-resultslab-eu-lab"
          ]
        },
        "performer": [
          {
            "display": "The Central European Lab"
          }
        ],
        "category": [
          {
            "coding": [
              {
                "system": "http://terminology.hl7.org/CodeSystem/observation-category",
                "code": "laboratory"
              }
            ]
          }
        ],
        "code": {
          "coding": [
            {
              "code": "718-7",
              "system": "http://loinc.org",
              "display": "Hemoglobin [Mass/volume] in Blood"
            }
          ],
          "text": "Hemoglobin [Mass/volume] in Blood"
        },
        "valueQuantity": {
          "system": "http://unitsofmeasure.org",
          "value": 13.3,
          "unit": "g/dL",
          "code": "g/dL"
        },
        "referenceRange": [
          {
            "low": {
              "value": 12,
              "code": "g/dL",
              "system": "http://unitsofmeasure.org"
            }
          },
          {
            "high": {
              "value": 15.5,
              "code": "g/dL",
              "system": "http://unitsofmeasure.org"
            }
          }
        ],
        "text": {
          "status": "generated",
          "div": "<div xmlns=\"http://www.w3.org/1999/xhtml\"><table class=\"hl7__eu__lab__report\"><tr><th>Test</th><th>22-Jul-2021</th><th>Reference&#xA0;Range</th><th>Unit</th></tr><tr><td>Hemoglobin [Mass/volume] in Blood</td><td>13.3</td><td>12 - 15.5</td><td></td><td>g/dL</td></tr></table></div>"
        },
        "status": "final",
        "subject": {
          "reference": "urn:uuid:e3ecc197-4b2c-4966-9bed-08f32b4ec182",
          "display": "Molly Jenkins"
        },
        "effectiveDateTime": "2021-07-22T14:42:11Z",
        "specimen": {
          "reference": "urn:uuid:b74fe10c-3c3b-4b4c-ba0b-ccb15b3e19c0"
        }
      }
    },
    {
      "fullUrl": "urn:uuid:2a0941d9-1f06-4c7d-abfa-dad61efa951c",
      "resource": {
        "resourceType": "Observation",
        "id": "2a0941d9-1f06-4c7d-abfa-dad61efa951c",
        "meta": {
          "profile": [
            "http://hl7.eu/fhir/laboratory/StructureDefinition/Observation-resultslab-eu-lab"
          ]
        },
        "performer": [
          {
            "display": "The Central European Lab"
          }
        ],
        "category": [
          {
            "coding": [
              {
                "system": "http://terminology.hl7.org/CodeSystem/observation-category",
                "code": "laboratory"
              }
            ]
          }
        ],
        "code": {
          "coding": [
            {
              "code": "4544-3",
              "system": "http://loinc.org",
              "display": "Hematocrit [Volume Fraction] of Blood by Automated count"
            }
          ],
          "text": "Hematocrit [Volume Fraction] of Blood by Automated count"
        },
        "valueQuantity": {
          "system": "http://unitsofmeasure.org",
          "value": 37.1,
          "unit": "%",
          "code": "%"
        },
        "referenceRange": [
          {
            "low": {
              "value": 37,
              "code": "%",
              "system": "http://unitsofmeasure.org"
            }
          },
          {
            "high": {
              "value": 52,
              "code": "%",
              "system": "http://unitsofmeasure.org"
            }
          }
        ],
        "text": {
          "status": "generated",
          "div": "<div xmlns=\"http://www.w3.org/1999/xhtml\"><table class=\"hl7__eu__lab__report\"><tr><th>Test</th><th>22-Jul-2021</th><th>Reference&#xA0;Range</th><th>Unit</th></tr><tr><td>Hematocrit [Volume Fraction] of Blood by Automated count</td><td>37.1</td><td>37 - 52</td><td></td><td>%</td></tr></table></div>"
        },
        "status": "final",
        "subject": {
          "reference": "urn:uuid:e3ecc197-4b2c-4966-9bed-08f32b4ec182",
          "display": "Molly Jenkins"
        },
        "effectiveDateTime": "2021-07-22T14:42:11Z",
        "specimen": {
          "reference": "urn:uuid:b74fe10c-3c3b-4b4c-ba0b-ccb15b3e19c0"
        }
      }
    },
    {
      "fullUrl": "urn:uuid:8c38864d-82e9-4a69-a420-4d444aa864a3",
      "resource": {
        "resourceType": "Observation",
        "id": "8c38864d-82e9-4a69-a420-4d444aa864a3",
        "meta": {
          "profile": [
            "http://hl7.eu/fhir/laboratory/StructureDefinition/Observation-resultslab-eu-lab"
          ]
        },
        "performer": [
          {
            "display": "The Central European Lab"
          }
        ],
        "category": [
          {
            "coding": [
              {
                "system": "http://terminology.hl7.org/CodeSystem/observation-category",
                "code": "laboratory"
              }
            ]
          }
        ],
        "code": {
          "coding": [
            {
              "code": "787-2",
              "system": "http://loinc.org",
              "display": "MCV [Entitic volume] by Automated count"
            }
          ],
          "text": "MCV [Entitic volume] by Automated count"
        },
        "valueQuantity": {
          "system": "http://unitsofmeasure.org",
          "value": 93.3,
          "unit": "fL",
          "code": "fL"
        },
        "referenceRange": [
          {
            "low": {
              "value": 82,
              "code": "fL",
              "system": "http://unitsofmeasure.org"
            }
          },
          {
            "high": {
              "value": 98,
              "code": "fL",
              "system": "http://unitsofmeasure.org"
            }
          }
        ],
        "text": {
          "status": "generated",
          "div": "<div xmlns=\"http://www.w3.org/1999/xhtml\"><table class=\"hl7__eu__lab__report\"><tr><th>Test</th><th>22-Jul-2021</th><th>Reference&#xA0;Range</th><th>Unit</th></tr><tr><td>MCV [Entitic volume] by Automated count</td><td>93.3</td><td>82 - 98</td><td></td><td>fL</td></tr></table></div>"
        },
        "status": "final",
        "subject": {
          "reference": "urn:uuid:e3ecc197-4b2c-4966-9bed-08f32b4ec182",
          "display": "Molly Jenkins"
        },
        "effectiveDateTime": "2021-07-22T14:42:11Z",
        "specimen": {
          "reference": "urn:uuid:b74fe10c-3c3b-4b4c-ba0b-ccb15b3e19c0"
        }
      }
    },
    {
      "fullUrl": "urn:uuid:e20c322d-1caf-4de8-a4f1-daeb25acac11",
      "resource": {
        "resourceType": "Observation",
        "id": "e20c322d-1caf-4de8-a4f1-daeb25acac11",
        "meta": {
          "profile": [
            "http://hl7.eu/fhir/laboratory/StructureDefinition/Observation-resultslab-eu-lab"
          ]
        },
        "performer": [
          {
            "display": "The Central European Lab"
          }
        ],
        "category": [
          {
            "coding": [
              {
                "system": "http://terminology.hl7.org/CodeSystem/observation-category",
                "code": "laboratory"
              }
            ]
          }
        ],
        "code": {
          "coding": [
            {
              "code": "785-6",
              "system": "http://loinc.org",
              "display": "MCH [Entitic mass] by Automated count"
            }
          ],
          "text": "MCH [Entitic mass] by Automated count"
        },
        "valueQuantity": {
          "system": "http://unitsofmeasure.org",
          "value": 28.3,
          "unit": "pg",
          "code": "pg"
        },
        "referenceRange": [
          {
            "low": {
              "value": 27,
              "code": "pg",
              "system": "http://unitsofmeasure.org"
            }
          },
          {
            "high": {
              "value": 34.5,
              "code": "pg",
              "system": "http://unitsofmeasure.org"
            }
          }
        ],
        "text": {
          "status": "generated",
          "div": "<div xmlns=\"http://www.w3.org/1999/xhtml\"><table class=\"hl7__eu__lab__report\"><tr><th>Test</th><th>22-Jul-2021</th><th>Reference&#xA0;Range</th><th>Unit</th></tr><tr><td>MCH [Entitic mass] by Automated count</td><td>28.3</td><td>27 - 34.5</td><td></td><td>pg</td></tr></table></div>"
        },
        "status": "final",
        "subject": {
          "reference": "urn:uuid:e3ecc197-4b2c-4966-9bed-08f32b4ec182",
          "display": "Molly Jenkins"
        },
        "effectiveDateTime": "2021-07-22T14:42:11Z",
        "specimen": {
          "reference": "urn:uuid:b74fe10c-3c3b-4b4c-ba0b-ccb15b3e19c0"
        }
      }
    },
    {
      "fullUrl": "urn:uuid:5bae460d-c1ed-4a4c-9ff0-61587f7081b5",
      "resource": {
        "resourceType": "Observation",
        "id": "5bae460d-c1ed-4a4c-9ff0-61587f7081b5",
        "meta": {
          "profile": [
            "http://hl7.eu/fhir/laboratory/StructureDefinition/Observation-resultslab-eu-lab"
          ]
        },
        "performer": [
          {
            "display": "The Central European Lab"
          }
        ],
        "category": [
          {
            "coding": [
              {
                "system": "http://terminology.hl7.org/CodeSystem/observation-category",
                "code": "laboratory"
              }
            ]
          }
        ],
        "code": {
          "coding": [
            {
              "code": "786-4",
              "system": "http://loinc.org",
              "display": "MCHC [Mass/volume] by Automated count"
            }
          ],
          "text": "MCHC [Mass/volume] by Automated count"
        },
        "valueQuantity": {
          "system": "http://unitsofmeasure.org",
          "value": 34.5,
          "unit": "g/dL",
          "code": "g/dL"
        },
        "referenceRange": [
          {
            "low": {
              "value": 32,
              "code": "g/dL",
              "system": "http://unitsofmeasure.org"
            }
          },
          {
            "high": {
              "value": 37,
              "code": "g/dL",
              "system": "http://unitsofmeasure.org"
            }
          }
        ],
        "text": {
          "status": "generated",
          "div": "<div xmlns=\"http://www.w3.org/1999/xhtml\"><table class=\"hl7__eu__lab__report\"><tr><th>Test</th><th>22-Jul-2021</th><th>Reference&#xA0;Range</th><th>Unit</th></tr><tr><td>MCHC [Mass/volume] by Automated count</td><td>34.5</td><td>32 - 37</td><td></td><td>g/dL</td></tr></table></div>"
        },
        "status": "final",
        "subject": {
          "reference": "urn:uuid:e3ecc197-4b2c-4966-9bed-08f32b4ec182",
          "display": "Molly Jenkins"
        },
        "effectiveDateTime": "2021-07-22T14:42:11Z",
        "specimen": {
          "reference": "urn:uuid:b74fe10c-3c3b-4b4c-ba0b-ccb15b3e19c0"
        }
      }
    },
    {
      "fullUrl": "urn:uuid:be93f11b-6f21-4cef-bd24-df27bf11fca1",
      "resource": {
        "resourceType": "Observation",
        "id": "be93f11b-6f21-4cef-bd24-df27bf11fca1",
        "meta": {
          "profile": [
            "http://hl7.eu/fhir/laboratory/StructureDefinition/Observation-resultslab-eu-lab"
          ]
        },
        "performer": [
          {
            "display": "The Central European Lab"
          }
        ],
        "category": [
          {
            "coding": [
              {
                "system": "http://terminology.hl7.org/CodeSystem/observation-category",
                "code": "laboratory"
              }
            ]
          }
        ],
        "code": {
          "coding": [
            {
              "code": "21000-5",
              "system": "http://loinc.org",
              "display": "Erythrocyte distribution width [Entitic volume] by Automated count"
            }
          ],
          "text": "Erythrocyte distribution width [Entitic volume] by Automated count"
        },
        "valueQuantity": {
          "system": "http://unitsofmeasure.org",
          "value": 43.7,
          "unit": "fL",
          "code": "fL"
        },
        "referenceRange": [
          {
            "low": {
              "value": 36,
              "code": "fL",
              "system": "http://unitsofmeasure.org"
            }
          },
          {
            "high": {
              "value": 55,
              "code": "fL",
              "system": "http://unitsofmeasure.org"
            }
          }
        ],
        "text": {
          "status": "generated",
          "div": "<div xmlns=\"http://www.w3.org/1999/xhtml\"><table class=\"hl7__eu__lab__report\"><tr><th>Test</th><th>22-Jul-2021</th><th>Reference&#xA0;Range</th><th>Unit</th></tr><tr><td>Erythrocyte distribution width [Entitic volume] by Automated count</td><td>43.7</td><td>36 - 55</td><td></td><td>fL</td></tr></table></div>"
        },
        "status": "final",
        "subject": {
          "reference": "urn:uuid:e3ecc197-4b2c-4966-9bed-08f32b4ec182",
          "display": "Molly Jenkins"
        },
        "effectiveDateTime": "2021-07-22T14:42:11Z",
        "specimen": {
          "reference": "urn:uuid:b74fe10c-3c3b-4b4c-ba0b-ccb15b3e19c0"
        }
      }
    },
    {
      "fullUrl": "urn:uuid:4873760c-fef7-4957-b294-fd1b520be46c",
      "resource": {
        "resourceType": "Observation",
        "id": "4873760c-fef7-4957-b294-fd1b520be46c",
        "meta": {
          "profile": [
            "http://hl7.eu/fhir/laboratory/StructureDefinition/Observation-resultslab-eu-lab"
          ]
        },
        "performer": [
          {
            "display": "The Central European Lab"
          }
        ],
        "category": [
          {
            "coding": [
              {
                "system": "http://terminology.hl7.org/CodeSystem/observation-category",
                "code": "laboratory"
              }
            ]
          }
        ],
        "code": {
          "coding": [
            {
              "code": "777-3",
              "system": "http://loinc.org",
              "display": "Platelets [#/volume] in Blood by Automated count"
            }
          ],
          "text": "Platelets [#/volume] in Blood by Automated count"
        },
        "valueQuantity": {
          "system": "http://unitsofmeasure.org",
          "value": 380.2,
          "unit": "10*3/uL",
          "code": "10*3/uL"
        },
        "referenceRange": [
          {
            "low": {
              "value": 150,
              "code": "10*3/uL",
              "system": "http://unitsofmeasure.org"
            }
          },
          {
            "high": {
              "value": 400,
              "code": "10*3/uL",
              "system": "http://unitsofmeasure.org"
            }
          }
        ],
        "text": {
          "status": "generated",
          "div": "<div xmlns=\"http://www.w3.org/1999/xhtml\"><table class=\"hl7__eu__lab__report\"><tr><th>Test</th><th>22-Jul-2021</th><th>Reference&#xA0;Range</th><th>Unit</th></tr><tr><td>Platelets [#/volume] in Blood by Automated count</td><td>380.2</td><td>150 - 400</td><td></td><td>10*3/uL</td></tr></table></div>"
        },
        "status": "final",
        "subject": {
          "reference": "urn:uuid:e3ecc197-4b2c-4966-9bed-08f32b4ec182",
          "display": "Molly Jenkins"
        },
        "effectiveDateTime": "2021-07-22T14:42:11Z",
        "specimen": {
          "reference": "urn:uuid:b74fe10c-3c3b-4b4c-ba0b-ccb15b3e19c0"
        }
      }
    },
    {
      "fullUrl": "urn:uuid:3686f601-7f1a-4b3d-baf9-b8361bc9762d",
      "resource": {
        "resourceType": "Observation",
        "id": "3686f601-7f1a-4b3d-baf9-b8361bc9762d",
        "meta": {
          "profile": [
            "http://hl7.eu/fhir/laboratory/StructureDefinition/Observation-resultslab-eu-lab"
          ]
        },
        "performer": [
          {
            "display": "The Central European Lab"
          }
        ],
        "category": [
          {
            "coding": [
              {
                "system": "http://terminology.hl7.org/CodeSystem/observation-category",
                "code": "laboratory"
              }
            ]
          }
        ],
        "code": {
          "coding": [
            {
              "code": "32207-3",
              "system": "http://loinc.org",
              "display": "Platelet distribution width [Entitic volume] in Blood by Automated count"
            }
          ],
          "text": "Platelet distribution width [Entitic volume] in Blood by Automated count"
        },
        "valueQuantity": {
          "system": "http://unitsofmeasure.org",
          "value": 297.8,
          "unit": "fL",
          "code": "fL"
        },
        "referenceRange": [
          {
            "low": {
              "value": 11.6,
              "code": "fL",
              "system": "http://unitsofmeasure.org"
            }
          },
          {
            "high": {
              "value": 17.4,
              "code": "fL",
              "system": "http://unitsofmeasure.org"
            }
          }
        ],
        "interpretation": [
          {
            "coding": [
              {
                "code": "H",
                "system": "http://terminology.hl7.org/CodeSystem/v3-ObservationInterpretation",
                "display": "High"
              }
            ]
          }
        ],
        "text": {
          "status": "generated",
          "div": "<div xmlns=\"http://www.w3.org/1999/xhtml\"><table class=\"hl7__eu__lab__report\"><tr><th>Test</th><th>22-Jul-2021</th><th>Reference&#xA0;Range</th><th>Unit</th></tr><tr><td>Platelet distribution width [Entitic volume] in Blood by Automated count</td><td>297.8</td><td>11.6 - 17.4</td><td>H</td><td>fL</td></tr></table></div>"
        },
        "status": "final",
        "subject": {
          "reference": "urn:uuid:e3ecc197-4b2c-4966-9bed-08f32b4ec182",
          "display": "Molly Jenkins"
        },
        "effectiveDateTime": "2021-07-22T14:42:11Z",
        "specimen": {
          "reference": "urn:uuid:b74fe10c-3c3b-4b4c-ba0b-ccb15b3e19c0"
        }
      }
    },
    {
      "fullUrl": "urn:uuid:2b364baa-7ab8-4705-b5aa-bab22e84b2aa",
      "resource": {
        "resourceType": "Observation",
        "id": "2b364baa-7ab8-4705-b5aa-bab22e84b2aa",
        "meta": {
          "profile": [
            "http://hl7.eu/fhir/laboratory/StructureDefinition/Observation-resultslab-eu-lab"
          ]
        },
        "performer": [
          {
            "display": "The Central European Lab"
          }
        ],
        "category": [
          {
            "coding": [
              {
                "system": "http://terminology.hl7.org/CodeSystem/observation-category",
                "code": "laboratory"
              }
            ]
          }
        ],
        "code": {
          "coding": [
            {
              "code": "32623-1",
              "system": "http://loinc.org",
              "display": "Platelet mean volume [Entitic volume] in Blood by Automated count"
            }
          ],
          "text": "Platelet mean volume [Entitic volume] in Blood by Automated count"
        },
        "valueQuantity": {
          "system": "http://unitsofmeasure.org",
          "value": 11.5,
          "unit": "fL",
          "code": "fL"
        },
        "referenceRange": [
          {
            "low": {
              "value": 7.2,
              "code": "fL",
              "system": "http://unitsofmeasure.org"
            }
          },
          {
            "high": {
              "value": 13.5,
              "code": "fL",
              "system": "http://unitsofmeasure.org"
            }
          }
        ],
        "text": {
          "status": "generated",
          "div": "<div xmlns=\"http://www.w3.org/1999/xhtml\"><table class=\"hl7__eu__lab__report\"><tr><th>Test</th><th>22-Jul-2021</th><th>Reference&#xA0;Range</th><th>Unit</th></tr><tr><td>Platelet mean volume [Entitic volume] in Blood by Automated count</td><td>11.5</td><td>7.2 - 13.5</td><td></td><td>fL</td></tr></table></div>"
        },
        "status": "final",
        "subject": {
          "reference": "urn:uuid:e3ecc197-4b2c-4966-9bed-08f32b4ec182",
          "display": "Molly Jenkins"
        },
        "effectiveDateTime": "2021-07-22T14:42:11Z",
        "specimen": {
          "reference": "urn:uuid:b74fe10c-3c3b-4b4c-ba0b-ccb15b3e19c0"
        }
      }
    },
    {
      "fullUrl": "urn:uuid:33662008-9b08-4da6-ae7d-283147d40b35",
      "resource": {
        "resourceType": "Device",
        "id": "33662008-9b08-4da6-ae7d-283147d40b35",
        "deviceName": [
          {
            "name": "SYNDERAI Synthetic Generator",
            "type": "manufacturer-name"
          }
        ],
        "version": [
          {
            "value": "5.0"
          }
        ],
        "text": {
          "status": "generated",
          "div": "<div xmlns=\"http://www.w3.org/1999/xhtml\">SYNDERAI Synthetic Generator v5.0</div>"
        },
        "status": "active\"",
        "distinctIdentifier": "synderai-generator-50",
        "manufacturer": "SYNDERAI Project"
      }
    },
    {
      "fullUrl": "urn:uuid:48bd4bf0-a428-4a1c-b510-cbd2c0e382a6",
      "resource": {
        "resourceType": "Provenance",
        "id": "48bd4bf0-a428-4a1c-b510-cbd2c0e382a6",
        "target": [
          {
            "reference": "Patient/e3ecc197-4b2c-4966-9bed-08f32b4ec182"
          },
          {
            "reference": "Bundle/e9a60e7c-b00b-4173-a3be-aa5a9884e711"
          },
          {
            "reference": "Composition/9e741111-d275-499a-ac7d-37fe21bea3b3"
          },
          {
            "reference": "PractitionerRole/ececd6f5-d056-41cb-ba51-6991df25d5d5"
          },
          {
            "reference": "Practitioner/4701d759-16ac-4f7b-9c5f-9d27dfc51bf1"
          },
          {
            "reference": "PractitionerRole/a00facb3-ecd9-49aa-9d3a-032df7ceb23f"
          },
          {
            "reference": "Organization/5a9fa3ed-ee19-4c52-b512-bca043fb98a5"
          }
        ],
        "activity": {
          "text": "Synthetic Example Data Generation"
        },
        "policy": [
          "https://synderai.net/synderai-synthetic-data-policy"
        ],
        "agent": [
          {
            "type": {
              "text": "author"
            },
            "who": {
              "reference": "Device/33662008-9b08-4da6-ae7d-283147d40b35"
            }
          }
        ],
        "reason": [
          {
            "text": "Interoperability Testing and Training (non-clinical use)"
          }
        ],
        "text": {
          "status": "generated",
          "div": "<div xmlns=\"http://www.w3.org/1999/xhtml\">Provenance for SYNDERAI Synthetic Example Data Resource</div>"
        },
        "recorded": "2021-07-22T16:42:11Z"
      }
    },
    {
      "fullUrl": "urn:uuid:ececd6f5-d056-41cb-ba51-6991df25d5d5",
      "resource": {
        "resourceType": "PractitionerRole",
        "id": "ececd6f5-d056-41cb-ba51-6991df25d5d5",
        "meta": {
          "profile": [
            "http://hl7.eu/fhir/base/StructureDefinition/practitionerRole-eu"
          ]
        },
        "text": {
          "status": "generated",
          "div": "<div xmlns=\"http://www.w3.org/1999/xhtml\">Laboratory Role Id: ececd6f5-d056-41cb-ba51-6991df25d5d5</div>"
        },
        "practitioner": {
          "reference": "urn:uuid:4701d759-16ac-4f7b-9c5f-9d27dfc51bf1"
        }
      }
    },
    {
      "fullUrl": "urn:uuid:4701d759-16ac-4f7b-9c5f-9d27dfc51bf1",
      "resource": {
        "resourceType": "Practitioner",
        "id": "4701d759-16ac-4f7b-9c5f-9d27dfc51bf1",
        "meta": {
          "profile": [
            "http://hl7.eu/fhir/base/StructureDefinition/practitioner-eu"
          ]
        },
        "identifier": [
          {
            "assigner": {
              "display": "HL7 Europe"
            },
            "system": "urn:oid:2.16.840.1.113883.2.51.999",
            "value": "f8239632-146b-486d-a4a9-7233102f91e6"
          }
        ],
        "name": [
          {
            "prefix": [
              "dr"
            ],
            "given": [
              "Ex"
            ],
            "family": "Ample"
          }
        ],
        "address": [
          {
            "line": [
              "Laboratoire Central Européenne",
              "Boulevard du Jardin Botanique 32"
            ],
            "postalCode": "1000",
            "city": "Brussels",
            "country": "Belgium"
          }
        ],
        "text": {
          "status": "generated",
          "div": "<div xmlns=\"http://www.w3.org/1999/xhtml\">Laboratory: Laboratoire Central Européenne, 1000 Brussels, Belgium</div>"
        }
      }
    }
  ],
  "type": "document",
  "timestamp": "2021-07-22T16:42:11Z"
}
