{
  "resourceType": "Bundle",
  "id": "b8d4dad9-d0a0-42ae-b1f0-f83de76726d8",
  "meta": {
    "profile": [
      "http://hl7.eu/fhir/laboratory/StructureDefinition/Bundle-eu-lab"
    ]
  },
  "identifier": {
    "assigner": {
      "display": "HL7 Europe"
    },
    "system": "urn:oid:2.16.840.1.113883.2.51.999",
    "value": "5e2b5cee-9ec7-477a-921d-515410eff775"
  },
  "entry": [
    {
      "fullUrl": "urn:uuid:519a8e56-d441-4e23-b6d8-9fe02283146a",
      "resource": {
        "resourceType": "Composition",
        "id": "519a8e56-d441-4e23-b6d8-9fe02283146a",
        "meta": {
          "profile": [
            "http://hl7.eu/fhir/laboratory/StructureDefinition/Composition-eu-lab"
          ]
        },
        "identifier": {
          "assigner": {
            "display": "HL7 Europe"
          },
          "system": "urn:oid:2.16.840.1.113883.2.51.999",
          "value": "8feaf21b-fc32-4344-a946-946a6da922a6"
        },
        "author": [
          {
            "reference": "urn:uuid:22a2a705-26b1-4e40-b519-2797109667fb"
          }
        ],
        "category": [
          {
            "coding": [
              {
                "code": "26436-6",
                "system": "http://loinc.org",
                "display": "Laboratory studies (set)"
              }
            ]
          }
        ],
        "type": {
          "coding": [
            {
              "code": "11502-2",
              "system": "http://loinc.org",
              "display": "Laboratory report"
            }
          ],
          "text": "Laboratory Report"
        },
        "section": [
          {
            "code": {
              "coding": [
                {
                  "code": "26436-6",
                  "system": "http://loinc.org",
                  "display": "Laboratory studies (set)"
                }
              ],
              "text": "Laboratory studies"
            },
            "section": [
              {
                "code": {
                  "coding": [
                    {
                      "code": "$18723-7",
                      "system": "http://loinc.org",
                      "display": "Hematology studies (set)"
                    }
                  ],
                  "text": "Hematology"
                },
                "entry": [
                  {
                    "reference": "urn:uuid:bfe8bd66-0158-4626-a838-01b0fba5ab99"
                  },
                  {
                    "reference": "urn:uuid:589a0581-c9de-466b-bdec-d9718d6f17d3"
                  },
                  {
                    "reference": "urn:uuid:8dea5e87-3618-4249-a803-9dda24779499"
                  },
                  {
                    "reference": "urn:uuid:64e56118-6970-4f54-a8c8-243f05afb537"
                  },
                  {
                    "reference": "urn:uuid:a81b6687-f2a9-4681-aa46-75cb0082d6a3"
                  },
                  {
                    "reference": "urn:uuid:2f314345-9f0d-4bd4-b0a1-f0f3323d6c22"
                  },
                  {
                    "reference": "urn:uuid:464fabbe-ae40-4008-b4f3-33d4e4d0d148"
                  },
                  {
                    "reference": "urn:uuid:25cf80f5-9799-449f-b6b3-2dc5b5be9602"
                  },
                  {
                    "reference": "urn:uuid:450fa467-5acc-4995-b0a8-86d6f4b4fbd4"
                  },
                  {
                    "reference": "urn:uuid:4b6f19e1-fb9e-4185-9841-38ca1c3025c1"
                  },
                  {
                    "reference": "urn:uuid:591ef98a-2058-47d6-b833-6a7a7690a73c"
                  }
                ],
                "text": {
                  "status": "generated",
                  "div": "<div xmlns=\"http://www.w3.org/1999/xhtml\"><h3>Hematology</h3><table class=\"hl7__eu__lab__report\"><thead><tr><th>Test</th><th>15-SEP-2016</th><th>Reference&#xA0;Range</th><th>Unit</th></tr></thead><tbody><tr><td>Leukocytes [#/volume] in Blood by Automated count</td><td>6.4</td><td>3.5 - 10.5</td><td>10*3/uL</td></tr><tr><td>Erythrocytes [#/volume] in Blood by Automated count</td><td>5.3</td><td>4.5 - 6.2</td><td>10*6/uL</td></tr><tr><td>Hemoglobin [Mass/volume] in Blood</td><td><strong>13.5 L</strong></td><td>14 - 18</td><td>g/dL</td></tr><tr><td>Hematocrit [Volume Fraction] of Blood by Automated count</td><td>46.8</td><td>38 - 52</td><td>%</td></tr><tr><td>MCV [Entitic volume] by Automated count</td><td>88.4</td><td>80 - 98</td><td>fL</td></tr><tr><td>MCH [Entitic mass] by Automated count</td><td>27.6</td><td>27 - 33</td><td>pg</td></tr><tr><td>MCHC [Mass/volume] by Automated count</td><td>35.5</td><td>32 - 36</td><td>g/dL</td></tr><tr><td>Erythrocyte distribution width [Entitic volume] by Automated count</td><td>39.6</td><td>36 - 55</td><td>fL</td></tr><tr><td>Platelets [#/volume] in Blood by Automated count</td><td><strong>377.1 H</strong></td><td>150 - 350</td><td>10*3/uL</td></tr><tr><td>Platelet distribution width [Entitic volume] in Blood by Automated count</td><td>302.1</td><td>150 - 450</td><td>fL</td></tr><tr><td>Platelet mean volume [Entitic volume] in Blood by Automated count</td><td>11.9</td><td>9.8 - 13.8</td><td>fL</td></tr></tbody></table></div>"
                },
                "title": "Hematology"
              }
            ],
            "title": "Laboratory Report"
          },
          {
            "text": {
              "status": "generated",
              "div": "<div xmlns=\"http://www.w3.org/1999/xhtml\"><h3>Annotation</h3><table class=\"hl7__eu__lab__report\"><tr><th>Conclusion and Recommendations based on this report and previous findings known to us</th></tr><tr><td>The patient shows mild anemia (low hemoglobin) with otherwise normal red cell indices, suggesting a non-specific or early-stage anemia. Platelet count is slightly elevated, which may be reactive but is not markedly abnormal. Leukocyte count and other parameters are within normal limits. Clinical correlation and follow-up are recommended.</td></tr></table></div>"
            },
            "code": {
              "coding": [
                {
                  "system": "http://loinc.org",
                  "code": "48767-8",
                  "display": "Annotation comment"
                }
              ]
            },
            "title": "Annotation comment"
          }
        ],
        "status": "final",
        "subject": {
          "reference": "urn:uuid:10980abb-439b-4181-a386-0d46bd10d7e8",
          "display": "Hynek Kubíčková"
        },
        "date": "2016-09-15T14:02:45Z",
        "title": "Laboratory Report",
        "confidentiality": "N"
      }
    },
    {
      "fullUrl": "urn:uuid:87f2717e-2ed8-418a-8d98-8162d85ab5c3",
      "resource": {
        "resourceType": "DiagnosticReport",
        "id": "87f2717e-2ed8-418a-8d98-8162d85ab5c3",
        "meta": {
          "profile": [
            "http://hl7.eu/fhir/laboratory/StructureDefinition/DiagnosticReport-eu-lab"
          ]
        },
        "identifier": [
          {
            "assigner": {
              "display": "HL7 Europe"
            },
            "system": "urn:oid:2.16.840.1.113883.2.51.999",
            "value": "60026f2a-5976-4754-bb2b-d49e2d60948f"
          }
        ],
        "extension": [
          {
            "url": "http://hl7.org/fhir/5.0/StructureDefinition/extension-DiagnosticReport.composition",
            "valueReference": {
              "reference": "urn:uuid:8feaf21b-fc32-4344-a946-946a6da922a6"
            }
          }
        ],
        "category": [
          {
            "coding": [
              {
                "code": "26436-6",
                "system": "http://loinc.org",
                "display": "Laboratory studies (set)"
              }
            ]
          }
        ],
        "specimen": [
          {
            "reference": "urn:uuid:00fa7eb3-d54d-402a-92ec-4e1f0dba6075"
          },
          {
            "reference": "urn:uuid:00fa7eb3-d54d-402a-92ec-4e1f0dba6075"
          }
        ],
        "result": [
          {
            "reference": "urn:uuid:bfe8bd66-0158-4626-a838-01b0fba5ab99"
          },
          {
            "reference": "urn:uuid:589a0581-c9de-466b-bdec-d9718d6f17d3"
          },
          {
            "reference": "urn:uuid:8dea5e87-3618-4249-a803-9dda24779499"
          },
          {
            "reference": "urn:uuid:64e56118-6970-4f54-a8c8-243f05afb537"
          },
          {
            "reference": "urn:uuid:a81b6687-f2a9-4681-aa46-75cb0082d6a3"
          },
          {
            "reference": "urn:uuid:2f314345-9f0d-4bd4-b0a1-f0f3323d6c22"
          },
          {
            "reference": "urn:uuid:464fabbe-ae40-4008-b4f3-33d4e4d0d148"
          },
          {
            "reference": "urn:uuid:25cf80f5-9799-449f-b6b3-2dc5b5be9602"
          },
          {
            "reference": "urn:uuid:450fa467-5acc-4995-b0a8-86d6f4b4fbd4"
          },
          {
            "reference": "urn:uuid:4b6f19e1-fb9e-4185-9841-38ca1c3025c1"
          },
          {
            "reference": "urn:uuid:591ef98a-2058-47d6-b833-6a7a7690a73c"
          }
        ],
        "status": "registered",
        "code": {
          "coding": [
            {
              "code": "11502-2",
              "system": "http://loinc.org",
              "display": "Laboratory report"
            }
          ]
        },
        "subject": {
          "reference": "urn:uuid:10980abb-439b-4181-a386-0d46bd10d7e8",
          "display": "Hynek Kubíčková"
        }
      }
    },
    {
      "fullUrl": "urn:uuid:10980abb-439b-4181-a386-0d46bd10d7e8",
      "resource": {
        "resourceType": "Patient",
        "id": "10980abb-439b-4181-a386-0d46bd10d7e8",
        "meta": {
          "security": [
            {
              "system": "http://terminology.hl7.org/CodeSystem/v3-ActReason",
              "code": "HTEST"
            },
            {
              "system": "http://terminology.hl7.org/CodeSystem/v3-ActReason",
              "code": "TRAIN"
            }
          ],
          "tag": [
            {
              "system": "https://synderai.net/fhir/CodeSystem/tags",
              "code": "synthetic",
              "display": "SYNDERAI Synthetic data"
            }
          ],
          "profile": [
            "http://hl7.eu/fhir/base/StructureDefinition/patient-eu-core"
          ]
        },
        "identifier": [
          {
            "type": {
              "coding": [
                {
                  "code": "PT",
                  "system": "http://terminology.hl7.org/CodeSystem/v2-0203"
                }
              ]
            },
            "system": "http://ec.europa.eu/identifier/eci",
            "value": "9771-756399-9"
          },
          {
            "type": {
              "coding": [
                {
                  "code": "MR",
                  "system": "http://terminology.hl7.org/CodeSystem/v2-0203"
                }
              ]
            },
            "system": "http://local.setting.eu/identifier",
            "value": "0a9c3ea6-b526-4dcc-cde1-545cdfca14b2"
          }
        ],
        "name": [
          {
            "family": "Kubíčková"
          },
          {
            "given": [
              "Hynek"
            ]
          },
          {
            "text": "Hynek Kubíčková"
          }
        ],
        "address": [
          {
            "line": [
              "Vraňanská 9"
            ],
            "use": "home",
            "type": "physical",
            "postalCode": "739 11",
            "city": "Frýdlant nad Ostravicí",
            "country": "Czechia"
          }
        ],
        "telecom": [
          {
            "system": "phone",
            "value": "+420 605 458 784"
          }
        ],
        "extension": [
          {
            "url": "http://hl7.org/fhir/StructureDefinition/patient-nationality",
            "valueCodeableConcept": {
              "coding": [
                {
                  "code": "CZ",
                  "system": "http://hl7.org/fhir/ValueSet/country"
                }
              ]
            }
          }
        ],
        "text": {
          "status": "generated",
          "div": "<div xmlns=\"http://www.w3.org/1999/xhtml\"><table class=\"hl7__ips\"><tr><td>Hynek Kubíčková</td><td>male</td><td>24-Jun-2005</td></tr></table></div>"
        },
        "gender": "male",
        "birthDate": "2005-06-24"
      }
    },
    {
      "fullUrl": "urn:uuid:b2030232-18a8-44c6-8a6d-2918b6a5b590",
      "resource": {
        "resourceType": "ServiceRequest",
        "id": "b2030232-18a8-44c6-8a6d-2918b6a5b590",
        "meta": {
          "profile": [
            "http://hl7.eu/fhir/laboratory/StructureDefinition/ServiceRequest-eu-lab"
          ]
        },
        "identifier": [
          {
            "system": "http://example.org",
            "value": "4c0d7c41-7560-4b63-9d25-01d19278ad41"
          }
        ],
        "specimen": [
          {
            "reference": "urn:uuid:00fa7eb3-d54d-402a-92ec-4e1f0dba6075"
          }
        ],
        "status": "active",
        "intent": "order",
        "code": {
          "coding": [
            {
              "code": "108252007",
              "system": "http://snomed.info/sct",
              "display": "Laboratory procedure"
            }
          ]
        },
        "subject": {
          "reference": "urn:uuid:10980abb-439b-4181-a386-0d46bd10d7e8",
          "display": "Hynek Kubíčková"
        },
        "requester": {
          "reference": "urn:uuid:b0b1c8fc-a821-41fb-9f04-eecb2c8e3db8"
        }
      }
    },
    {
      "fullUrl": "urn:uuid:b0b1c8fc-a821-41fb-9f04-eecb2c8e3db8",
      "resource": {
        "resourceType": "PractitionerRole",
        "id": "b0b1c8fc-a821-41fb-9f04-eecb2c8e3db8",
        "meta": {
          "profile": [
            "http://hl7.eu/fhir/base/StructureDefinition/practitionerRole-eu"
          ]
        },
        "text": {
          "status": "generated",
          "div": "<div xmlns=\"http://www.w3.org/1999/xhtml\">Provider Role Id: b0b1c8fc-a821-41fb-9f04-eecb2c8e3db8</div>"
        },
        "organization": {
          "reference": "urn:uuid:8ec53fb9-485f-44fa-a603-6838c9e9938b"
        }
      }
    },
    {
      "fullUrl": "urn:uuid:8ec53fb9-485f-44fa-a603-6838c9e9938b",
      "resource": {
        "resourceType": "Organization",
        "id": "8ec53fb9-485f-44fa-a603-6838c9e9938b",
        "meta": {
          "profile": [
            "http://hl7.eu/fhir/base/StructureDefinition/organization-eu"
          ]
        },
        "identifier": [
          {
            "assigner": {
              "display": "HL7 Europe"
            },
            "system": "urn:oid:2.16.840.1.113883.2.51.999",
            "value": "bc1f4d96-ce78-47ea-8ffb-7c220e3a68de"
          }
        ],
        "address": [
          {
            "city": "Čeladná",
            "postalCode": "739 12",
            "country": "Czechia"
          }
        ],
        "text": {
          "status": "generated",
          "div": "<div xmlns=\"http://www.w3.org/1999/xhtml\">Provider Organization: Beskydské rehabilitační centrum</div>"
        },
        "name": "Beskydské rehabilitační centrum"
      }
    },
    {
      "fullUrl": "urn:uuid:00fa7eb3-d54d-402a-92ec-4e1f0dba6075",
      "resource": {
        "resourceType": "Specimen",
        "id": "00fa7eb3-d54d-402a-92ec-4e1f0dba6075",
        "meta": {
          "profile": [
            "http://hl7.eu/fhir/laboratory/StructureDefinition/Specimen-eu-lab"
          ]
        },
        "collection": {
          "collectedDateTime": "2016-09-15"
        },
        "text": {
          "status": "generated",
          "div": "<div xmlns=\"http://www.w3.org/1999/xhtml\"><table class=\"hl7__eu__lab__report\"><tr><th>Specimen</th><th>Collection Date</th></tr><tr><td>Whole blood specimen (specimen)</td><td><span class=\"nb\">15-Sep-2016</span></td></tr></table></div>"
        },
        "type": {
          "coding": [
            {
              "code": "258580003",
              "system": "http://snomed.info/sct",
              "display": "Whole blood specimen (specimen)"
            }
          ]
        }
      }
    },
    {
      "fullUrl": "urn:uuid:00fa7eb3-d54d-402a-92ec-4e1f0dba6075",
      "resource": {
        "resourceType": "Specimen",
        "id": "00fa7eb3-d54d-402a-92ec-4e1f0dba6075",
        "meta": {
          "profile": [
            "http://hl7.eu/fhir/laboratory/StructureDefinition/Specimen-eu-lab"
          ]
        },
        "collection": {
          "collectedDateTime": "2016-09-15"
        },
        "text": {
          "status": "generated",
          "div": "<div xmlns=\"http://www.w3.org/1999/xhtml\"><table class=\"hl7__eu__lab__report\"><tr><th>Specimen</th><th>Collection Date</th></tr><tr><td>Whole blood specimen (specimen)</td><td><span class=\"nb\">15-Sep-2016</span></td></tr></table></div>"
        },
        "type": {
          "coding": [
            {
              "code": "258580003",
              "system": "http://snomed.info/sct",
              "display": "Whole blood specimen (specimen)"
            }
          ]
        }
      }
    },
    {
      "fullUrl": "urn:uuid:bfe8bd66-0158-4626-a838-01b0fba5ab99",
      "resource": {
        "resourceType": "Observation",
        "id": "bfe8bd66-0158-4626-a838-01b0fba5ab99",
        "meta": {
          "profile": [
            "http://hl7.eu/fhir/laboratory/StructureDefinition/Observation-resultslab-eu-lab"
          ]
        },
        "performer": [
          {
            "display": "The Central European Lab"
          }
        ],
        "category": [
          {
            "coding": [
              {
                "system": "http://terminology.hl7.org/CodeSystem/observation-category",
                "code": "laboratory"
              }
            ]
          }
        ],
        "code": {
          "coding": [
            {
              "code": "6690-2",
              "system": "http://loinc.org",
              "display": "Leukocytes [#/volume] in Blood by Automated count"
            }
          ],
          "text": "Leukocytes [#/volume] in Blood by Automated count"
        },
        "valueQuantity": {
          "system": "http://unitsofmeasure.org",
          "value": 6.4,
          "unit": "10*3/uL",
          "code": "10*3/uL"
        },
        "referenceRange": [
          {
            "low": {
              "value": 3.5,
              "code": "10*3/uL",
              "system": "http://unitsofmeasure.org"
            }
          },
          {
            "high": {
              "value": 10.5,
              "code": "10*3/uL",
              "system": "http://unitsofmeasure.org"
            }
          }
        ],
        "text": {
          "status": "generated",
          "div": "<div xmlns=\"http://www.w3.org/1999/xhtml\"><table class=\"hl7__eu__lab__report\"><tr><th>Test</th><th>15-Sep-2016</th><th>Reference&#xA0;Range</th><th>Unit</th></tr><tr><td>Leukocytes [#/volume] in Blood by Automated count</td><td>6.4</td><td>3.5 - 10.5</td><td></td><td>10*3/uL</td></tr></table></div>"
        },
        "status": "final",
        "subject": {
          "reference": "urn:uuid:10980abb-439b-4181-a386-0d46bd10d7e8",
          "display": "Hynek Kubíčková"
        },
        "effectiveDateTime": "2016-09-15T12:02:45Z",
        "specimen": {
          "reference": "urn:uuid:00fa7eb3-d54d-402a-92ec-4e1f0dba6075"
        }
      }
    },
    {
      "fullUrl": "urn:uuid:589a0581-c9de-466b-bdec-d9718d6f17d3",
      "resource": {
        "resourceType": "Observation",
        "id": "589a0581-c9de-466b-bdec-d9718d6f17d3",
        "meta": {
          "profile": [
            "http://hl7.eu/fhir/laboratory/StructureDefinition/Observation-resultslab-eu-lab"
          ]
        },
        "performer": [
          {
            "display": "The Central European Lab"
          }
        ],
        "category": [
          {
            "coding": [
              {
                "system": "http://terminology.hl7.org/CodeSystem/observation-category",
                "code": "laboratory"
              }
            ]
          }
        ],
        "code": {
          "coding": [
            {
              "code": "789-8",
              "system": "http://loinc.org",
              "display": "Erythrocytes [#/volume] in Blood by Automated count"
            }
          ],
          "text": "Erythrocytes [#/volume] in Blood by Automated count"
        },
        "valueQuantity": {
          "system": "http://unitsofmeasure.org",
          "value": 5.3,
          "unit": "10*6/uL",
          "code": "10*6/uL"
        },
        "referenceRange": [
          {
            "low": {
              "value": 4.5,
              "code": "10*6/uL",
              "system": "http://unitsofmeasure.org"
            }
          },
          {
            "high": {
              "value": 6.2,
              "code": "10*6/uL",
              "system": "http://unitsofmeasure.org"
            }
          }
        ],
        "text": {
          "status": "generated",
          "div": "<div xmlns=\"http://www.w3.org/1999/xhtml\"><table class=\"hl7__eu__lab__report\"><tr><th>Test</th><th>15-Sep-2016</th><th>Reference&#xA0;Range</th><th>Unit</th></tr><tr><td>Erythrocytes [#/volume] in Blood by Automated count</td><td>5.3</td><td>4.5 - 6.2</td><td></td><td>10*6/uL</td></tr></table></div>"
        },
        "status": "final",
        "subject": {
          "reference": "urn:uuid:10980abb-439b-4181-a386-0d46bd10d7e8",
          "display": "Hynek Kubíčková"
        },
        "effectiveDateTime": "2016-09-15T12:02:45Z",
        "specimen": {
          "reference": "urn:uuid:00fa7eb3-d54d-402a-92ec-4e1f0dba6075"
        }
      }
    },
    {
      "fullUrl": "urn:uuid:8dea5e87-3618-4249-a803-9dda24779499",
      "resource": {
        "resourceType": "Observation",
        "id": "8dea5e87-3618-4249-a803-9dda24779499",
        "meta": {
          "profile": [
            "http://hl7.eu/fhir/laboratory/StructureDefinition/Observation-resultslab-eu-lab"
          ]
        },
        "performer": [
          {
            "display": "The Central European Lab"
          }
        ],
        "category": [
          {
            "coding": [
              {
                "system": "http://terminology.hl7.org/CodeSystem/observation-category",
                "code": "laboratory"
              }
            ]
          }
        ],
        "code": {
          "coding": [
            {
              "code": "718-7",
              "system": "http://loinc.org",
              "display": "Hemoglobin [Mass/volume] in Blood"
            }
          ],
          "text": "Hemoglobin [Mass/volume] in Blood"
        },
        "valueQuantity": {
          "system": "http://unitsofmeasure.org",
          "value": 13.5,
          "unit": "g/dL",
          "code": "g/dL"
        },
        "referenceRange": [
          {
            "low": {
              "value": 14,
              "code": "g/dL",
              "system": "http://unitsofmeasure.org"
            }
          },
          {
            "high": {
              "value": 18,
              "code": "g/dL",
              "system": "http://unitsofmeasure.org"
            }
          }
        ],
        "interpretation": [
          {
            "coding": [
              {
                "code": "L",
                "system": "http://terminology.hl7.org/CodeSystem/v3-ObservationInterpretation",
                "display": "Low"
              }
            ]
          }
        ],
        "text": {
          "status": "generated",
          "div": "<div xmlns=\"http://www.w3.org/1999/xhtml\"><table class=\"hl7__eu__lab__report\"><tr><th>Test</th><th>15-Sep-2016</th><th>Reference&#xA0;Range</th><th>Unit</th></tr><tr><td>Hemoglobin [Mass/volume] in Blood</td><td>13.5</td><td>14 - 18</td><td>L</td><td>g/dL</td></tr></table></div>"
        },
        "status": "final",
        "subject": {
          "reference": "urn:uuid:10980abb-439b-4181-a386-0d46bd10d7e8",
          "display": "Hynek Kubíčková"
        },
        "effectiveDateTime": "2016-09-15T12:02:45Z",
        "specimen": {
          "reference": "urn:uuid:00fa7eb3-d54d-402a-92ec-4e1f0dba6075"
        }
      }
    },
    {
      "fullUrl": "urn:uuid:64e56118-6970-4f54-a8c8-243f05afb537",
      "resource": {
        "resourceType": "Observation",
        "id": "64e56118-6970-4f54-a8c8-243f05afb537",
        "meta": {
          "profile": [
            "http://hl7.eu/fhir/laboratory/StructureDefinition/Observation-resultslab-eu-lab"
          ]
        },
        "performer": [
          {
            "display": "The Central European Lab"
          }
        ],
        "category": [
          {
            "coding": [
              {
                "system": "http://terminology.hl7.org/CodeSystem/observation-category",
                "code": "laboratory"
              }
            ]
          }
        ],
        "code": {
          "coding": [
            {
              "code": "4544-3",
              "system": "http://loinc.org",
              "display": "Hematocrit [Volume Fraction] of Blood by Automated count"
            }
          ],
          "text": "Hematocrit [Volume Fraction] of Blood by Automated count"
        },
        "valueQuantity": {
          "system": "http://unitsofmeasure.org",
          "value": 46.8,
          "unit": "%",
          "code": "%"
        },
        "referenceRange": [
          {
            "low": {
              "value": 38,
              "code": "%",
              "system": "http://unitsofmeasure.org"
            }
          },
          {
            "high": {
              "value": 52,
              "code": "%",
              "system": "http://unitsofmeasure.org"
            }
          }
        ],
        "text": {
          "status": "generated",
          "div": "<div xmlns=\"http://www.w3.org/1999/xhtml\"><table class=\"hl7__eu__lab__report\"><tr><th>Test</th><th>15-Sep-2016</th><th>Reference&#xA0;Range</th><th>Unit</th></tr><tr><td>Hematocrit [Volume Fraction] of Blood by Automated count</td><td>46.8</td><td>38 - 52</td><td></td><td>%</td></tr></table></div>"
        },
        "status": "final",
        "subject": {
          "reference": "urn:uuid:10980abb-439b-4181-a386-0d46bd10d7e8",
          "display": "Hynek Kubíčková"
        },
        "effectiveDateTime": "2016-09-15T12:02:45Z",
        "specimen": {
          "reference": "urn:uuid:00fa7eb3-d54d-402a-92ec-4e1f0dba6075"
        }
      }
    },
    {
      "fullUrl": "urn:uuid:a81b6687-f2a9-4681-aa46-75cb0082d6a3",
      "resource": {
        "resourceType": "Observation",
        "id": "a81b6687-f2a9-4681-aa46-75cb0082d6a3",
        "meta": {
          "profile": [
            "http://hl7.eu/fhir/laboratory/StructureDefinition/Observation-resultslab-eu-lab"
          ]
        },
        "performer": [
          {
            "display": "The Central European Lab"
          }
        ],
        "category": [
          {
            "coding": [
              {
                "system": "http://terminology.hl7.org/CodeSystem/observation-category",
                "code": "laboratory"
              }
            ]
          }
        ],
        "code": {
          "coding": [
            {
              "code": "787-2",
              "system": "http://loinc.org",
              "display": "MCV [Entitic volume] by Automated count"
            }
          ],
          "text": "MCV [Entitic volume] by Automated count"
        },
        "valueQuantity": {
          "system": "http://unitsofmeasure.org",
          "value": 88.4,
          "unit": "fL",
          "code": "fL"
        },
        "referenceRange": [
          {
            "low": {
              "value": 80,
              "code": "fL",
              "system": "http://unitsofmeasure.org"
            }
          },
          {
            "high": {
              "value": 98,
              "code": "fL",
              "system": "http://unitsofmeasure.org"
            }
          }
        ],
        "text": {
          "status": "generated",
          "div": "<div xmlns=\"http://www.w3.org/1999/xhtml\"><table class=\"hl7__eu__lab__report\"><tr><th>Test</th><th>15-Sep-2016</th><th>Reference&#xA0;Range</th><th>Unit</th></tr><tr><td>MCV [Entitic volume] by Automated count</td><td>88.4</td><td>80 - 98</td><td></td><td>fL</td></tr></table></div>"
        },
        "status": "final",
        "subject": {
          "reference": "urn:uuid:10980abb-439b-4181-a386-0d46bd10d7e8",
          "display": "Hynek Kubíčková"
        },
        "effectiveDateTime": "2016-09-15T12:02:45Z",
        "specimen": {
          "reference": "urn:uuid:00fa7eb3-d54d-402a-92ec-4e1f0dba6075"
        }
      }
    },
    {
      "fullUrl": "urn:uuid:2f314345-9f0d-4bd4-b0a1-f0f3323d6c22",
      "resource": {
        "resourceType": "Observation",
        "id": "2f314345-9f0d-4bd4-b0a1-f0f3323d6c22",
        "meta": {
          "profile": [
            "http://hl7.eu/fhir/laboratory/StructureDefinition/Observation-resultslab-eu-lab"
          ]
        },
        "performer": [
          {
            "display": "The Central European Lab"
          }
        ],
        "category": [
          {
            "coding": [
              {
                "system": "http://terminology.hl7.org/CodeSystem/observation-category",
                "code": "laboratory"
              }
            ]
          }
        ],
        "code": {
          "coding": [
            {
              "code": "785-6",
              "system": "http://loinc.org",
              "display": "MCH [Entitic mass] by Automated count"
            }
          ],
          "text": "MCH [Entitic mass] by Automated count"
        },
        "valueQuantity": {
          "system": "http://unitsofmeasure.org",
          "value": 27.6,
          "unit": "pg",
          "code": "pg"
        },
        "referenceRange": [
          {
            "low": {
              "value": 27,
              "code": "pg",
              "system": "http://unitsofmeasure.org"
            }
          },
          {
            "high": {
              "value": 33,
              "code": "pg",
              "system": "http://unitsofmeasure.org"
            }
          }
        ],
        "text": {
          "status": "generated",
          "div": "<div xmlns=\"http://www.w3.org/1999/xhtml\"><table class=\"hl7__eu__lab__report\"><tr><th>Test</th><th>15-Sep-2016</th><th>Reference&#xA0;Range</th><th>Unit</th></tr><tr><td>MCH [Entitic mass] by Automated count</td><td>27.6</td><td>27 - 33</td><td></td><td>pg</td></tr></table></div>"
        },
        "status": "final",
        "subject": {
          "reference": "urn:uuid:10980abb-439b-4181-a386-0d46bd10d7e8",
          "display": "Hynek Kubíčková"
        },
        "effectiveDateTime": "2016-09-15T12:02:45Z",
        "specimen": {
          "reference": "urn:uuid:00fa7eb3-d54d-402a-92ec-4e1f0dba6075"
        }
      }
    },
    {
      "fullUrl": "urn:uuid:464fabbe-ae40-4008-b4f3-33d4e4d0d148",
      "resource": {
        "resourceType": "Observation",
        "id": "464fabbe-ae40-4008-b4f3-33d4e4d0d148",
        "meta": {
          "profile": [
            "http://hl7.eu/fhir/laboratory/StructureDefinition/Observation-resultslab-eu-lab"
          ]
        },
        "performer": [
          {
            "display": "The Central European Lab"
          }
        ],
        "category": [
          {
            "coding": [
              {
                "system": "http://terminology.hl7.org/CodeSystem/observation-category",
                "code": "laboratory"
              }
            ]
          }
        ],
        "code": {
          "coding": [
            {
              "code": "786-4",
              "system": "http://loinc.org",
              "display": "MCHC [Mass/volume] by Automated count"
            }
          ],
          "text": "MCHC [Mass/volume] by Automated count"
        },
        "valueQuantity": {
          "system": "http://unitsofmeasure.org",
          "value": 35.5,
          "unit": "g/dL",
          "code": "g/dL"
        },
        "referenceRange": [
          {
            "low": {
              "value": 32,
              "code": "g/dL",
              "system": "http://unitsofmeasure.org"
            }
          },
          {
            "high": {
              "value": 36,
              "code": "g/dL",
              "system": "http://unitsofmeasure.org"
            }
          }
        ],
        "text": {
          "status": "generated",
          "div": "<div xmlns=\"http://www.w3.org/1999/xhtml\"><table class=\"hl7__eu__lab__report\"><tr><th>Test</th><th>15-Sep-2016</th><th>Reference&#xA0;Range</th><th>Unit</th></tr><tr><td>MCHC [Mass/volume] by Automated count</td><td>35.5</td><td>32 - 36</td><td></td><td>g/dL</td></tr></table></div>"
        },
        "status": "final",
        "subject": {
          "reference": "urn:uuid:10980abb-439b-4181-a386-0d46bd10d7e8",
          "display": "Hynek Kubíčková"
        },
        "effectiveDateTime": "2016-09-15T12:02:45Z",
        "specimen": {
          "reference": "urn:uuid:00fa7eb3-d54d-402a-92ec-4e1f0dba6075"
        }
      }
    },
    {
      "fullUrl": "urn:uuid:25cf80f5-9799-449f-b6b3-2dc5b5be9602",
      "resource": {
        "resourceType": "Observation",
        "id": "25cf80f5-9799-449f-b6b3-2dc5b5be9602",
        "meta": {
          "profile": [
            "http://hl7.eu/fhir/laboratory/StructureDefinition/Observation-resultslab-eu-lab"
          ]
        },
        "performer": [
          {
            "display": "The Central European Lab"
          }
        ],
        "category": [
          {
            "coding": [
              {
                "system": "http://terminology.hl7.org/CodeSystem/observation-category",
                "code": "laboratory"
              }
            ]
          }
        ],
        "code": {
          "coding": [
            {
              "code": "21000-5",
              "system": "http://loinc.org",
              "display": "Erythrocyte distribution width [Entitic volume] by Automated count"
            }
          ],
          "text": "Erythrocyte distribution width [Entitic volume] by Automated count"
        },
        "valueQuantity": {
          "system": "http://unitsofmeasure.org",
          "value": 39.6,
          "unit": "fL",
          "code": "fL"
        },
        "referenceRange": [
          {
            "low": {
              "value": 36,
              "code": "fL",
              "system": "http://unitsofmeasure.org"
            }
          },
          {
            "high": {
              "value": 55,
              "code": "fL",
              "system": "http://unitsofmeasure.org"
            }
          }
        ],
        "text": {
          "status": "generated",
          "div": "<div xmlns=\"http://www.w3.org/1999/xhtml\"><table class=\"hl7__eu__lab__report\"><tr><th>Test</th><th>15-Sep-2016</th><th>Reference&#xA0;Range</th><th>Unit</th></tr><tr><td>Erythrocyte distribution width [Entitic volume] by Automated count</td><td>39.6</td><td>36 - 55</td><td></td><td>fL</td></tr></table></div>"
        },
        "status": "final",
        "subject": {
          "reference": "urn:uuid:10980abb-439b-4181-a386-0d46bd10d7e8",
          "display": "Hynek Kubíčková"
        },
        "effectiveDateTime": "2016-09-15T12:02:45Z",
        "specimen": {
          "reference": "urn:uuid:00fa7eb3-d54d-402a-92ec-4e1f0dba6075"
        }
      }
    },
    {
      "fullUrl": "urn:uuid:450fa467-5acc-4995-b0a8-86d6f4b4fbd4",
      "resource": {
        "resourceType": "Observation",
        "id": "450fa467-5acc-4995-b0a8-86d6f4b4fbd4",
        "meta": {
          "profile": [
            "http://hl7.eu/fhir/laboratory/StructureDefinition/Observation-resultslab-eu-lab"
          ]
        },
        "performer": [
          {
            "display": "The Central European Lab"
          }
        ],
        "category": [
          {
            "coding": [
              {
                "system": "http://terminology.hl7.org/CodeSystem/observation-category",
                "code": "laboratory"
              }
            ]
          }
        ],
        "code": {
          "coding": [
            {
              "code": "777-3",
              "system": "http://loinc.org",
              "display": "Platelets [#/volume] in Blood by Automated count"
            }
          ],
          "text": "Platelets [#/volume] in Blood by Automated count"
        },
        "valueQuantity": {
          "system": "http://unitsofmeasure.org",
          "value": 377.1,
          "unit": "10*3/uL",
          "code": "10*3/uL"
        },
        "referenceRange": [
          {
            "low": {
              "value": 150,
              "code": "10*3/uL",
              "system": "http://unitsofmeasure.org"
            }
          },
          {
            "high": {
              "value": 350,
              "code": "10*3/uL",
              "system": "http://unitsofmeasure.org"
            }
          }
        ],
        "interpretation": [
          {
            "coding": [
              {
                "code": "H",
                "system": "http://terminology.hl7.org/CodeSystem/v3-ObservationInterpretation",
                "display": "High"
              }
            ]
          }
        ],
        "text": {
          "status": "generated",
          "div": "<div xmlns=\"http://www.w3.org/1999/xhtml\"><table class=\"hl7__eu__lab__report\"><tr><th>Test</th><th>15-Sep-2016</th><th>Reference&#xA0;Range</th><th>Unit</th></tr><tr><td>Platelets [#/volume] in Blood by Automated count</td><td>377.1</td><td>150 - 350</td><td>H</td><td>10*3/uL</td></tr></table></div>"
        },
        "status": "final",
        "subject": {
          "reference": "urn:uuid:10980abb-439b-4181-a386-0d46bd10d7e8",
          "display": "Hynek Kubíčková"
        },
        "effectiveDateTime": "2016-09-15T12:02:45Z",
        "specimen": {
          "reference": "urn:uuid:00fa7eb3-d54d-402a-92ec-4e1f0dba6075"
        }
      }
    },
    {
      "fullUrl": "urn:uuid:4b6f19e1-fb9e-4185-9841-38ca1c3025c1",
      "resource": {
        "resourceType": "Observation",
        "id": "4b6f19e1-fb9e-4185-9841-38ca1c3025c1",
        "meta": {
          "profile": [
            "http://hl7.eu/fhir/laboratory/StructureDefinition/Observation-resultslab-eu-lab"
          ]
        },
        "performer": [
          {
            "display": "The Central European Lab"
          }
        ],
        "category": [
          {
            "coding": [
              {
                "system": "http://terminology.hl7.org/CodeSystem/observation-category",
                "code": "laboratory"
              }
            ]
          }
        ],
        "code": {
          "coding": [
            {
              "code": "32207-3",
              "system": "http://loinc.org",
              "display": "Platelet distribution width [Entitic volume] in Blood by Automated count"
            }
          ],
          "text": "Platelet distribution width [Entitic volume] in Blood by Automated count"
        },
        "valueQuantity": {
          "system": "http://unitsofmeasure.org",
          "value": 302.1,
          "unit": "fL",
          "code": "fL"
        },
        "referenceRange": [
          {
            "low": {
              "value": 150,
              "code": "fL",
              "system": "http://unitsofmeasure.org"
            }
          },
          {
            "high": {
              "value": 450,
              "code": "fL",
              "system": "http://unitsofmeasure.org"
            }
          }
        ],
        "text": {
          "status": "generated",
          "div": "<div xmlns=\"http://www.w3.org/1999/xhtml\"><table class=\"hl7__eu__lab__report\"><tr><th>Test</th><th>15-Sep-2016</th><th>Reference&#xA0;Range</th><th>Unit</th></tr><tr><td>Platelet distribution width [Entitic volume] in Blood by Automated count</td><td>302.1</td><td>150 - 450</td><td></td><td>fL</td></tr></table></div>"
        },
        "status": "final",
        "subject": {
          "reference": "urn:uuid:10980abb-439b-4181-a386-0d46bd10d7e8",
          "display": "Hynek Kubíčková"
        },
        "effectiveDateTime": "2016-09-15T12:02:45Z",
        "specimen": {
          "reference": "urn:uuid:00fa7eb3-d54d-402a-92ec-4e1f0dba6075"
        }
      }
    },
    {
      "fullUrl": "urn:uuid:591ef98a-2058-47d6-b833-6a7a7690a73c",
      "resource": {
        "resourceType": "Observation",
        "id": "591ef98a-2058-47d6-b833-6a7a7690a73c",
        "meta": {
          "profile": [
            "http://hl7.eu/fhir/laboratory/StructureDefinition/Observation-resultslab-eu-lab"
          ]
        },
        "performer": [
          {
            "display": "The Central European Lab"
          }
        ],
        "category": [
          {
            "coding": [
              {
                "system": "http://terminology.hl7.org/CodeSystem/observation-category",
                "code": "laboratory"
              }
            ]
          }
        ],
        "code": {
          "coding": [
            {
              "code": "32623-1",
              "system": "http://loinc.org",
              "display": "Platelet mean volume [Entitic volume] in Blood by Automated count"
            }
          ],
          "text": "Platelet mean volume [Entitic volume] in Blood by Automated count"
        },
        "valueQuantity": {
          "system": "http://unitsofmeasure.org",
          "value": 11.9,
          "unit": "fL",
          "code": "fL"
        },
        "referenceRange": [
          {
            "low": {
              "value": 9.8,
              "code": "fL",
              "system": "http://unitsofmeasure.org"
            }
          },
          {
            "high": {
              "value": 13.8,
              "code": "fL",
              "system": "http://unitsofmeasure.org"
            }
          }
        ],
        "text": {
          "status": "generated",
          "div": "<div xmlns=\"http://www.w3.org/1999/xhtml\"><table class=\"hl7__eu__lab__report\"><tr><th>Test</th><th>15-Sep-2016</th><th>Reference&#xA0;Range</th><th>Unit</th></tr><tr><td>Platelet mean volume [Entitic volume] in Blood by Automated count</td><td>11.9</td><td>9.8 - 13.8</td><td></td><td>fL</td></tr></table></div>"
        },
        "status": "final",
        "subject": {
          "reference": "urn:uuid:10980abb-439b-4181-a386-0d46bd10d7e8",
          "display": "Hynek Kubíčková"
        },
        "effectiveDateTime": "2016-09-15T12:02:45Z",
        "specimen": {
          "reference": "urn:uuid:00fa7eb3-d54d-402a-92ec-4e1f0dba6075"
        }
      }
    },
    {
      "fullUrl": "urn:uuid:de0d38cb-0c2c-4cde-aa4c-21a310e2d640",
      "resource": {
        "resourceType": "Device",
        "id": "de0d38cb-0c2c-4cde-aa4c-21a310e2d640",
        "deviceName": [
          {
            "name": "SYNDERAI Synthetic Generator",
            "type": "manufacturer-name"
          }
        ],
        "version": [
          {
            "value": "5.0"
          }
        ],
        "text": {
          "status": "generated",
          "div": "<div xmlns=\"http://www.w3.org/1999/xhtml\">SYNDERAI Synthetic Generator v5.0</div>"
        },
        "status": "active\"",
        "distinctIdentifier": "synderai-generator-50",
        "manufacturer": "SYNDERAI Project"
      }
    },
    {
      "fullUrl": "urn:uuid:90ec02f4-2add-432d-9395-8a5b27695f50",
      "resource": {
        "resourceType": "Provenance",
        "id": "90ec02f4-2add-432d-9395-8a5b27695f50",
        "target": [
          {
            "reference": "Patient/10980abb-439b-4181-a386-0d46bd10d7e8"
          },
          {
            "reference": "Bundle/b8d4dad9-d0a0-42ae-b1f0-f83de76726d8"
          },
          {
            "reference": "Composition/519a8e56-d441-4e23-b6d8-9fe02283146a"
          },
          {
            "reference": "PractitionerRole/22a2a705-26b1-4e40-b519-2797109667fb"
          },
          {
            "reference": "Practitioner/0af5b9bf-0987-42ff-8987-8da93a9c0885"
          },
          {
            "reference": "PractitionerRole/b0b1c8fc-a821-41fb-9f04-eecb2c8e3db8"
          },
          {
            "reference": "Organization/8ec53fb9-485f-44fa-a603-6838c9e9938b"
          }
        ],
        "activity": {
          "text": "Synthetic Example Data Generation"
        },
        "policy": [
          "https://synderai.net/synderai-synthetic-data-policy"
        ],
        "agent": [
          {
            "type": {
              "text": "author"
            },
            "who": {
              "reference": "Device/de0d38cb-0c2c-4cde-aa4c-21a310e2d640"
            }
          }
        ],
        "reason": [
          {
            "text": "Interoperability Testing and Training (non-clinical use)"
          }
        ],
        "text": {
          "status": "generated",
          "div": "<div xmlns=\"http://www.w3.org/1999/xhtml\">Provenance for SYNDERAI Synthetic Example Data Resource</div>"
        },
        "recorded": "2016-09-15T14:02:45Z"
      }
    },
    {
      "fullUrl": "urn:uuid:22a2a705-26b1-4e40-b519-2797109667fb",
      "resource": {
        "resourceType": "PractitionerRole",
        "id": "22a2a705-26b1-4e40-b519-2797109667fb",
        "meta": {
          "profile": [
            "http://hl7.eu/fhir/base/StructureDefinition/practitionerRole-eu"
          ]
        },
        "text": {
          "status": "generated",
          "div": "<div xmlns=\"http://www.w3.org/1999/xhtml\">Laboratory Role Id: 22a2a705-26b1-4e40-b519-2797109667fb</div>"
        },
        "practitioner": {
          "reference": "urn:uuid:0af5b9bf-0987-42ff-8987-8da93a9c0885"
        }
      }
    },
    {
      "fullUrl": "urn:uuid:0af5b9bf-0987-42ff-8987-8da93a9c0885",
      "resource": {
        "resourceType": "Practitioner",
        "id": "0af5b9bf-0987-42ff-8987-8da93a9c0885",
        "meta": {
          "profile": [
            "http://hl7.eu/fhir/base/StructureDefinition/practitioner-eu"
          ]
        },
        "identifier": [
          {
            "assigner": {
              "display": "HL7 Europe"
            },
            "system": "urn:oid:2.16.840.1.113883.2.51.999",
            "value": "b766d05d-914a-42c4-a2c3-1586d196f84e"
          }
        ],
        "name": [
          {
            "prefix": [
              "dr"
            ],
            "given": [
              "Ex"
            ],
            "family": "Ample"
          }
        ],
        "address": [
          {
            "line": [
              "Laboratoire Central Européenne",
              "Boulevard du Jardin Botanique 32"
            ],
            "postalCode": "1000",
            "city": "Brussels",
            "country": "Belgium"
          }
        ],
        "text": {
          "status": "generated",
          "div": "<div xmlns=\"http://www.w3.org/1999/xhtml\">Laboratory: Laboratoire Central Européenne, 1000 Brussels, Belgium</div>"
        }
      }
    }
  ],
  "type": "document",
  "timestamp": "2016-09-15T14:02:45Z"
}
