{
  "resourceType": "Bundle",
  "id": "543e60e6-2c37-4207-a975-730bf974f6c7",
  "meta": {
    "profile": [
      "http://hl7.eu/fhir/laboratory/StructureDefinition/Bundle-eu-lab"
    ]
  },
  "identifier": {
    "assigner": {
      "display": "HL7 Europe"
    },
    "system": "urn:oid:2.16.840.1.113883.2.51.999",
    "value": "53f7e248-24e8-4504-9fda-27250f24efd6"
  },
  "entry": [
    {
      "fullUrl": "urn:uuid:9acee959-f93f-460a-9c69-befdb983e7f5",
      "resource": {
        "resourceType": "Composition",
        "id": "9acee959-f93f-460a-9c69-befdb983e7f5",
        "meta": {
          "profile": [
            "http://hl7.eu/fhir/laboratory/StructureDefinition/Composition-eu-lab"
          ]
        },
        "identifier": {
          "assigner": {
            "display": "HL7 Europe"
          },
          "system": "urn:oid:2.16.840.1.113883.2.51.999",
          "value": "0569a314-fb85-4c57-a42f-720e889641ac"
        },
        "author": [
          {
            "reference": "urn:uuid:da92d1f2-ae76-4913-9564-3747e1a69546"
          }
        ],
        "category": [
          {
            "coding": [
              {
                "code": "26436-6",
                "system": "http://loinc.org",
                "display": "Laboratory studies (set)"
              }
            ]
          }
        ],
        "type": {
          "coding": [
            {
              "code": "11502-2",
              "system": "http://loinc.org",
              "display": "Laboratory report"
            }
          ],
          "text": "Laboratory Report"
        },
        "section": [
          {
            "code": {
              "coding": [
                {
                  "code": "26436-6",
                  "system": "http://loinc.org",
                  "display": "Laboratory studies (set)"
                }
              ],
              "text": "Laboratory studies"
            },
            "section": [
              {
                "code": {
                  "coding": [
                    {
                      "code": "$18719-5",
                      "system": "http://loinc.org",
                      "display": "Chemistry studies (set)"
                    }
                  ],
                  "text": "Chemistry"
                },
                "entry": [
                  {
                    "reference": "urn:uuid:eecfab54-ba37-411b-bffe-645b2f2f0ba7"
                  },
                  {
                    "reference": "urn:uuid:5a8f5e69-3ed8-49aa-a6fe-a78af3649bfa"
                  },
                  {
                    "reference": "urn:uuid:fdc453a1-11e5-431f-a007-ef8074da3d99"
                  },
                  {
                    "reference": "urn:uuid:29df5e1e-ff5d-40f9-b26c-63d9b099b84f"
                  },
                  {
                    "reference": "urn:uuid:24e93225-bc1b-45b4-a8d8-c8bda6fb9297"
                  },
                  {
                    "reference": "urn:uuid:0ab79370-609e-44c8-8fbe-14ccdb3cae65"
                  },
                  {
                    "reference": "urn:uuid:17e4ad26-d3bb-49a5-9cfe-a9bd37b7d772"
                  },
                  {
                    "reference": "urn:uuid:7b6b1660-a6d0-49a2-8763-e2922777d002"
                  },
                  {
                    "reference": "urn:uuid:54277cfb-5810-406e-85db-c9073d4e938c"
                  },
                  {
                    "reference": "urn:uuid:6e6e0eeb-f089-446c-adf7-628c9c7ff87d"
                  },
                  {
                    "reference": "urn:uuid:10b66ebb-b604-4507-9128-0d0082e4f94a"
                  },
                  {
                    "reference": "urn:uuid:98307711-d66f-4a41-aa82-856fc4ca8a8a"
                  },
                  {
                    "reference": "urn:uuid:78c2b727-0037-4eb0-9413-87238993be6c"
                  },
                  {
                    "reference": "urn:uuid:7ad6ec51-ca99-4b82-961f-c59df974d459"
                  },
                  {
                    "reference": "urn:uuid:1e17010f-495f-4089-96c5-fd4962eb3327"
                  },
                  {
                    "reference": "urn:uuid:3c62cad0-387c-4565-a619-3b465d230acb"
                  },
                  {
                    "reference": "urn:uuid:a2442b10-d762-4266-b316-f0e4d73c9c5a"
                  },
                  {
                    "reference": "urn:uuid:faa553ad-373a-49e8-a9fc-a46b3726c3b8"
                  }
                ],
                "text": {
                  "status": "generated",
                  "div": "<div xmlns=\"http://www.w3.org/1999/xhtml\"><h3>Chemistry</h3><table class=\"hl7__eu__lab__report\"><thead><tr><th>Test</th><th>20-JUL-2018</th><th>Reference&#xA0;Range</th><th>Unit</th></tr></thead><tbody><tr><td>Glucose [Mass/volume] in Serum or Plasma</td><td>83.6</td><td>70 - 140</td><td>mg/dL</td></tr><tr><td>Urea nitrogen [Mass/volume] in Serum or Plasma</td><td>10.1</td><td>7 - 20</td><td>mg/dL</td></tr><tr><td>Creatinine [Mass/volume] in Serum or Plasma</td><td><strong>1.9 H</strong></td><td>0.9 - 1.3</td><td>mg/dL</td></tr><tr><td>Calcium [Mass/volume] in Serum or Plasma</td><td>8.9</td><td>8.5 - 10.5</td><td>mg/dL</td></tr><tr><td>Sodium [Moles/volume] in Serum or Plasma</td><td>136.1</td><td>135 - 145</td><td>mmol/L</td></tr><tr><td>Potassium [Moles/volume] in Serum or Plasma</td><td>4.7</td><td>3.5 - 5.3</td><td>mmol/L</td></tr><tr><td>Chloride [Moles/volume] in Serum or Plasma</td><td>105.7</td><td>98 - 107</td><td>mmol/L</td></tr><tr><td>Carbon dioxide, total [Moles/volume] in Serum or Plasma</td><td><strong>20.1 L</strong></td><td>22 - 33</td><td>mmol/L</td></tr><tr><td>Ketones [Presence] in Urine by Test strip</td><td>Urine ketone test = +</td><td></td><td></td></tr><tr><td>Hemoglobin A1c/Hemoglobin.total in Blood</td><td><strong>2.8 L</strong></td><td>4.3 - 6</td><td>%</td></tr><tr><td>Glucose [Mass/volume] in Blood</td><td>83.6</td><td>70 - 140</td><td>mg/dL</td></tr><tr><td>Urea nitrogen [Mass/volume] in Blood</td><td>10.1</td><td>7 - 20</td><td>mg/dL</td></tr><tr><td>Creatinine [Mass/volume] in Blood</td><td><strong>1.6 H</strong></td><td>0.9 - 1.3</td><td>mg/dL</td></tr><tr><td>Calcium [Mass/volume] in Blood</td><td>8.9</td><td>8.5 - 10.5</td><td>mg/dL</td></tr><tr><td>Sodium [Moles/volume] in Blood</td><td>136.1</td><td>135 - 145</td><td>mmol/L</td></tr><tr><td>Potassium [Moles/volume] in Blood</td><td>4.7</td><td>3.5 - 5.1</td><td>mmol/L</td></tr><tr><td>Chloride [Moles/volume] in Blood</td><td>105.7</td><td>98 - 108</td><td>mmol/L</td></tr><tr><td>Carbon dioxide, total [Moles/volume] in Blood</td><td><strong>20.1 L</strong></td><td>22 - 29</td><td>mmol/L</td></tr></tbody></table></div>"
                },
                "title": "Chemistry"
              },
              {
                "code": {
                  "coding": [
                    {
                      "code": "$18729-4",
                      "system": "http://loinc.org",
                      "display": "Urinalysis studies (set)"
                    }
                  ],
                  "text": "Urinalysis"
                },
                "entry": [
                  {
                    "reference": "urn:uuid:fedd0dd5-1a18-4458-9a80-62bd09881a26"
                  },
                  {
                    "reference": "urn:uuid:3fefe724-000b-4ce1-b9ff-2579ba0291e2"
                  },
                  {
                    "reference": "urn:uuid:2cc2549e-9b45-4b13-b35b-55fa97e7f967"
                  },
                  {
                    "reference": "urn:uuid:53cf317b-fb21-41f2-a6c9-e6a8fcee29b8"
                  },
                  {
                    "reference": "urn:uuid:e35dbbaa-342e-4cd1-b104-19648bb8f682"
                  },
                  {
                    "reference": "urn:uuid:845176a9-518f-40c1-8fcf-68e39477fb6e"
                  },
                  {
                    "reference": "urn:uuid:5d88c5fb-beef-4817-a0a9-9b5702967048"
                  },
                  {
                    "reference": "urn:uuid:02a401ed-251d-4f4b-b734-41af67473d34"
                  },
                  {
                    "reference": "urn:uuid:4c27afc5-f0b0-4a23-8dab-e703ffeddc1b"
                  },
                  {
                    "reference": "urn:uuid:a3a99f6d-8a29-4b93-9142-7c505f77bbbb"
                  },
                  {
                    "reference": "urn:uuid:440747c1-81bb-430d-a3ce-cf3dab5f71c3"
                  },
                  {
                    "reference": "urn:uuid:5d8ef524-040c-410e-baf6-18d884f2b2a9"
                  }
                ],
                "text": {
                  "status": "generated",
                  "div": "<div xmlns=\"http://www.w3.org/1999/xhtml\"><h3>Urinalysis</h3><table class=\"hl7__eu__lab__report\"><thead><tr><th>Test</th><th>20-JUL-2018</th><th>Reference&#xA0;Range</th><th>Unit</th></tr></thead><tbody><tr><td>Glucose [Mass/volume] in Urine by Test strip</td><td><strong>1.4 H</strong></td><td>0 - 0.8</td><td>mg/dL</td></tr><tr><td>Glucose [Presence] in Urine by Test strip</td><td>++</td><td></td><td></td></tr><tr><td>Bilirubin.total [Mass/volume] in Urine by Test strip</td><td>0.9</td><td>0 - 1.9</td><td>mg/dL</td></tr><tr><td>Bilirubin.total [Presence] in Urine by Test strip</td><td>Finding of bilirubin in urine</td><td></td><td></td></tr><tr><td>Ketones [Mass/volume] in Urine by Test strip</td><td><strong>8.2 H</strong></td><td>0 - 3</td><td>mg/dL</td></tr><tr><td>Specific gravity of Urine by Test strip</td><td><strong>1.0 L</strong></td><td>1.01 - 1.03</td><td>{nominal}</td></tr><tr><td>pH of Urine by Test strip</td><td>6.1</td><td>4.5 - 7.5</td><td>pH</td></tr><tr><td>Protein [Mass/volume] in Urine by Test strip</td><td><strong>313.0 H</strong></td><td>0 - 149</td><td>mg/dL</td></tr><tr><td>Protein [Presence] in Urine by Test strip</td><td>Urine protein test = ++</td><td></td><td></td></tr><tr><td>Nitrite [Presence] in Urine by Test strip</td><td>Urine nitrite negative</td><td></td><td></td></tr><tr><td>Hemoglobin [Presence] in Urine by Test strip</td><td>Urine blood test = negative</td><td></td><td></td></tr><tr><td>Leukocyte esterase [Presence] in Urine by Test strip</td><td>Urine leukocyte test negative</td><td></td><td></td></tr></tbody></table></div>"
                },
                "title": "Urinalysis"
              },
              {
                "code": {
                  "coding": [
                    {
                      "code": "$LP7846-1",
                      "system": "http://loinc.org",
                      "display": "Specimen information"
                    }
                  ],
                  "text": "Specimen information"
                },
                "entry": [
                  {
                    "reference": "urn:uuid:92531ef3-eb8c-4d5c-a073-77391b364448"
                  },
                  {
                    "reference": "urn:uuid:7e78d9eb-d398-4537-881b-1d9ce5f10d6e"
                  },
                  {
                    "reference": "urn:uuid:b06dd2ab-07cb-4806-878f-353e4d007f75"
                  },
                  {
                    "reference": "urn:uuid:e4f3ea33-a2b8-46d4-bc72-36dc5e180ef9"
                  }
                ],
                "text": {
                  "status": "generated",
                  "div": "<div xmlns=\"http://www.w3.org/1999/xhtml\"><h3>Specimen information</h3><table class=\"hl7__eu__lab__report\"><thead><tr><th>Test</th><th>20-JUL-2018</th><th>Specimen</th><th></th></tr></thead><tbody><tr><td>Appearance of Urine</td><td>Cloudy urine</td><td>Urine</td><td></td></tr><tr><td>Odor of Urine</td><td>Urine smell ammoniacal</td><td>Urine</td><td></td></tr><tr><td>Clarity of Urine</td><td>Translucent</td><td>Urine</td><td></td></tr><tr><td>Color of Urine</td><td>Brown color</td><td>Urine</td><td></td></tr></tbody></table></div>"
                },
                "title": "Specimen information"
              }
            ],
            "title": "Laboratory Report"
          },
          {
            "text": {
              "status": "generated",
              "div": "<div xmlns=\"http://www.w3.org/1999/xhtml\"><h3>Annotation</h3><table class=\"hl7__eu__lab__report\"><tr><th>Conclusion and Recommendations based on this report and previous findings known to us</th></tr><tr><td>The patient shows mildly elevated creatinine, suggesting possible renal impairment, and low total CO₂, which may indicate mild metabolic acidosis. Urinalysis reveals proteinuria, glycosuria, and ketonuria, with low specific gravity and abnormal urine appearance, raising concern for renal dysfunction and possible dehydration or metabolic disturbance. HbA1c is unexpectedly low, possibly due to analytical or clinical factors. No evidence of urinary tract infection. Recommend further evaluation of renal function, metabolic status, and review of diabetes assessment.</td></tr></table></div>"
            },
            "code": {
              "coding": [
                {
                  "system": "http://loinc.org",
                  "code": "48767-8",
                  "display": "Annotation comment"
                }
              ]
            },
            "title": "Annotation comment"
          }
        ],
        "status": "final",
        "subject": {
          "reference": "urn:uuid:18c7d370-51ea-4fc9-a150-66f975ab698d",
          "display": "Victor Lagarde"
        },
        "date": "2018-07-20T06:48:18Z",
        "title": "Laboratory Report",
        "confidentiality": "N"
      }
    },
    {
      "fullUrl": "urn:uuid:2aacffed-1943-40ef-8566-fc23c321cc2f",
      "resource": {
        "resourceType": "DiagnosticReport",
        "id": "2aacffed-1943-40ef-8566-fc23c321cc2f",
        "meta": {
          "profile": [
            "http://hl7.eu/fhir/laboratory/StructureDefinition/DiagnosticReport-eu-lab"
          ]
        },
        "identifier": [
          {
            "assigner": {
              "display": "HL7 Europe"
            },
            "system": "urn:oid:2.16.840.1.113883.2.51.999",
            "value": "ab94bb4e-1d0d-4c44-ba7a-dc68e2502ea6"
          }
        ],
        "extension": [
          {
            "url": "http://hl7.org/fhir/5.0/StructureDefinition/extension-DiagnosticReport.composition",
            "valueReference": {
              "reference": "urn:uuid:0569a314-fb85-4c57-a42f-720e889641ac"
            }
          }
        ],
        "category": [
          {
            "coding": [
              {
                "code": "26436-6",
                "system": "http://loinc.org",
                "display": "Laboratory studies (set)"
              }
            ]
          }
        ],
        "specimen": [
          {
            "reference": "urn:uuid:f6d98655-b62d-47a7-b224-21615a44dd31"
          },
          {
            "reference": "urn:uuid:bae6a372-7fcf-4773-9a43-80207bdc21fa"
          },
          {
            "reference": "urn:uuid:98ef80c5-b110-4f4c-b418-dc224ff22cb3"
          }
        ],
        "result": [
          {
            "reference": "urn:uuid:eecfab54-ba37-411b-bffe-645b2f2f0ba7"
          },
          {
            "reference": "urn:uuid:5a8f5e69-3ed8-49aa-a6fe-a78af3649bfa"
          },
          {
            "reference": "urn:uuid:fdc453a1-11e5-431f-a007-ef8074da3d99"
          },
          {
            "reference": "urn:uuid:29df5e1e-ff5d-40f9-b26c-63d9b099b84f"
          },
          {
            "reference": "urn:uuid:24e93225-bc1b-45b4-a8d8-c8bda6fb9297"
          },
          {
            "reference": "urn:uuid:0ab79370-609e-44c8-8fbe-14ccdb3cae65"
          },
          {
            "reference": "urn:uuid:17e4ad26-d3bb-49a5-9cfe-a9bd37b7d772"
          },
          {
            "reference": "urn:uuid:7b6b1660-a6d0-49a2-8763-e2922777d002"
          },
          {
            "reference": "urn:uuid:92531ef3-eb8c-4d5c-a073-77391b364448"
          },
          {
            "reference": "urn:uuid:7e78d9eb-d398-4537-881b-1d9ce5f10d6e"
          },
          {
            "reference": "urn:uuid:b06dd2ab-07cb-4806-878f-353e4d007f75"
          },
          {
            "reference": "urn:uuid:e4f3ea33-a2b8-46d4-bc72-36dc5e180ef9"
          },
          {
            "reference": "urn:uuid:fedd0dd5-1a18-4458-9a80-62bd09881a26"
          },
          {
            "reference": "urn:uuid:3fefe724-000b-4ce1-b9ff-2579ba0291e2"
          },
          {
            "reference": "urn:uuid:2cc2549e-9b45-4b13-b35b-55fa97e7f967"
          },
          {
            "reference": "urn:uuid:53cf317b-fb21-41f2-a6c9-e6a8fcee29b8"
          },
          {
            "reference": "urn:uuid:e35dbbaa-342e-4cd1-b104-19648bb8f682"
          },
          {
            "reference": "urn:uuid:54277cfb-5810-406e-85db-c9073d4e938c"
          },
          {
            "reference": "urn:uuid:845176a9-518f-40c1-8fcf-68e39477fb6e"
          },
          {
            "reference": "urn:uuid:5d88c5fb-beef-4817-a0a9-9b5702967048"
          },
          {
            "reference": "urn:uuid:02a401ed-251d-4f4b-b734-41af67473d34"
          },
          {
            "reference": "urn:uuid:4c27afc5-f0b0-4a23-8dab-e703ffeddc1b"
          },
          {
            "reference": "urn:uuid:a3a99f6d-8a29-4b93-9142-7c505f77bbbb"
          },
          {
            "reference": "urn:uuid:440747c1-81bb-430d-a3ce-cf3dab5f71c3"
          },
          {
            "reference": "urn:uuid:5d8ef524-040c-410e-baf6-18d884f2b2a9"
          },
          {
            "reference": "urn:uuid:6e6e0eeb-f089-446c-adf7-628c9c7ff87d"
          },
          {
            "reference": "urn:uuid:10b66ebb-b604-4507-9128-0d0082e4f94a"
          },
          {
            "reference": "urn:uuid:98307711-d66f-4a41-aa82-856fc4ca8a8a"
          },
          {
            "reference": "urn:uuid:78c2b727-0037-4eb0-9413-87238993be6c"
          },
          {
            "reference": "urn:uuid:7ad6ec51-ca99-4b82-961f-c59df974d459"
          },
          {
            "reference": "urn:uuid:1e17010f-495f-4089-96c5-fd4962eb3327"
          },
          {
            "reference": "urn:uuid:3c62cad0-387c-4565-a619-3b465d230acb"
          },
          {
            "reference": "urn:uuid:a2442b10-d762-4266-b316-f0e4d73c9c5a"
          },
          {
            "reference": "urn:uuid:faa553ad-373a-49e8-a9fc-a46b3726c3b8"
          }
        ],
        "status": "registered",
        "code": {
          "coding": [
            {
              "code": "11502-2",
              "system": "http://loinc.org",
              "display": "Laboratory report"
            }
          ]
        },
        "subject": {
          "reference": "urn:uuid:18c7d370-51ea-4fc9-a150-66f975ab698d",
          "display": "Victor Lagarde"
        }
      }
    },
    {
      "fullUrl": "urn:uuid:18c7d370-51ea-4fc9-a150-66f975ab698d",
      "resource": {
        "resourceType": "Patient",
        "id": "18c7d370-51ea-4fc9-a150-66f975ab698d",
        "meta": {
          "security": [
            {
              "system": "http://terminology.hl7.org/CodeSystem/v3-ActReason",
              "code": "HTEST"
            },
            {
              "system": "http://terminology.hl7.org/CodeSystem/v3-ActReason",
              "code": "TRAIN"
            }
          ],
          "tag": [
            {
              "system": "https://synderai.net/fhir/CodeSystem/tags",
              "code": "synthetic",
              "display": "SYNDERAI Synthetic data"
            }
          ],
          "profile": [
            "http://hl7.eu/fhir/base/StructureDefinition/patient-eu-core"
          ]
        },
        "identifier": [
          {
            "type": {
              "coding": [
                {
                  "code": "PT",
                  "system": "http://terminology.hl7.org/CodeSystem/v2-0203"
                }
              ]
            },
            "system": "http://ec.europa.eu/identifier/eci",
            "value": "9925-001801-9"
          },
          {
            "type": {
              "coding": [
                {
                  "code": "MR",
                  "system": "http://terminology.hl7.org/CodeSystem/v2-0203"
                }
              ]
            },
            "system": "http://local.setting.eu/identifier",
            "value": "22c2dfd0-ac57-8833-2532-848f180896a4"
          }
        ],
        "name": [
          {
            "family": "Lagarde"
          },
          {
            "given": [
              "Victor"
            ]
          },
          {
            "text": "Victor Lagarde"
          }
        ],
        "address": [
          {
            "line": [
              "avenue Robert"
            ],
            "use": "home",
            "type": "physical",
            "postalCode": "80300",
            "city": "Albert",
            "country": "France"
          }
        ],
        "telecom": [
          {
            "system": "phone",
            "value": "0177941801"
          }
        ],
        "extension": [
          {
            "url": "http://hl7.org/fhir/StructureDefinition/patient-nationality",
            "valueCodeableConcept": {
              "coding": [
                {
                  "code": "FR",
                  "system": "http://hl7.org/fhir/ValueSet/country"
                }
              ]
            }
          }
        ],
        "text": {
          "status": "generated",
          "div": "<div xmlns=\"http://www.w3.org/1999/xhtml\"><table class=\"hl7__ips\"><tr><td>Victor Lagarde</td><td>male</td><td>31-Aug-1939</td></tr></table></div>"
        },
        "gender": "male",
        "birthDate": "1939-08-31"
      }
    },
    {
      "fullUrl": "urn:uuid:5bac61dc-2bf4-42d3-b795-35d755405a86",
      "resource": {
        "resourceType": "ServiceRequest",
        "id": "5bac61dc-2bf4-42d3-b795-35d755405a86",
        "meta": {
          "profile": [
            "http://hl7.eu/fhir/laboratory/StructureDefinition/ServiceRequest-eu-lab"
          ]
        },
        "identifier": [
          {
            "system": "http://example.org",
            "value": "7e20203c-8d83-4594-9b56-233c17de143a"
          }
        ],
        "specimen": [
          {
            "reference": "urn:uuid:f6d98655-b62d-47a7-b224-21615a44dd31"
          },
          {
            "reference": "urn:uuid:bae6a372-7fcf-4773-9a43-80207bdc21fa"
          },
          {
            "reference": "urn:uuid:98ef80c5-b110-4f4c-b418-dc224ff22cb3"
          }
        ],
        "reasonCode": [
          {
            "coding": [
              {
                "code": "433144002",
                "system": "http://snomed.info/sct",
                "display": "Chronic kidney disease stage 3"
              }
            ]
          },
          {
            "coding": [
              {
                "code": "157141000119108",
                "system": "http://snomed.info/sct",
                "display": "Proteinuria due to type 2 diabetes mellitus"
              }
            ]
          },
          {
            "coding": [
              {
                "code": "431856006",
                "system": "http://snomed.info/sct",
                "display": "Chronic kidney disease stage 2"
              }
            ]
          },
          {
            "coding": [
              {
                "code": "90781000119102",
                "system": "http://snomed.info/sct",
                "display": "Microalbuminuria due to type 2 diabetes mellitus"
              }
            ]
          },
          {
            "coding": [
              {
                "code": "127013003",
                "system": "http://snomed.info/sct",
                "display": "Disorder of kidney due to diabetes mellitus"
              }
            ]
          },
          {
            "coding": [
              {
                "code": "431855005",
                "system": "http://snomed.info/sct",
                "display": "Chronic kidney disease stage 1"
              }
            ]
          },
          {
            "coding": [
              {
                "code": "55822004",
                "system": "http://snomed.info/sct",
                "display": "Hyperlipidemia"
              }
            ]
          },
          {
            "coding": [
              {
                "code": "59621000",
                "system": "http://snomed.info/sct",
                "display": "Essential hypertension"
              }
            ]
          },
          {
            "coding": [
              {
                "code": "237602007",
                "system": "http://snomed.info/sct",
                "display": "Metabolic syndrome X"
              }
            ]
          },
          {
            "coding": [
              {
                "code": "414545008",
                "system": "http://snomed.info/sct",
                "display": "Ischemic heart disease"
              }
            ]
          },
          {
            "coding": [
              {
                "code": "40055000",
                "system": "http://snomed.info/sct",
                "display": "Chronic sinusitis"
              }
            ]
          },
          {
            "coding": [
              {
                "code": "15777000",
                "system": "http://snomed.info/sct",
                "display": "Prediabetes"
              }
            ]
          },
          {
            "coding": [
              {
                "code": "271737000",
                "system": "http://snomed.info/sct",
                "display": "Anemia"
              }
            ]
          }
        ],
        "status": "active",
        "intent": "order",
        "code": {
          "coding": [
            {
              "code": "108252007",
              "system": "http://snomed.info/sct",
              "display": "Laboratory procedure"
            }
          ]
        },
        "subject": {
          "reference": "urn:uuid:18c7d370-51ea-4fc9-a150-66f975ab698d",
          "display": "Victor Lagarde"
        },
        "requester": {
          "reference": "urn:uuid:d87a4171-c890-43b1-8370-ae96e26bbb84"
        }
      }
    },
    {
      "fullUrl": "urn:uuid:d87a4171-c890-43b1-8370-ae96e26bbb84",
      "resource": {
        "resourceType": "PractitionerRole",
        "id": "d87a4171-c890-43b1-8370-ae96e26bbb84",
        "meta": {
          "profile": [
            "http://hl7.eu/fhir/base/StructureDefinition/practitionerRole-eu"
          ]
        },
        "text": {
          "status": "generated",
          "div": "<div xmlns=\"http://www.w3.org/1999/xhtml\">Provider Role Id: d87a4171-c890-43b1-8370-ae96e26bbb84</div>"
        },
        "organization": {
          "reference": "urn:uuid:2e24a70a-3726-4464-a5fb-6bf3355c88c4"
        }
      }
    },
    {
      "fullUrl": "urn:uuid:2e24a70a-3726-4464-a5fb-6bf3355c88c4",
      "resource": {
        "resourceType": "Organization",
        "id": "2e24a70a-3726-4464-a5fb-6bf3355c88c4",
        "meta": {
          "profile": [
            "http://hl7.eu/fhir/base/StructureDefinition/organization-eu"
          ]
        },
        "identifier": [
          {
            "assigner": {
              "display": "HL7 Europe"
            },
            "system": "urn:oid:2.16.840.1.113883.2.51.999",
            "value": "c10aa234-9828-4580-b0e1-d4892c59b78e"
          }
        ],
        "address": [
          {
            "city": "Auxerre",
            "postalCode": "89000",
            "country": "France"
          }
        ],
        "text": {
          "status": "generated",
          "div": "<div xmlns=\"http://www.w3.org/1999/xhtml\">Provider Organization: Thiriot Didier (Cardiologie)</div>"
        },
        "name": "Thiriot Didier (Cardiologie)"
      }
    },
    {
      "fullUrl": "urn:uuid:f6d98655-b62d-47a7-b224-21615a44dd31",
      "resource": {
        "resourceType": "Specimen",
        "id": "f6d98655-b62d-47a7-b224-21615a44dd31",
        "meta": {
          "profile": [
            "http://hl7.eu/fhir/laboratory/StructureDefinition/Specimen-eu-lab"
          ]
        },
        "collection": {
          "collectedDateTime": "2018-07-20"
        },
        "text": {
          "status": "generated",
          "div": "<div xmlns=\"http://www.w3.org/1999/xhtml\"><table class=\"hl7__eu__lab__report\"><tr><th>Specimen</th><th>Collection Date</th></tr><tr><td>Acellular blood (serum or plasma) specimen</td><td><span class=\"nb\">20-Jul-2018</span></td></tr></table></div>"
        },
        "type": {
          "coding": [
            {
              "code": "122592007",
              "system": "http://snomed.info/sct",
              "display": "Acellular blood (serum or plasma) specimen"
            }
          ]
        }
      }
    },
    {
      "fullUrl": "urn:uuid:bae6a372-7fcf-4773-9a43-80207bdc21fa",
      "resource": {
        "resourceType": "Specimen",
        "id": "bae6a372-7fcf-4773-9a43-80207bdc21fa",
        "meta": {
          "profile": [
            "http://hl7.eu/fhir/laboratory/StructureDefinition/Specimen-eu-lab"
          ]
        },
        "collection": {
          "collectedDateTime": "2018-07-20"
        },
        "text": {
          "status": "generated",
          "div": "<div xmlns=\"http://www.w3.org/1999/xhtml\"><table class=\"hl7__eu__lab__report\"><tr><th>Specimen</th><th>Collection Date</th></tr><tr><td>Urine specimen</td><td><span class=\"nb\">20-Jul-2018</span></td></tr></table></div>"
        },
        "type": {
          "coding": [
            {
              "code": "122575003",
              "system": "http://snomed.info/sct",
              "display": "Urine specimen"
            }
          ]
        }
      }
    },
    {
      "fullUrl": "urn:uuid:98ef80c5-b110-4f4c-b418-dc224ff22cb3",
      "resource": {
        "resourceType": "Specimen",
        "id": "98ef80c5-b110-4f4c-b418-dc224ff22cb3",
        "meta": {
          "profile": [
            "http://hl7.eu/fhir/laboratory/StructureDefinition/Specimen-eu-lab"
          ]
        },
        "collection": {
          "collectedDateTime": "2018-07-20"
        },
        "text": {
          "status": "generated",
          "div": "<div xmlns=\"http://www.w3.org/1999/xhtml\"><table class=\"hl7__eu__lab__report\"><tr><th>Specimen</th><th>Collection Date</th></tr><tr><td>Whole blood specimen (specimen)</td><td><span class=\"nb\">20-Jul-2018</span></td></tr></table></div>"
        },
        "type": {
          "coding": [
            {
              "code": "258580003",
              "system": "http://snomed.info/sct",
              "display": "Whole blood specimen (specimen)"
            }
          ]
        }
      }
    },
    {
      "fullUrl": "urn:uuid:eecfab54-ba37-411b-bffe-645b2f2f0ba7",
      "resource": {
        "resourceType": "Observation",
        "id": "eecfab54-ba37-411b-bffe-645b2f2f0ba7",
        "meta": {
          "profile": [
            "http://hl7.eu/fhir/laboratory/StructureDefinition/Observation-resultslab-eu-lab"
          ]
        },
        "performer": [
          {
            "display": "The Central European Lab"
          }
        ],
        "category": [
          {
            "coding": [
              {
                "system": "http://terminology.hl7.org/CodeSystem/observation-category",
                "code": "laboratory"
              }
            ]
          }
        ],
        "code": {
          "coding": [
            {
              "code": "2345-7",
              "system": "http://loinc.org",
              "display": "Glucose [Mass/volume] in Serum or Plasma"
            }
          ],
          "text": "Glucose [Mass/volume] in Serum or Plasma"
        },
        "valueQuantity": {
          "system": "http://unitsofmeasure.org",
          "value": 83.6,
          "unit": "mg/dL",
          "code": "mg/dL"
        },
        "referenceRange": [
          {
            "low": {
              "value": 70,
              "code": "mg/dL",
              "system": "http://unitsofmeasure.org"
            }
          },
          {
            "high": {
              "value": 140,
              "code": "mg/dL",
              "system": "http://unitsofmeasure.org"
            }
          }
        ],
        "text": {
          "status": "generated",
          "div": "<div xmlns=\"http://www.w3.org/1999/xhtml\"><table class=\"hl7__eu__lab__report\"><tr><th>Test</th><th>20-Jul-2018</th><th>Reference&#xA0;Range</th><th>Unit</th></tr><tr><td>Glucose [Mass/volume] in Serum or Plasma</td><td>83.6</td><td>70 - 140</td><td></td><td>mg/dL</td></tr></table></div>"
        },
        "status": "final",
        "subject": {
          "reference": "urn:uuid:18c7d370-51ea-4fc9-a150-66f975ab698d",
          "display": "Victor Lagarde"
        },
        "effectiveDateTime": "2018-07-20T04:48:18Z",
        "specimen": {
          "reference": "urn:uuid:f6d98655-b62d-47a7-b224-21615a44dd31"
        }
      }
    },
    {
      "fullUrl": "urn:uuid:5a8f5e69-3ed8-49aa-a6fe-a78af3649bfa",
      "resource": {
        "resourceType": "Observation",
        "id": "5a8f5e69-3ed8-49aa-a6fe-a78af3649bfa",
        "meta": {
          "profile": [
            "http://hl7.eu/fhir/laboratory/StructureDefinition/Observation-resultslab-eu-lab"
          ]
        },
        "performer": [
          {
            "display": "The Central European Lab"
          }
        ],
        "category": [
          {
            "coding": [
              {
                "system": "http://terminology.hl7.org/CodeSystem/observation-category",
                "code": "laboratory"
              }
            ]
          }
        ],
        "code": {
          "coding": [
            {
              "code": "3094-0",
              "system": "http://loinc.org",
              "display": "Urea nitrogen [Mass/volume] in Serum or Plasma"
            }
          ],
          "text": "Urea nitrogen [Mass/volume] in Serum or Plasma"
        },
        "valueQuantity": {
          "system": "http://unitsofmeasure.org",
          "value": 10.1,
          "unit": "mg/dL",
          "code": "mg/dL"
        },
        "referenceRange": [
          {
            "low": {
              "value": 7,
              "code": "mg/dL",
              "system": "http://unitsofmeasure.org"
            }
          },
          {
            "high": {
              "value": 20,
              "code": "mg/dL",
              "system": "http://unitsofmeasure.org"
            }
          }
        ],
        "text": {
          "status": "generated",
          "div": "<div xmlns=\"http://www.w3.org/1999/xhtml\"><table class=\"hl7__eu__lab__report\"><tr><th>Test</th><th>20-Jul-2018</th><th>Reference&#xA0;Range</th><th>Unit</th></tr><tr><td>Urea nitrogen [Mass/volume] in Serum or Plasma</td><td>10.1</td><td>7 - 20</td><td></td><td>mg/dL</td></tr></table></div>"
        },
        "status": "final",
        "subject": {
          "reference": "urn:uuid:18c7d370-51ea-4fc9-a150-66f975ab698d",
          "display": "Victor Lagarde"
        },
        "effectiveDateTime": "2018-07-20T04:48:18Z",
        "specimen": {
          "reference": "urn:uuid:f6d98655-b62d-47a7-b224-21615a44dd31"
        }
      }
    },
    {
      "fullUrl": "urn:uuid:fdc453a1-11e5-431f-a007-ef8074da3d99",
      "resource": {
        "resourceType": "Observation",
        "id": "fdc453a1-11e5-431f-a007-ef8074da3d99",
        "meta": {
          "profile": [
            "http://hl7.eu/fhir/laboratory/StructureDefinition/Observation-resultslab-eu-lab"
          ]
        },
        "performer": [
          {
            "display": "The Central European Lab"
          }
        ],
        "category": [
          {
            "coding": [
              {
                "system": "http://terminology.hl7.org/CodeSystem/observation-category",
                "code": "laboratory"
              }
            ]
          }
        ],
        "code": {
          "coding": [
            {
              "code": "2160-0",
              "system": "http://loinc.org",
              "display": "Creatinine [Mass/volume] in Serum or Plasma"
            }
          ],
          "text": "Creatinine [Mass/volume] in Serum or Plasma"
        },
        "valueQuantity": {
          "system": "http://unitsofmeasure.org",
          "value": 1.9,
          "unit": "mg/dL",
          "code": "mg/dL"
        },
        "referenceRange": [
          {
            "low": {
              "value": 0.9,
              "code": "mg/dL",
              "system": "http://unitsofmeasure.org"
            }
          },
          {
            "high": {
              "value": 1.3,
              "code": "mg/dL",
              "system": "http://unitsofmeasure.org"
            }
          }
        ],
        "interpretation": [
          {
            "coding": [
              {
                "code": "H",
                "system": "http://terminology.hl7.org/CodeSystem/v3-ObservationInterpretation",
                "display": "High"
              }
            ]
          }
        ],
        "text": {
          "status": "generated",
          "div": "<div xmlns=\"http://www.w3.org/1999/xhtml\"><table class=\"hl7__eu__lab__report\"><tr><th>Test</th><th>20-Jul-2018</th><th>Reference&#xA0;Range</th><th>Unit</th></tr><tr><td>Creatinine [Mass/volume] in Serum or Plasma</td><td>1.9</td><td>0.9 - 1.3</td><td>H</td><td>mg/dL</td></tr></table></div>"
        },
        "status": "final",
        "subject": {
          "reference": "urn:uuid:18c7d370-51ea-4fc9-a150-66f975ab698d",
          "display": "Victor Lagarde"
        },
        "effectiveDateTime": "2018-07-20T04:48:18Z",
        "specimen": {
          "reference": "urn:uuid:f6d98655-b62d-47a7-b224-21615a44dd31"
        }
      }
    },
    {
      "fullUrl": "urn:uuid:29df5e1e-ff5d-40f9-b26c-63d9b099b84f",
      "resource": {
        "resourceType": "Observation",
        "id": "29df5e1e-ff5d-40f9-b26c-63d9b099b84f",
        "meta": {
          "profile": [
            "http://hl7.eu/fhir/laboratory/StructureDefinition/Observation-resultslab-eu-lab"
          ]
        },
        "performer": [
          {
            "display": "The Central European Lab"
          }
        ],
        "category": [
          {
            "coding": [
              {
                "system": "http://terminology.hl7.org/CodeSystem/observation-category",
                "code": "laboratory"
              }
            ]
          }
        ],
        "code": {
          "coding": [
            {
              "code": "17861-6",
              "system": "http://loinc.org",
              "display": "Calcium [Mass/volume] in Serum or Plasma"
            }
          ],
          "text": "Calcium [Mass/volume] in Serum or Plasma"
        },
        "valueQuantity": {
          "system": "http://unitsofmeasure.org",
          "value": 8.9,
          "unit": "mg/dL",
          "code": "mg/dL"
        },
        "referenceRange": [
          {
            "low": {
              "value": 8.5,
              "code": "mg/dL",
              "system": "http://unitsofmeasure.org"
            }
          },
          {
            "high": {
              "value": 10.5,
              "code": "mg/dL",
              "system": "http://unitsofmeasure.org"
            }
          }
        ],
        "text": {
          "status": "generated",
          "div": "<div xmlns=\"http://www.w3.org/1999/xhtml\"><table class=\"hl7__eu__lab__report\"><tr><th>Test</th><th>20-Jul-2018</th><th>Reference&#xA0;Range</th><th>Unit</th></tr><tr><td>Calcium [Mass/volume] in Serum or Plasma</td><td>8.9</td><td>8.5 - 10.5</td><td></td><td>mg/dL</td></tr></table></div>"
        },
        "status": "final",
        "subject": {
          "reference": "urn:uuid:18c7d370-51ea-4fc9-a150-66f975ab698d",
          "display": "Victor Lagarde"
        },
        "effectiveDateTime": "2018-07-20T04:48:18Z",
        "specimen": {
          "reference": "urn:uuid:f6d98655-b62d-47a7-b224-21615a44dd31"
        }
      }
    },
    {
      "fullUrl": "urn:uuid:24e93225-bc1b-45b4-a8d8-c8bda6fb9297",
      "resource": {
        "resourceType": "Observation",
        "id": "24e93225-bc1b-45b4-a8d8-c8bda6fb9297",
        "meta": {
          "profile": [
            "http://hl7.eu/fhir/laboratory/StructureDefinition/Observation-resultslab-eu-lab"
          ]
        },
        "performer": [
          {
            "display": "The Central European Lab"
          }
        ],
        "category": [
          {
            "coding": [
              {
                "system": "http://terminology.hl7.org/CodeSystem/observation-category",
                "code": "laboratory"
              }
            ]
          }
        ],
        "code": {
          "coding": [
            {
              "code": "2951-2",
              "system": "http://loinc.org",
              "display": "Sodium [Moles/volume] in Serum or Plasma"
            }
          ],
          "text": "Sodium [Moles/volume] in Serum or Plasma"
        },
        "valueQuantity": {
          "system": "http://unitsofmeasure.org",
          "value": 136.1,
          "unit": "mmol/L",
          "code": "mmol/L"
        },
        "referenceRange": [
          {
            "low": {
              "value": 135,
              "code": "mmol/L",
              "system": "http://unitsofmeasure.org"
            }
          },
          {
            "high": {
              "value": 145,
              "code": "mmol/L",
              "system": "http://unitsofmeasure.org"
            }
          }
        ],
        "text": {
          "status": "generated",
          "div": "<div xmlns=\"http://www.w3.org/1999/xhtml\"><table class=\"hl7__eu__lab__report\"><tr><th>Test</th><th>20-Jul-2018</th><th>Reference&#xA0;Range</th><th>Unit</th></tr><tr><td>Sodium [Moles/volume] in Serum or Plasma</td><td>136.1</td><td>135 - 145</td><td></td><td>mmol/L</td></tr></table></div>"
        },
        "status": "final",
        "subject": {
          "reference": "urn:uuid:18c7d370-51ea-4fc9-a150-66f975ab698d",
          "display": "Victor Lagarde"
        },
        "effectiveDateTime": "2018-07-20T04:48:18Z",
        "specimen": {
          "reference": "urn:uuid:f6d98655-b62d-47a7-b224-21615a44dd31"
        }
      }
    },
    {
      "fullUrl": "urn:uuid:0ab79370-609e-44c8-8fbe-14ccdb3cae65",
      "resource": {
        "resourceType": "Observation",
        "id": "0ab79370-609e-44c8-8fbe-14ccdb3cae65",
        "meta": {
          "profile": [
            "http://hl7.eu/fhir/laboratory/StructureDefinition/Observation-resultslab-eu-lab"
          ]
        },
        "performer": [
          {
            "display": "The Central European Lab"
          }
        ],
        "category": [
          {
            "coding": [
              {
                "system": "http://terminology.hl7.org/CodeSystem/observation-category",
                "code": "laboratory"
              }
            ]
          }
        ],
        "code": {
          "coding": [
            {
              "code": "2823-3",
              "system": "http://loinc.org",
              "display": "Potassium [Moles/volume] in Serum or Plasma"
            }
          ],
          "text": "Potassium [Moles/volume] in Serum or Plasma"
        },
        "valueQuantity": {
          "system": "http://unitsofmeasure.org",
          "value": 4.7,
          "unit": "mmol/L",
          "code": "mmol/L"
        },
        "referenceRange": [
          {
            "low": {
              "value": 3.5,
              "code": "mmol/L",
              "system": "http://unitsofmeasure.org"
            }
          },
          {
            "high": {
              "value": 5.3,
              "code": "mmol/L",
              "system": "http://unitsofmeasure.org"
            }
          }
        ],
        "text": {
          "status": "generated",
          "div": "<div xmlns=\"http://www.w3.org/1999/xhtml\"><table class=\"hl7__eu__lab__report\"><tr><th>Test</th><th>20-Jul-2018</th><th>Reference&#xA0;Range</th><th>Unit</th></tr><tr><td>Potassium [Moles/volume] in Serum or Plasma</td><td>4.7</td><td>3.5 - 5.3</td><td></td><td>mmol/L</td></tr></table></div>"
        },
        "status": "final",
        "subject": {
          "reference": "urn:uuid:18c7d370-51ea-4fc9-a150-66f975ab698d",
          "display": "Victor Lagarde"
        },
        "effectiveDateTime": "2018-07-20T04:48:18Z",
        "specimen": {
          "reference": "urn:uuid:f6d98655-b62d-47a7-b224-21615a44dd31"
        }
      }
    },
    {
      "fullUrl": "urn:uuid:17e4ad26-d3bb-49a5-9cfe-a9bd37b7d772",
      "resource": {
        "resourceType": "Observation",
        "id": "17e4ad26-d3bb-49a5-9cfe-a9bd37b7d772",
        "meta": {
          "profile": [
            "http://hl7.eu/fhir/laboratory/StructureDefinition/Observation-resultslab-eu-lab"
          ]
        },
        "performer": [
          {
            "display": "The Central European Lab"
          }
        ],
        "category": [
          {
            "coding": [
              {
                "system": "http://terminology.hl7.org/CodeSystem/observation-category",
                "code": "laboratory"
              }
            ]
          }
        ],
        "code": {
          "coding": [
            {
              "code": "2075-0",
              "system": "http://loinc.org",
              "display": "Chloride [Moles/volume] in Serum or Plasma"
            }
          ],
          "text": "Chloride [Moles/volume] in Serum or Plasma"
        },
        "valueQuantity": {
          "system": "http://unitsofmeasure.org",
          "value": 105.7,
          "unit": "mmol/L",
          "code": "mmol/L"
        },
        "referenceRange": [
          {
            "low": {
              "value": 98,
              "code": "mmol/L",
              "system": "http://unitsofmeasure.org"
            }
          },
          {
            "high": {
              "value": 107,
              "code": "mmol/L",
              "system": "http://unitsofmeasure.org"
            }
          }
        ],
        "text": {
          "status": "generated",
          "div": "<div xmlns=\"http://www.w3.org/1999/xhtml\"><table class=\"hl7__eu__lab__report\"><tr><th>Test</th><th>20-Jul-2018</th><th>Reference&#xA0;Range</th><th>Unit</th></tr><tr><td>Chloride [Moles/volume] in Serum or Plasma</td><td>105.7</td><td>98 - 107</td><td></td><td>mmol/L</td></tr></table></div>"
        },
        "status": "final",
        "subject": {
          "reference": "urn:uuid:18c7d370-51ea-4fc9-a150-66f975ab698d",
          "display": "Victor Lagarde"
        },
        "effectiveDateTime": "2018-07-20T04:48:18Z",
        "specimen": {
          "reference": "urn:uuid:f6d98655-b62d-47a7-b224-21615a44dd31"
        }
      }
    },
    {
      "fullUrl": "urn:uuid:7b6b1660-a6d0-49a2-8763-e2922777d002",
      "resource": {
        "resourceType": "Observation",
        "id": "7b6b1660-a6d0-49a2-8763-e2922777d002",
        "meta": {
          "profile": [
            "http://hl7.eu/fhir/laboratory/StructureDefinition/Observation-resultslab-eu-lab"
          ]
        },
        "performer": [
          {
            "display": "The Central European Lab"
          }
        ],
        "category": [
          {
            "coding": [
              {
                "system": "http://terminology.hl7.org/CodeSystem/observation-category",
                "code": "laboratory"
              }
            ]
          }
        ],
        "code": {
          "coding": [
            {
              "code": "2028-9",
              "system": "http://loinc.org",
              "display": "Carbon dioxide, total [Moles/volume] in Serum or Plasma"
            }
          ],
          "text": "Carbon dioxide, total [Moles/volume] in Serum or Plasma"
        },
        "valueQuantity": {
          "system": "http://unitsofmeasure.org",
          "value": 20.1,
          "unit": "mmol/L",
          "code": "mmol/L"
        },
        "referenceRange": [
          {
            "low": {
              "value": 22,
              "code": "mmol/L",
              "system": "http://unitsofmeasure.org"
            }
          },
          {
            "high": {
              "value": 33,
              "code": "mmol/L",
              "system": "http://unitsofmeasure.org"
            }
          }
        ],
        "interpretation": [
          {
            "coding": [
              {
                "code": "L",
                "system": "http://terminology.hl7.org/CodeSystem/v3-ObservationInterpretation",
                "display": "Low"
              }
            ]
          }
        ],
        "text": {
          "status": "generated",
          "div": "<div xmlns=\"http://www.w3.org/1999/xhtml\"><table class=\"hl7__eu__lab__report\"><tr><th>Test</th><th>20-Jul-2018</th><th>Reference&#xA0;Range</th><th>Unit</th></tr><tr><td>Carbon dioxide, total [Moles/volume] in Serum or Plasma</td><td>20.1</td><td>22 - 33</td><td>L</td><td>mmol/L</td></tr></table></div>"
        },
        "status": "final",
        "subject": {
          "reference": "urn:uuid:18c7d370-51ea-4fc9-a150-66f975ab698d",
          "display": "Victor Lagarde"
        },
        "effectiveDateTime": "2018-07-20T04:48:18Z",
        "specimen": {
          "reference": "urn:uuid:f6d98655-b62d-47a7-b224-21615a44dd31"
        }
      }
    },
    {
      "fullUrl": "urn:uuid:92531ef3-eb8c-4d5c-a073-77391b364448",
      "resource": {
        "resourceType": "Observation",
        "id": "92531ef3-eb8c-4d5c-a073-77391b364448",
        "meta": {
          "profile": [
            "http://hl7.eu/fhir/laboratory/StructureDefinition/Observation-resultslab-eu-lab"
          ]
        },
        "performer": [
          {
            "display": "The Central European Lab"
          }
        ],
        "category": [
          {
            "coding": [
              {
                "system": "http://terminology.hl7.org/CodeSystem/observation-category",
                "code": "laboratory"
              }
            ]
          }
        ],
        "code": {
          "coding": [
            {
              "code": "5767-9",
              "system": "http://loinc.org",
              "display": "Appearance of Urine"
            }
          ],
          "text": "Appearance of Urine"
        },
        "text": {
          "status": "generated",
          "div": "<div xmlns=\"http://www.w3.org/1999/xhtml\"><table class=\"hl7__eu__lab__report\"><tr><th>Test</th><th>20-Jul-2018</th><th>Reference&#xA0;Range</th><th>Unit</th></tr><tr><td>Appearance of Urine</td></tr></table></div>"
        },
        "status": "final",
        "subject": {
          "reference": "urn:uuid:18c7d370-51ea-4fc9-a150-66f975ab698d",
          "display": "Victor Lagarde"
        },
        "effectiveDateTime": "2018-07-20T04:48:18Z",
        "specimen": {
          "reference": "urn:uuid:bae6a372-7fcf-4773-9a43-80207bdc21fa"
        }
      }
    },
    {
      "fullUrl": "urn:uuid:7e78d9eb-d398-4537-881b-1d9ce5f10d6e",
      "resource": {
        "resourceType": "Observation",
        "id": "7e78d9eb-d398-4537-881b-1d9ce5f10d6e",
        "meta": {
          "profile": [
            "http://hl7.eu/fhir/laboratory/StructureDefinition/Observation-resultslab-eu-lab"
          ]
        },
        "performer": [
          {
            "display": "The Central European Lab"
          }
        ],
        "category": [
          {
            "coding": [
              {
                "system": "http://terminology.hl7.org/CodeSystem/observation-category",
                "code": "laboratory"
              }
            ]
          }
        ],
        "code": {
          "coding": [
            {
              "code": "34533-0",
              "system": "http://loinc.org",
              "display": "Odor of Urine"
            }
          ],
          "text": "Odor of Urine"
        },
        "text": {
          "status": "generated",
          "div": "<div xmlns=\"http://www.w3.org/1999/xhtml\"><table class=\"hl7__eu__lab__report\"><tr><th>Test</th><th>20-Jul-2018</th><th>Reference&#xA0;Range</th><th>Unit</th></tr><tr><td>Odor of Urine</td></tr></table></div>"
        },
        "status": "final",
        "subject": {
          "reference": "urn:uuid:18c7d370-51ea-4fc9-a150-66f975ab698d",
          "display": "Victor Lagarde"
        },
        "effectiveDateTime": "2018-07-20T04:48:18Z",
        "specimen": {
          "reference": "urn:uuid:bae6a372-7fcf-4773-9a43-80207bdc21fa"
        }
      }
    },
    {
      "fullUrl": "urn:uuid:b06dd2ab-07cb-4806-878f-353e4d007f75",
      "resource": {
        "resourceType": "Observation",
        "id": "b06dd2ab-07cb-4806-878f-353e4d007f75",
        "meta": {
          "profile": [
            "http://hl7.eu/fhir/laboratory/StructureDefinition/Observation-resultslab-eu-lab"
          ]
        },
        "performer": [
          {
            "display": "The Central European Lab"
          }
        ],
        "category": [
          {
            "coding": [
              {
                "system": "http://terminology.hl7.org/CodeSystem/observation-category",
                "code": "laboratory"
              }
            ]
          }
        ],
        "code": {
          "coding": [
            {
              "code": "32167-9",
              "system": "http://loinc.org",
              "display": "Clarity of Urine"
            }
          ],
          "text": "Clarity of Urine"
        },
        "text": {
          "status": "generated",
          "div": "<div xmlns=\"http://www.w3.org/1999/xhtml\"><table class=\"hl7__eu__lab__report\"><tr><th>Test</th><th>20-Jul-2018</th><th>Reference&#xA0;Range</th><th>Unit</th></tr><tr><td>Clarity of Urine</td></tr></table></div>"
        },
        "status": "final",
        "subject": {
          "reference": "urn:uuid:18c7d370-51ea-4fc9-a150-66f975ab698d",
          "display": "Victor Lagarde"
        },
        "effectiveDateTime": "2018-07-20T04:48:18Z",
        "specimen": {
          "reference": "urn:uuid:bae6a372-7fcf-4773-9a43-80207bdc21fa"
        }
      }
    },
    {
      "fullUrl": "urn:uuid:e4f3ea33-a2b8-46d4-bc72-36dc5e180ef9",
      "resource": {
        "resourceType": "Observation",
        "id": "e4f3ea33-a2b8-46d4-bc72-36dc5e180ef9",
        "meta": {
          "profile": [
            "http://hl7.eu/fhir/laboratory/StructureDefinition/Observation-resultslab-eu-lab"
          ]
        },
        "performer": [
          {
            "display": "The Central European Lab"
          }
        ],
        "category": [
          {
            "coding": [
              {
                "system": "http://terminology.hl7.org/CodeSystem/observation-category",
                "code": "laboratory"
              }
            ]
          }
        ],
        "code": {
          "coding": [
            {
              "code": "5778-6",
              "system": "http://loinc.org",
              "display": "Color of Urine"
            }
          ],
          "text": "Color of Urine"
        },
        "text": {
          "status": "generated",
          "div": "<div xmlns=\"http://www.w3.org/1999/xhtml\"><table class=\"hl7__eu__lab__report\"><tr><th>Test</th><th>20-Jul-2018</th><th>Reference&#xA0;Range</th><th>Unit</th></tr><tr><td>Color of Urine</td></tr></table></div>"
        },
        "status": "final",
        "subject": {
          "reference": "urn:uuid:18c7d370-51ea-4fc9-a150-66f975ab698d",
          "display": "Victor Lagarde"
        },
        "effectiveDateTime": "2018-07-20T04:48:18Z",
        "specimen": {
          "reference": "urn:uuid:bae6a372-7fcf-4773-9a43-80207bdc21fa"
        }
      }
    },
    {
      "fullUrl": "urn:uuid:fedd0dd5-1a18-4458-9a80-62bd09881a26",
      "resource": {
        "resourceType": "Observation",
        "id": "fedd0dd5-1a18-4458-9a80-62bd09881a26",
        "meta": {
          "profile": [
            "http://hl7.eu/fhir/laboratory/StructureDefinition/Observation-resultslab-eu-lab"
          ]
        },
        "performer": [
          {
            "display": "The Central European Lab"
          }
        ],
        "category": [
          {
            "coding": [
              {
                "system": "http://terminology.hl7.org/CodeSystem/observation-category",
                "code": "laboratory"
              }
            ]
          }
        ],
        "code": {
          "coding": [
            {
              "code": "5792-7",
              "system": "http://loinc.org",
              "display": "Glucose [Mass/volume] in Urine by Test strip"
            }
          ],
          "text": "Glucose [Mass/volume] in Urine by Test strip"
        },
        "valueQuantity": {
          "system": "http://unitsofmeasure.org",
          "value": 1.4,
          "unit": "mg/dL",
          "code": "mg/dL"
        },
        "referenceRange": [
          {
            "low": {
              "value": 0,
              "code": "mg/dL",
              "system": "http://unitsofmeasure.org"
            }
          },
          {
            "high": {
              "value": 0.8,
              "code": "mg/dL",
              "system": "http://unitsofmeasure.org"
            }
          }
        ],
        "interpretation": [
          {
            "coding": [
              {
                "code": "H",
                "system": "http://terminology.hl7.org/CodeSystem/v3-ObservationInterpretation",
                "display": "High"
              }
            ]
          }
        ],
        "text": {
          "status": "generated",
          "div": "<div xmlns=\"http://www.w3.org/1999/xhtml\"><table class=\"hl7__eu__lab__report\"><tr><th>Test</th><th>20-Jul-2018</th><th>Reference&#xA0;Range</th><th>Unit</th></tr><tr><td>Glucose [Mass/volume] in Urine by Test strip</td><td>1.4</td><td>0 - 0.8</td><td>H</td><td>mg/dL</td></tr></table></div>"
        },
        "status": "final",
        "subject": {
          "reference": "urn:uuid:18c7d370-51ea-4fc9-a150-66f975ab698d",
          "display": "Victor Lagarde"
        },
        "effectiveDateTime": "2018-07-20T04:48:18Z",
        "specimen": {
          "reference": "urn:uuid:bae6a372-7fcf-4773-9a43-80207bdc21fa"
        }
      }
    },
    {
      "fullUrl": "urn:uuid:3fefe724-000b-4ce1-b9ff-2579ba0291e2",
      "resource": {
        "resourceType": "Observation",
        "id": "3fefe724-000b-4ce1-b9ff-2579ba0291e2",
        "meta": {
          "profile": [
            "http://hl7.eu/fhir/laboratory/StructureDefinition/Observation-resultslab-eu-lab"
          ]
        },
        "performer": [
          {
            "display": "The Central European Lab"
          }
        ],
        "category": [
          {
            "coding": [
              {
                "system": "http://terminology.hl7.org/CodeSystem/observation-category",
                "code": "laboratory"
              }
            ]
          }
        ],
        "code": {
          "coding": [
            {
              "code": "25428-4",
              "system": "http://loinc.org",
              "display": "Glucose [Presence] in Urine by Test strip"
            }
          ],
          "text": "Glucose [Presence] in Urine by Test strip"
        },
        "text": {
          "status": "generated",
          "div": "<div xmlns=\"http://www.w3.org/1999/xhtml\"><table class=\"hl7__eu__lab__report\"><tr><th>Test</th><th>20-Jul-2018</th><th>Reference&#xA0;Range</th><th>Unit</th></tr><tr><td>Glucose [Presence] in Urine by Test strip</td></tr></table></div>"
        },
        "status": "final",
        "subject": {
          "reference": "urn:uuid:18c7d370-51ea-4fc9-a150-66f975ab698d",
          "display": "Victor Lagarde"
        },
        "effectiveDateTime": "2018-07-20T04:48:18Z",
        "specimen": {
          "reference": "urn:uuid:bae6a372-7fcf-4773-9a43-80207bdc21fa"
        }
      }
    },
    {
      "fullUrl": "urn:uuid:2cc2549e-9b45-4b13-b35b-55fa97e7f967",
      "resource": {
        "resourceType": "Observation",
        "id": "2cc2549e-9b45-4b13-b35b-55fa97e7f967",
        "meta": {
          "profile": [
            "http://hl7.eu/fhir/laboratory/StructureDefinition/Observation-resultslab-eu-lab"
          ]
        },
        "performer": [
          {
            "display": "The Central European Lab"
          }
        ],
        "category": [
          {
            "coding": [
              {
                "system": "http://terminology.hl7.org/CodeSystem/observation-category",
                "code": "laboratory"
              }
            ]
          }
        ],
        "code": {
          "coding": [
            {
              "code": "20505-4",
              "system": "http://loinc.org",
              "display": "Bilirubin.total [Mass/volume] in Urine by Test strip"
            }
          ],
          "text": "Bilirubin.total [Mass/volume] in Urine by Test strip"
        },
        "valueQuantity": {
          "system": "http://unitsofmeasure.org",
          "value": 0.9,
          "unit": "mg/dL",
          "code": "mg/dL"
        },
        "referenceRange": [
          {
            "low": {
              "value": 0,
              "code": "mg/dL",
              "system": "http://unitsofmeasure.org"
            }
          },
          {
            "high": {
              "value": 1.9,
              "code": "mg/dL",
              "system": "http://unitsofmeasure.org"
            }
          }
        ],
        "text": {
          "status": "generated",
          "div": "<div xmlns=\"http://www.w3.org/1999/xhtml\"><table class=\"hl7__eu__lab__report\"><tr><th>Test</th><th>20-Jul-2018</th><th>Reference&#xA0;Range</th><th>Unit</th></tr><tr><td>Bilirubin.total [Mass/volume] in Urine by Test strip</td><td>0.9</td><td>0 - 1.9</td><td></td><td>mg/dL</td></tr></table></div>"
        },
        "status": "final",
        "subject": {
          "reference": "urn:uuid:18c7d370-51ea-4fc9-a150-66f975ab698d",
          "display": "Victor Lagarde"
        },
        "effectiveDateTime": "2018-07-20T04:48:18Z",
        "specimen": {
          "reference": "urn:uuid:bae6a372-7fcf-4773-9a43-80207bdc21fa"
        }
      }
    },
    {
      "fullUrl": "urn:uuid:53cf317b-fb21-41f2-a6c9-e6a8fcee29b8",
      "resource": {
        "resourceType": "Observation",
        "id": "53cf317b-fb21-41f2-a6c9-e6a8fcee29b8",
        "meta": {
          "profile": [
            "http://hl7.eu/fhir/laboratory/StructureDefinition/Observation-resultslab-eu-lab"
          ]
        },
        "performer": [
          {
            "display": "The Central European Lab"
          }
        ],
        "category": [
          {
            "coding": [
              {
                "system": "http://terminology.hl7.org/CodeSystem/observation-category",
                "code": "laboratory"
              }
            ]
          }
        ],
        "code": {
          "coding": [
            {
              "code": "5770-3",
              "system": "http://loinc.org",
              "display": "Bilirubin.total [Presence] in Urine by Test strip"
            }
          ],
          "text": "Bilirubin.total [Presence] in Urine by Test strip"
        },
        "text": {
          "status": "generated",
          "div": "<div xmlns=\"http://www.w3.org/1999/xhtml\"><table class=\"hl7__eu__lab__report\"><tr><th>Test</th><th>20-Jul-2018</th><th>Reference&#xA0;Range</th><th>Unit</th></tr><tr><td>Bilirubin.total [Presence] in Urine by Test strip</td></tr></table></div>"
        },
        "status": "final",
        "subject": {
          "reference": "urn:uuid:18c7d370-51ea-4fc9-a150-66f975ab698d",
          "display": "Victor Lagarde"
        },
        "effectiveDateTime": "2018-07-20T04:48:18Z",
        "specimen": {
          "reference": "urn:uuid:bae6a372-7fcf-4773-9a43-80207bdc21fa"
        }
      }
    },
    {
      "fullUrl": "urn:uuid:e35dbbaa-342e-4cd1-b104-19648bb8f682",
      "resource": {
        "resourceType": "Observation",
        "id": "e35dbbaa-342e-4cd1-b104-19648bb8f682",
        "meta": {
          "profile": [
            "http://hl7.eu/fhir/laboratory/StructureDefinition/Observation-resultslab-eu-lab"
          ]
        },
        "performer": [
          {
            "display": "The Central European Lab"
          }
        ],
        "category": [
          {
            "coding": [
              {
                "system": "http://terminology.hl7.org/CodeSystem/observation-category",
                "code": "laboratory"
              }
            ]
          }
        ],
        "code": {
          "coding": [
            {
              "code": "5797-6",
              "system": "http://loinc.org",
              "display": "Ketones [Mass/volume] in Urine by Test strip"
            }
          ],
          "text": "Ketones [Mass/volume] in Urine by Test strip"
        },
        "valueQuantity": {
          "system": "http://unitsofmeasure.org",
          "value": 8.2,
          "unit": "mg/dL",
          "code": "mg/dL"
        },
        "referenceRange": [
          {
            "low": {
              "value": 0,
              "code": "mg/dL",
              "system": "http://unitsofmeasure.org"
            }
          },
          {
            "high": {
              "value": 3,
              "code": "mg/dL",
              "system": "http://unitsofmeasure.org"
            }
          }
        ],
        "interpretation": [
          {
            "coding": [
              {
                "code": "H",
                "system": "http://terminology.hl7.org/CodeSystem/v3-ObservationInterpretation",
                "display": "High"
              }
            ]
          }
        ],
        "text": {
          "status": "generated",
          "div": "<div xmlns=\"http://www.w3.org/1999/xhtml\"><table class=\"hl7__eu__lab__report\"><tr><th>Test</th><th>20-Jul-2018</th><th>Reference&#xA0;Range</th><th>Unit</th></tr><tr><td>Ketones [Mass/volume] in Urine by Test strip</td><td>8.2</td><td>0 - 3</td><td>H</td><td>mg/dL</td></tr></table></div>"
        },
        "status": "final",
        "subject": {
          "reference": "urn:uuid:18c7d370-51ea-4fc9-a150-66f975ab698d",
          "display": "Victor Lagarde"
        },
        "effectiveDateTime": "2018-07-20T04:48:18Z",
        "specimen": {
          "reference": "urn:uuid:bae6a372-7fcf-4773-9a43-80207bdc21fa"
        }
      }
    },
    {
      "fullUrl": "urn:uuid:54277cfb-5810-406e-85db-c9073d4e938c",
      "resource": {
        "resourceType": "Observation",
        "id": "54277cfb-5810-406e-85db-c9073d4e938c",
        "meta": {
          "profile": [
            "http://hl7.eu/fhir/laboratory/StructureDefinition/Observation-resultslab-eu-lab"
          ]
        },
        "performer": [
          {
            "display": "The Central European Lab"
          }
        ],
        "category": [
          {
            "coding": [
              {
                "system": "http://terminology.hl7.org/CodeSystem/observation-category",
                "code": "laboratory"
              }
            ]
          }
        ],
        "code": {
          "coding": [
            {
              "code": "2514-8",
              "system": "http://loinc.org",
              "display": "Ketones [Presence] in Urine by Test strip"
            }
          ],
          "text": "Ketones [Presence] in Urine by Test strip"
        },
        "text": {
          "status": "generated",
          "div": "<div xmlns=\"http://www.w3.org/1999/xhtml\"><table class=\"hl7__eu__lab__report\"><tr><th>Test</th><th>20-Jul-2018</th><th>Reference&#xA0;Range</th><th>Unit</th></tr><tr><td>Ketones [Presence] in Urine by Test strip</td></tr></table></div>"
        },
        "status": "final",
        "subject": {
          "reference": "urn:uuid:18c7d370-51ea-4fc9-a150-66f975ab698d",
          "display": "Victor Lagarde"
        },
        "effectiveDateTime": "2018-07-20T04:48:18Z",
        "specimen": {
          "reference": "urn:uuid:bae6a372-7fcf-4773-9a43-80207bdc21fa"
        }
      }
    },
    {
      "fullUrl": "urn:uuid:845176a9-518f-40c1-8fcf-68e39477fb6e",
      "resource": {
        "resourceType": "Observation",
        "id": "845176a9-518f-40c1-8fcf-68e39477fb6e",
        "meta": {
          "profile": [
            "http://hl7.eu/fhir/laboratory/StructureDefinition/Observation-resultslab-eu-lab"
          ]
        },
        "performer": [
          {
            "display": "The Central European Lab"
          }
        ],
        "category": [
          {
            "coding": [
              {
                "system": "http://terminology.hl7.org/CodeSystem/observation-category",
                "code": "laboratory"
              }
            ]
          }
        ],
        "code": {
          "coding": [
            {
              "code": "5811-5",
              "system": "http://loinc.org",
              "display": "Specific gravity of Urine by Test strip"
            }
          ],
          "text": "Specific gravity of Urine by Test strip"
        },
        "valueQuantity": {
          "system": "http://unitsofmeasure.org",
          "value": 1,
          "unit": "{nominal}",
          "code": "{nominal}"
        },
        "referenceRange": [
          {
            "low": {
              "value": 1.01,
              "code": "g/mL",
              "system": "http://unitsofmeasure.org"
            }
          },
          {
            "high": {
              "value": 1.03,
              "code": "g/mL",
              "system": "http://unitsofmeasure.org"
            }
          }
        ],
        "interpretation": [
          {
            "coding": [
              {
                "code": "L",
                "system": "http://terminology.hl7.org/CodeSystem/v3-ObservationInterpretation",
                "display": "Low"
              }
            ]
          }
        ],
        "text": {
          "status": "generated",
          "div": "<div xmlns=\"http://www.w3.org/1999/xhtml\"><table class=\"hl7__eu__lab__report\"><tr><th>Test</th><th>20-Jul-2018</th><th>Reference&#xA0;Range</th><th>Unit</th></tr><tr><td>Specific gravity of Urine by Test strip</td><td>1.0</td><td>1.01 - 1.03</td><td>L</td><td>{nominal}</td></tr></table></div>"
        },
        "status": "final",
        "subject": {
          "reference": "urn:uuid:18c7d370-51ea-4fc9-a150-66f975ab698d",
          "display": "Victor Lagarde"
        },
        "effectiveDateTime": "2018-07-20T04:48:18Z",
        "specimen": {
          "reference": "urn:uuid:bae6a372-7fcf-4773-9a43-80207bdc21fa"
        }
      }
    },
    {
      "fullUrl": "urn:uuid:5d88c5fb-beef-4817-a0a9-9b5702967048",
      "resource": {
        "resourceType": "Observation",
        "id": "5d88c5fb-beef-4817-a0a9-9b5702967048",
        "meta": {
          "profile": [
            "http://hl7.eu/fhir/laboratory/StructureDefinition/Observation-resultslab-eu-lab"
          ]
        },
        "performer": [
          {
            "display": "The Central European Lab"
          }
        ],
        "category": [
          {
            "coding": [
              {
                "system": "http://terminology.hl7.org/CodeSystem/observation-category",
                "code": "laboratory"
              }
            ]
          }
        ],
        "code": {
          "coding": [
            {
              "code": "5803-2",
              "system": "http://loinc.org",
              "display": "pH of Urine by Test strip"
            }
          ],
          "text": "pH of Urine by Test strip"
        },
        "valueQuantity": {
          "system": "http://unitsofmeasure.org",
          "value": 6.1,
          "unit": "pH",
          "code": "pH"
        },
        "referenceRange": [
          {
            "low": {
              "value": 4.5,
              "code": "pH",
              "system": "http://unitsofmeasure.org"
            }
          },
          {
            "high": {
              "value": 7.5,
              "code": "pH",
              "system": "http://unitsofmeasure.org"
            }
          }
        ],
        "text": {
          "status": "generated",
          "div": "<div xmlns=\"http://www.w3.org/1999/xhtml\"><table class=\"hl7__eu__lab__report\"><tr><th>Test</th><th>20-Jul-2018</th><th>Reference&#xA0;Range</th><th>Unit</th></tr><tr><td>pH of Urine by Test strip</td><td>6.1</td><td>4.5 - 7.5</td><td></td><td>pH</td></tr></table></div>"
        },
        "status": "final",
        "subject": {
          "reference": "urn:uuid:18c7d370-51ea-4fc9-a150-66f975ab698d",
          "display": "Victor Lagarde"
        },
        "effectiveDateTime": "2018-07-20T04:48:18Z",
        "specimen": {
          "reference": "urn:uuid:bae6a372-7fcf-4773-9a43-80207bdc21fa"
        }
      }
    },
    {
      "fullUrl": "urn:uuid:02a401ed-251d-4f4b-b734-41af67473d34",
      "resource": {
        "resourceType": "Observation",
        "id": "02a401ed-251d-4f4b-b734-41af67473d34",
        "meta": {
          "profile": [
            "http://hl7.eu/fhir/laboratory/StructureDefinition/Observation-resultslab-eu-lab"
          ]
        },
        "performer": [
          {
            "display": "The Central European Lab"
          }
        ],
        "category": [
          {
            "coding": [
              {
                "system": "http://terminology.hl7.org/CodeSystem/observation-category",
                "code": "laboratory"
              }
            ]
          }
        ],
        "code": {
          "coding": [
            {
              "code": "5804-0",
              "system": "http://loinc.org",
              "display": "Protein [Mass/volume] in Urine by Test strip"
            }
          ],
          "text": "Protein [Mass/volume] in Urine by Test strip"
        },
        "valueQuantity": {
          "system": "http://unitsofmeasure.org",
          "value": 313,
          "unit": "mg/dL",
          "code": "mg/dL"
        },
        "referenceRange": [
          {
            "low": {
              "value": 0,
              "code": "mg/dL",
              "system": "http://unitsofmeasure.org"
            }
          },
          {
            "high": {
              "value": 149,
              "code": "mg/dL",
              "system": "http://unitsofmeasure.org"
            }
          }
        ],
        "interpretation": [
          {
            "coding": [
              {
                "code": "H",
                "system": "http://terminology.hl7.org/CodeSystem/v3-ObservationInterpretation",
                "display": "High"
              }
            ]
          }
        ],
        "text": {
          "status": "generated",
          "div": "<div xmlns=\"http://www.w3.org/1999/xhtml\"><table class=\"hl7__eu__lab__report\"><tr><th>Test</th><th>20-Jul-2018</th><th>Reference&#xA0;Range</th><th>Unit</th></tr><tr><td>Protein [Mass/volume] in Urine by Test strip</td><td>313.0</td><td>0 - 149</td><td>H</td><td>mg/dL</td></tr></table></div>"
        },
        "status": "final",
        "subject": {
          "reference": "urn:uuid:18c7d370-51ea-4fc9-a150-66f975ab698d",
          "display": "Victor Lagarde"
        },
        "effectiveDateTime": "2018-07-20T04:48:18Z",
        "specimen": {
          "reference": "urn:uuid:bae6a372-7fcf-4773-9a43-80207bdc21fa"
        }
      }
    },
    {
      "fullUrl": "urn:uuid:4c27afc5-f0b0-4a23-8dab-e703ffeddc1b",
      "resource": {
        "resourceType": "Observation",
        "id": "4c27afc5-f0b0-4a23-8dab-e703ffeddc1b",
        "meta": {
          "profile": [
            "http://hl7.eu/fhir/laboratory/StructureDefinition/Observation-resultslab-eu-lab"
          ]
        },
        "performer": [
          {
            "display": "The Central European Lab"
          }
        ],
        "category": [
          {
            "coding": [
              {
                "system": "http://terminology.hl7.org/CodeSystem/observation-category",
                "code": "laboratory"
              }
            ]
          }
        ],
        "code": {
          "coding": [
            {
              "code": "20454-5",
              "system": "http://loinc.org",
              "display": "Protein [Presence] in Urine by Test strip"
            }
          ],
          "text": "Protein [Presence] in Urine by Test strip"
        },
        "text": {
          "status": "generated",
          "div": "<div xmlns=\"http://www.w3.org/1999/xhtml\"><table class=\"hl7__eu__lab__report\"><tr><th>Test</th><th>20-Jul-2018</th><th>Reference&#xA0;Range</th><th>Unit</th></tr><tr><td>Protein [Presence] in Urine by Test strip</td></tr></table></div>"
        },
        "status": "final",
        "subject": {
          "reference": "urn:uuid:18c7d370-51ea-4fc9-a150-66f975ab698d",
          "display": "Victor Lagarde"
        },
        "effectiveDateTime": "2018-07-20T04:48:18Z",
        "specimen": {
          "reference": "urn:uuid:bae6a372-7fcf-4773-9a43-80207bdc21fa"
        }
      }
    },
    {
      "fullUrl": "urn:uuid:a3a99f6d-8a29-4b93-9142-7c505f77bbbb",
      "resource": {
        "resourceType": "Observation",
        "id": "a3a99f6d-8a29-4b93-9142-7c505f77bbbb",
        "meta": {
          "profile": [
            "http://hl7.eu/fhir/laboratory/StructureDefinition/Observation-resultslab-eu-lab"
          ]
        },
        "performer": [
          {
            "display": "The Central European Lab"
          }
        ],
        "category": [
          {
            "coding": [
              {
                "system": "http://terminology.hl7.org/CodeSystem/observation-category",
                "code": "laboratory"
              }
            ]
          }
        ],
        "code": {
          "coding": [
            {
              "code": "5802-4",
              "system": "http://loinc.org",
              "display": "Nitrite [Presence] in Urine by Test strip"
            }
          ],
          "text": "Nitrite [Presence] in Urine by Test strip"
        },
        "text": {
          "status": "generated",
          "div": "<div xmlns=\"http://www.w3.org/1999/xhtml\"><table class=\"hl7__eu__lab__report\"><tr><th>Test</th><th>20-Jul-2018</th><th>Reference&#xA0;Range</th><th>Unit</th></tr><tr><td>Nitrite [Presence] in Urine by Test strip</td></tr></table></div>"
        },
        "status": "final",
        "subject": {
          "reference": "urn:uuid:18c7d370-51ea-4fc9-a150-66f975ab698d",
          "display": "Victor Lagarde"
        },
        "effectiveDateTime": "2018-07-20T04:48:18Z",
        "specimen": {
          "reference": "urn:uuid:bae6a372-7fcf-4773-9a43-80207bdc21fa"
        }
      }
    },
    {
      "fullUrl": "urn:uuid:440747c1-81bb-430d-a3ce-cf3dab5f71c3",
      "resource": {
        "resourceType": "Observation",
        "id": "440747c1-81bb-430d-a3ce-cf3dab5f71c3",
        "meta": {
          "profile": [
            "http://hl7.eu/fhir/laboratory/StructureDefinition/Observation-resultslab-eu-lab"
          ]
        },
        "performer": [
          {
            "display": "The Central European Lab"
          }
        ],
        "category": [
          {
            "coding": [
              {
                "system": "http://terminology.hl7.org/CodeSystem/observation-category",
                "code": "laboratory"
              }
            ]
          }
        ],
        "code": {
          "coding": [
            {
              "code": "5794-3",
              "system": "http://loinc.org",
              "display": "Hemoglobin [Presence] in Urine by Test strip"
            }
          ],
          "text": "Hemoglobin [Presence] in Urine by Test strip"
        },
        "text": {
          "status": "generated",
          "div": "<div xmlns=\"http://www.w3.org/1999/xhtml\"><table class=\"hl7__eu__lab__report\"><tr><th>Test</th><th>20-Jul-2018</th><th>Reference&#xA0;Range</th><th>Unit</th></tr><tr><td>Hemoglobin [Presence] in Urine by Test strip</td></tr></table></div>"
        },
        "status": "final",
        "subject": {
          "reference": "urn:uuid:18c7d370-51ea-4fc9-a150-66f975ab698d",
          "display": "Victor Lagarde"
        },
        "effectiveDateTime": "2018-07-20T04:48:18Z",
        "specimen": {
          "reference": "urn:uuid:bae6a372-7fcf-4773-9a43-80207bdc21fa"
        }
      }
    },
    {
      "fullUrl": "urn:uuid:5d8ef524-040c-410e-baf6-18d884f2b2a9",
      "resource": {
        "resourceType": "Observation",
        "id": "5d8ef524-040c-410e-baf6-18d884f2b2a9",
        "meta": {
          "profile": [
            "http://hl7.eu/fhir/laboratory/StructureDefinition/Observation-resultslab-eu-lab"
          ]
        },
        "performer": [
          {
            "display": "The Central European Lab"
          }
        ],
        "category": [
          {
            "coding": [
              {
                "system": "http://terminology.hl7.org/CodeSystem/observation-category",
                "code": "laboratory"
              }
            ]
          }
        ],
        "code": {
          "coding": [
            {
              "code": "5799-2",
              "system": "http://loinc.org",
              "display": "Leukocyte esterase [Presence] in Urine by Test strip"
            }
          ],
          "text": "Leukocyte esterase [Presence] in Urine by Test strip"
        },
        "text": {
          "status": "generated",
          "div": "<div xmlns=\"http://www.w3.org/1999/xhtml\"><table class=\"hl7__eu__lab__report\"><tr><th>Test</th><th>20-Jul-2018</th><th>Reference&#xA0;Range</th><th>Unit</th></tr><tr><td>Leukocyte esterase [Presence] in Urine by Test strip</td></tr></table></div>"
        },
        "status": "final",
        "subject": {
          "reference": "urn:uuid:18c7d370-51ea-4fc9-a150-66f975ab698d",
          "display": "Victor Lagarde"
        },
        "effectiveDateTime": "2018-07-20T04:48:18Z",
        "specimen": {
          "reference": "urn:uuid:bae6a372-7fcf-4773-9a43-80207bdc21fa"
        }
      }
    },
    {
      "fullUrl": "urn:uuid:6e6e0eeb-f089-446c-adf7-628c9c7ff87d",
      "resource": {
        "resourceType": "Observation",
        "id": "6e6e0eeb-f089-446c-adf7-628c9c7ff87d",
        "meta": {
          "profile": [
            "http://hl7.eu/fhir/laboratory/StructureDefinition/Observation-resultslab-eu-lab"
          ]
        },
        "performer": [
          {
            "display": "The Central European Lab"
          }
        ],
        "category": [
          {
            "coding": [
              {
                "system": "http://terminology.hl7.org/CodeSystem/observation-category",
                "code": "laboratory"
              }
            ]
          }
        ],
        "code": {
          "coding": [
            {
              "code": "4548-4",
              "system": "http://loinc.org",
              "display": "Hemoglobin A1c/Hemoglobin.total in Blood"
            }
          ],
          "text": "Hemoglobin A1c/Hemoglobin.total in Blood"
        },
        "valueQuantity": {
          "system": "http://unitsofmeasure.org",
          "value": 2.8,
          "unit": "%",
          "code": "%"
        },
        "referenceRange": [
          {
            "low": {
              "value": 4.3,
              "code": "%",
              "system": "http://unitsofmeasure.org"
            }
          },
          {
            "high": {
              "value": 6,
              "code": "%",
              "system": "http://unitsofmeasure.org"
            }
          }
        ],
        "interpretation": [
          {
            "coding": [
              {
                "code": "L",
                "system": "http://terminology.hl7.org/CodeSystem/v3-ObservationInterpretation",
                "display": "Low"
              }
            ]
          }
        ],
        "text": {
          "status": "generated",
          "div": "<div xmlns=\"http://www.w3.org/1999/xhtml\"><table class=\"hl7__eu__lab__report\"><tr><th>Test</th><th>20-Jul-2018</th><th>Reference&#xA0;Range</th><th>Unit</th></tr><tr><td>Hemoglobin A1c/Hemoglobin.total in Blood</td><td>2.8</td><td>4.3 - 6</td><td>L</td><td>%</td></tr></table></div>"
        },
        "status": "final",
        "subject": {
          "reference": "urn:uuid:18c7d370-51ea-4fc9-a150-66f975ab698d",
          "display": "Victor Lagarde"
        },
        "effectiveDateTime": "2018-07-20T04:48:18Z",
        "specimen": {
          "reference": "urn:uuid:98ef80c5-b110-4f4c-b418-dc224ff22cb3"
        }
      }
    },
    {
      "fullUrl": "urn:uuid:10b66ebb-b604-4507-9128-0d0082e4f94a",
      "resource": {
        "resourceType": "Observation",
        "id": "10b66ebb-b604-4507-9128-0d0082e4f94a",
        "meta": {
          "profile": [
            "http://hl7.eu/fhir/laboratory/StructureDefinition/Observation-resultslab-eu-lab"
          ]
        },
        "performer": [
          {
            "display": "The Central European Lab"
          }
        ],
        "category": [
          {
            "coding": [
              {
                "system": "http://terminology.hl7.org/CodeSystem/observation-category",
                "code": "laboratory"
              }
            ]
          }
        ],
        "code": {
          "coding": [
            {
              "code": "2339-0",
              "system": "http://loinc.org",
              "display": "Glucose [Mass/volume] in Blood"
            }
          ],
          "text": "Glucose [Mass/volume] in Blood"
        },
        "valueQuantity": {
          "system": "http://unitsofmeasure.org",
          "value": 83.6,
          "unit": "mg/dL",
          "code": "mg/dL"
        },
        "referenceRange": [
          {
            "low": {
              "value": 70,
              "code": "mg/dL",
              "system": "http://unitsofmeasure.org"
            }
          },
          {
            "high": {
              "value": 140,
              "code": "mg/dL",
              "system": "http://unitsofmeasure.org"
            }
          }
        ],
        "text": {
          "status": "generated",
          "div": "<div xmlns=\"http://www.w3.org/1999/xhtml\"><table class=\"hl7__eu__lab__report\"><tr><th>Test</th><th>20-Jul-2018</th><th>Reference&#xA0;Range</th><th>Unit</th></tr><tr><td>Glucose [Mass/volume] in Blood</td><td>83.6</td><td>70 - 140</td><td></td><td>mg/dL</td></tr></table></div>"
        },
        "status": "final",
        "subject": {
          "reference": "urn:uuid:18c7d370-51ea-4fc9-a150-66f975ab698d",
          "display": "Victor Lagarde"
        },
        "effectiveDateTime": "2018-07-20T04:48:18Z",
        "specimen": {
          "reference": "urn:uuid:98ef80c5-b110-4f4c-b418-dc224ff22cb3"
        }
      }
    },
    {
      "fullUrl": "urn:uuid:98307711-d66f-4a41-aa82-856fc4ca8a8a",
      "resource": {
        "resourceType": "Observation",
        "id": "98307711-d66f-4a41-aa82-856fc4ca8a8a",
        "meta": {
          "profile": [
            "http://hl7.eu/fhir/laboratory/StructureDefinition/Observation-resultslab-eu-lab"
          ]
        },
        "performer": [
          {
            "display": "The Central European Lab"
          }
        ],
        "category": [
          {
            "coding": [
              {
                "system": "http://terminology.hl7.org/CodeSystem/observation-category",
                "code": "laboratory"
              }
            ]
          }
        ],
        "code": {
          "coding": [
            {
              "code": "6299-2",
              "system": "http://loinc.org",
              "display": "Urea nitrogen [Mass/volume] in Blood"
            }
          ],
          "text": "Urea nitrogen [Mass/volume] in Blood"
        },
        "valueQuantity": {
          "system": "http://unitsofmeasure.org",
          "value": 10.1,
          "unit": "mg/dL",
          "code": "mg/dL"
        },
        "referenceRange": [
          {
            "low": {
              "value": 7,
              "code": "mg/dL",
              "system": "http://unitsofmeasure.org"
            }
          },
          {
            "high": {
              "value": 20,
              "code": "mg/dL",
              "system": "http://unitsofmeasure.org"
            }
          }
        ],
        "text": {
          "status": "generated",
          "div": "<div xmlns=\"http://www.w3.org/1999/xhtml\"><table class=\"hl7__eu__lab__report\"><tr><th>Test</th><th>20-Jul-2018</th><th>Reference&#xA0;Range</th><th>Unit</th></tr><tr><td>Urea nitrogen [Mass/volume] in Blood</td><td>10.1</td><td>7 - 20</td><td></td><td>mg/dL</td></tr></table></div>"
        },
        "status": "final",
        "subject": {
          "reference": "urn:uuid:18c7d370-51ea-4fc9-a150-66f975ab698d",
          "display": "Victor Lagarde"
        },
        "effectiveDateTime": "2018-07-20T04:48:18Z",
        "specimen": {
          "reference": "urn:uuid:98ef80c5-b110-4f4c-b418-dc224ff22cb3"
        }
      }
    },
    {
      "fullUrl": "urn:uuid:78c2b727-0037-4eb0-9413-87238993be6c",
      "resource": {
        "resourceType": "Observation",
        "id": "78c2b727-0037-4eb0-9413-87238993be6c",
        "meta": {
          "profile": [
            "http://hl7.eu/fhir/laboratory/StructureDefinition/Observation-resultslab-eu-lab"
          ]
        },
        "performer": [
          {
            "display": "The Central European Lab"
          }
        ],
        "category": [
          {
            "coding": [
              {
                "system": "http://terminology.hl7.org/CodeSystem/observation-category",
                "code": "laboratory"
              }
            ]
          }
        ],
        "code": {
          "coding": [
            {
              "code": "38483-4",
              "system": "http://loinc.org",
              "display": "Creatinine [Mass/volume] in Blood"
            }
          ],
          "text": "Creatinine [Mass/volume] in Blood"
        },
        "valueQuantity": {
          "system": "http://unitsofmeasure.org",
          "value": 1.6,
          "unit": "mg/dL",
          "code": "mg/dL"
        },
        "referenceRange": [
          {
            "low": {
              "value": 0.9,
              "code": "mg/dL",
              "system": "http://unitsofmeasure.org"
            }
          },
          {
            "high": {
              "value": 1.3,
              "code": "mg/dL",
              "system": "http://unitsofmeasure.org"
            }
          }
        ],
        "interpretation": [
          {
            "coding": [
              {
                "code": "H",
                "system": "http://terminology.hl7.org/CodeSystem/v3-ObservationInterpretation",
                "display": "High"
              }
            ]
          }
        ],
        "text": {
          "status": "generated",
          "div": "<div xmlns=\"http://www.w3.org/1999/xhtml\"><table class=\"hl7__eu__lab__report\"><tr><th>Test</th><th>20-Jul-2018</th><th>Reference&#xA0;Range</th><th>Unit</th></tr><tr><td>Creatinine [Mass/volume] in Blood</td><td>1.6</td><td>0.9 - 1.3</td><td>H</td><td>mg/dL</td></tr></table></div>"
        },
        "status": "final",
        "subject": {
          "reference": "urn:uuid:18c7d370-51ea-4fc9-a150-66f975ab698d",
          "display": "Victor Lagarde"
        },
        "effectiveDateTime": "2018-07-20T04:48:18Z",
        "specimen": {
          "reference": "urn:uuid:98ef80c5-b110-4f4c-b418-dc224ff22cb3"
        }
      }
    },
    {
      "fullUrl": "urn:uuid:7ad6ec51-ca99-4b82-961f-c59df974d459",
      "resource": {
        "resourceType": "Observation",
        "id": "7ad6ec51-ca99-4b82-961f-c59df974d459",
        "meta": {
          "profile": [
            "http://hl7.eu/fhir/laboratory/StructureDefinition/Observation-resultslab-eu-lab"
          ]
        },
        "performer": [
          {
            "display": "The Central European Lab"
          }
        ],
        "category": [
          {
            "coding": [
              {
                "system": "http://terminology.hl7.org/CodeSystem/observation-category",
                "code": "laboratory"
              }
            ]
          }
        ],
        "code": {
          "coding": [
            {
              "code": "49765-1",
              "system": "http://loinc.org",
              "display": "Calcium [Mass/volume] in Blood"
            }
          ],
          "text": "Calcium [Mass/volume] in Blood"
        },
        "valueQuantity": {
          "system": "http://unitsofmeasure.org",
          "value": 8.9,
          "unit": "mg/dL",
          "code": "mg/dL"
        },
        "referenceRange": [
          {
            "low": {
              "value": 8.5,
              "code": "mg/dL",
              "system": "http://unitsofmeasure.org"
            }
          },
          {
            "high": {
              "value": 10.5,
              "code": "mg/dL",
              "system": "http://unitsofmeasure.org"
            }
          }
        ],
        "text": {
          "status": "generated",
          "div": "<div xmlns=\"http://www.w3.org/1999/xhtml\"><table class=\"hl7__eu__lab__report\"><tr><th>Test</th><th>20-Jul-2018</th><th>Reference&#xA0;Range</th><th>Unit</th></tr><tr><td>Calcium [Mass/volume] in Blood</td><td>8.9</td><td>8.5 - 10.5</td><td></td><td>mg/dL</td></tr></table></div>"
        },
        "status": "final",
        "subject": {
          "reference": "urn:uuid:18c7d370-51ea-4fc9-a150-66f975ab698d",
          "display": "Victor Lagarde"
        },
        "effectiveDateTime": "2018-07-20T04:48:18Z",
        "specimen": {
          "reference": "urn:uuid:98ef80c5-b110-4f4c-b418-dc224ff22cb3"
        }
      }
    },
    {
      "fullUrl": "urn:uuid:1e17010f-495f-4089-96c5-fd4962eb3327",
      "resource": {
        "resourceType": "Observation",
        "id": "1e17010f-495f-4089-96c5-fd4962eb3327",
        "meta": {
          "profile": [
            "http://hl7.eu/fhir/laboratory/StructureDefinition/Observation-resultslab-eu-lab"
          ]
        },
        "performer": [
          {
            "display": "The Central European Lab"
          }
        ],
        "category": [
          {
            "coding": [
              {
                "system": "http://terminology.hl7.org/CodeSystem/observation-category",
                "code": "laboratory"
              }
            ]
          }
        ],
        "code": {
          "coding": [
            {
              "code": "2947-0",
              "system": "http://loinc.org",
              "display": "Sodium [Moles/volume] in Blood"
            }
          ],
          "text": "Sodium [Moles/volume] in Blood"
        },
        "valueQuantity": {
          "system": "http://unitsofmeasure.org",
          "value": 136.1,
          "unit": "mmol/L",
          "code": "mmol/L"
        },
        "referenceRange": [
          {
            "low": {
              "value": 135,
              "code": "mmol/L",
              "system": "http://unitsofmeasure.org"
            }
          },
          {
            "high": {
              "value": 145,
              "code": "mmol/L",
              "system": "http://unitsofmeasure.org"
            }
          }
        ],
        "text": {
          "status": "generated",
          "div": "<div xmlns=\"http://www.w3.org/1999/xhtml\"><table class=\"hl7__eu__lab__report\"><tr><th>Test</th><th>20-Jul-2018</th><th>Reference&#xA0;Range</th><th>Unit</th></tr><tr><td>Sodium [Moles/volume] in Blood</td><td>136.1</td><td>135 - 145</td><td></td><td>mmol/L</td></tr></table></div>"
        },
        "status": "final",
        "subject": {
          "reference": "urn:uuid:18c7d370-51ea-4fc9-a150-66f975ab698d",
          "display": "Victor Lagarde"
        },
        "effectiveDateTime": "2018-07-20T04:48:18Z",
        "specimen": {
          "reference": "urn:uuid:98ef80c5-b110-4f4c-b418-dc224ff22cb3"
        }
      }
    },
    {
      "fullUrl": "urn:uuid:3c62cad0-387c-4565-a619-3b465d230acb",
      "resource": {
        "resourceType": "Observation",
        "id": "3c62cad0-387c-4565-a619-3b465d230acb",
        "meta": {
          "profile": [
            "http://hl7.eu/fhir/laboratory/StructureDefinition/Observation-resultslab-eu-lab"
          ]
        },
        "performer": [
          {
            "display": "The Central European Lab"
          }
        ],
        "category": [
          {
            "coding": [
              {
                "system": "http://terminology.hl7.org/CodeSystem/observation-category",
                "code": "laboratory"
              }
            ]
          }
        ],
        "code": {
          "coding": [
            {
              "code": "6298-4",
              "system": "http://loinc.org",
              "display": "Potassium [Moles/volume] in Blood"
            }
          ],
          "text": "Potassium [Moles/volume] in Blood"
        },
        "valueQuantity": {
          "system": "http://unitsofmeasure.org",
          "value": 4.7,
          "unit": "mmol/L",
          "code": "mmol/L"
        },
        "referenceRange": [
          {
            "low": {
              "value": 3.5,
              "code": "mmol/L",
              "system": "http://unitsofmeasure.org"
            }
          },
          {
            "high": {
              "value": 5.1,
              "code": "mmol/L",
              "system": "http://unitsofmeasure.org"
            }
          }
        ],
        "text": {
          "status": "generated",
          "div": "<div xmlns=\"http://www.w3.org/1999/xhtml\"><table class=\"hl7__eu__lab__report\"><tr><th>Test</th><th>20-Jul-2018</th><th>Reference&#xA0;Range</th><th>Unit</th></tr><tr><td>Potassium [Moles/volume] in Blood</td><td>4.7</td><td>3.5 - 5.1</td><td></td><td>mmol/L</td></tr></table></div>"
        },
        "status": "final",
        "subject": {
          "reference": "urn:uuid:18c7d370-51ea-4fc9-a150-66f975ab698d",
          "display": "Victor Lagarde"
        },
        "effectiveDateTime": "2018-07-20T04:48:18Z",
        "specimen": {
          "reference": "urn:uuid:98ef80c5-b110-4f4c-b418-dc224ff22cb3"
        }
      }
    },
    {
      "fullUrl": "urn:uuid:a2442b10-d762-4266-b316-f0e4d73c9c5a",
      "resource": {
        "resourceType": "Observation",
        "id": "a2442b10-d762-4266-b316-f0e4d73c9c5a",
        "meta": {
          "profile": [
            "http://hl7.eu/fhir/laboratory/StructureDefinition/Observation-resultslab-eu-lab"
          ]
        },
        "performer": [
          {
            "display": "The Central European Lab"
          }
        ],
        "category": [
          {
            "coding": [
              {
                "system": "http://terminology.hl7.org/CodeSystem/observation-category",
                "code": "laboratory"
              }
            ]
          }
        ],
        "code": {
          "coding": [
            {
              "code": "2069-3",
              "system": "http://loinc.org",
              "display": "Chloride [Moles/volume] in Blood"
            }
          ],
          "text": "Chloride [Moles/volume] in Blood"
        },
        "valueQuantity": {
          "system": "http://unitsofmeasure.org",
          "value": 105.7,
          "unit": "mmol/L",
          "code": "mmol/L"
        },
        "referenceRange": [
          {
            "low": {
              "value": 98,
              "code": "mmol/L",
              "system": "http://unitsofmeasure.org"
            }
          },
          {
            "high": {
              "value": 108,
              "code": "mmol/L",
              "system": "http://unitsofmeasure.org"
            }
          }
        ],
        "text": {
          "status": "generated",
          "div": "<div xmlns=\"http://www.w3.org/1999/xhtml\"><table class=\"hl7__eu__lab__report\"><tr><th>Test</th><th>20-Jul-2018</th><th>Reference&#xA0;Range</th><th>Unit</th></tr><tr><td>Chloride [Moles/volume] in Blood</td><td>105.7</td><td>98 - 108</td><td></td><td>mmol/L</td></tr></table></div>"
        },
        "status": "final",
        "subject": {
          "reference": "urn:uuid:18c7d370-51ea-4fc9-a150-66f975ab698d",
          "display": "Victor Lagarde"
        },
        "effectiveDateTime": "2018-07-20T04:48:18Z",
        "specimen": {
          "reference": "urn:uuid:98ef80c5-b110-4f4c-b418-dc224ff22cb3"
        }
      }
    },
    {
      "fullUrl": "urn:uuid:faa553ad-373a-49e8-a9fc-a46b3726c3b8",
      "resource": {
        "resourceType": "Observation",
        "id": "faa553ad-373a-49e8-a9fc-a46b3726c3b8",
        "meta": {
          "profile": [
            "http://hl7.eu/fhir/laboratory/StructureDefinition/Observation-resultslab-eu-lab"
          ]
        },
        "performer": [
          {
            "display": "The Central European Lab"
          }
        ],
        "category": [
          {
            "coding": [
              {
                "system": "http://terminology.hl7.org/CodeSystem/observation-category",
                "code": "laboratory"
              }
            ]
          }
        ],
        "code": {
          "coding": [
            {
              "code": "20565-8",
              "system": "http://loinc.org",
              "display": "Carbon dioxide, total [Moles/volume] in Blood"
            }
          ],
          "text": "Carbon dioxide, total [Moles/volume] in Blood"
        },
        "valueQuantity": {
          "system": "http://unitsofmeasure.org",
          "value": 20.1,
          "unit": "mmol/L",
          "code": "mmol/L"
        },
        "referenceRange": [
          {
            "low": {
              "value": 22,
              "code": "mmol/L",
              "system": "http://unitsofmeasure.org"
            }
          },
          {
            "high": {
              "value": 29,
              "code": "mmol/L",
              "system": "http://unitsofmeasure.org"
            }
          }
        ],
        "interpretation": [
          {
            "coding": [
              {
                "code": "L",
                "system": "http://terminology.hl7.org/CodeSystem/v3-ObservationInterpretation",
                "display": "Low"
              }
            ]
          }
        ],
        "text": {
          "status": "generated",
          "div": "<div xmlns=\"http://www.w3.org/1999/xhtml\"><table class=\"hl7__eu__lab__report\"><tr><th>Test</th><th>20-Jul-2018</th><th>Reference&#xA0;Range</th><th>Unit</th></tr><tr><td>Carbon dioxide, total [Moles/volume] in Blood</td><td>20.1</td><td>22 - 29</td><td>L</td><td>mmol/L</td></tr></table></div>"
        },
        "status": "final",
        "subject": {
          "reference": "urn:uuid:18c7d370-51ea-4fc9-a150-66f975ab698d",
          "display": "Victor Lagarde"
        },
        "effectiveDateTime": "2018-07-20T04:48:18Z",
        "specimen": {
          "reference": "urn:uuid:98ef80c5-b110-4f4c-b418-dc224ff22cb3"
        }
      }
    },
    {
      "fullUrl": "urn:uuid:c8657b65-813b-453b-9ea6-37c85805f2f4",
      "resource": {
        "resourceType": "Device",
        "id": "c8657b65-813b-453b-9ea6-37c85805f2f4",
        "deviceName": [
          {
            "name": "SYNDERAI Synthetic Generator",
            "type": "manufacturer-name"
          }
        ],
        "version": [
          {
            "value": "5.0"
          }
        ],
        "text": {
          "status": "generated",
          "div": "<div xmlns=\"http://www.w3.org/1999/xhtml\">SYNDERAI Synthetic Generator v5.0</div>"
        },
        "status": "active\"",
        "distinctIdentifier": "synderai-generator-50",
        "manufacturer": "SYNDERAI Project"
      }
    },
    {
      "fullUrl": "urn:uuid:b1dbfa89-b5c1-4cb1-9acf-0ffb85aa672b",
      "resource": {
        "resourceType": "Provenance",
        "id": "b1dbfa89-b5c1-4cb1-9acf-0ffb85aa672b",
        "target": [
          {
            "reference": "Patient/18c7d370-51ea-4fc9-a150-66f975ab698d"
          },
          {
            "reference": "Bundle/543e60e6-2c37-4207-a975-730bf974f6c7"
          },
          {
            "reference": "Composition/9acee959-f93f-460a-9c69-befdb983e7f5"
          },
          {
            "reference": "PractitionerRole/da92d1f2-ae76-4913-9564-3747e1a69546"
          },
          {
            "reference": "Practitioner/1a68418b-1b1d-46e9-9b39-19040d092a7a"
          },
          {
            "reference": "PractitionerRole/d87a4171-c890-43b1-8370-ae96e26bbb84"
          },
          {
            "reference": "Organization/2e24a70a-3726-4464-a5fb-6bf3355c88c4"
          }
        ],
        "activity": {
          "text": "Synthetic Example Data Generation"
        },
        "policy": [
          "https://synderai.net/synderai-synthetic-data-policy"
        ],
        "agent": [
          {
            "type": {
              "text": "author"
            },
            "who": {
              "reference": "Device/c8657b65-813b-453b-9ea6-37c85805f2f4"
            }
          }
        ],
        "reason": [
          {
            "text": "Interoperability Testing and Training (non-clinical use)"
          }
        ],
        "text": {
          "status": "generated",
          "div": "<div xmlns=\"http://www.w3.org/1999/xhtml\">Provenance for SYNDERAI Synthetic Example Data Resource</div>"
        },
        "recorded": "2018-07-20T06:48:18Z"
      }
    },
    {
      "fullUrl": "urn:uuid:da92d1f2-ae76-4913-9564-3747e1a69546",
      "resource": {
        "resourceType": "PractitionerRole",
        "id": "da92d1f2-ae76-4913-9564-3747e1a69546",
        "meta": {
          "profile": [
            "http://hl7.eu/fhir/base/StructureDefinition/practitionerRole-eu"
          ]
        },
        "text": {
          "status": "generated",
          "div": "<div xmlns=\"http://www.w3.org/1999/xhtml\">Laboratory Role Id: da92d1f2-ae76-4913-9564-3747e1a69546</div>"
        },
        "practitioner": {
          "reference": "urn:uuid:1a68418b-1b1d-46e9-9b39-19040d092a7a"
        }
      }
    },
    {
      "fullUrl": "urn:uuid:1a68418b-1b1d-46e9-9b39-19040d092a7a",
      "resource": {
        "resourceType": "Practitioner",
        "id": "1a68418b-1b1d-46e9-9b39-19040d092a7a",
        "meta": {
          "profile": [
            "http://hl7.eu/fhir/base/StructureDefinition/practitioner-eu"
          ]
        },
        "identifier": [
          {
            "assigner": {
              "display": "HL7 Europe"
            },
            "system": "urn:oid:2.16.840.1.113883.2.51.999",
            "value": "c3339cd9-8c4a-47e5-87fb-1ab2fdfa2b60"
          }
        ],
        "name": [
          {
            "prefix": [
              "dr"
            ],
            "given": [
              "Ex"
            ],
            "family": "Ample"
          }
        ],
        "address": [
          {
            "line": [
              "Laboratoire Central Européenne",
              "Boulevard du Jardin Botanique 32"
            ],
            "postalCode": "1000",
            "city": "Brussels",
            "country": "Belgium"
          }
        ],
        "text": {
          "status": "generated",
          "div": "<div xmlns=\"http://www.w3.org/1999/xhtml\">Laboratory: Laboratoire Central Européenne, 1000 Brussels, Belgium</div>"
        }
      }
    }
  ],
  "type": "document",
  "timestamp": "2018-07-20T06:48:18Z"
}
