{
  "resourceType": "Bundle",
  "id": "109ab074-58cb-44ec-997a-b27231276a35",
  "meta": {
    "profile": [
      "http://hl7.eu/fhir/laboratory/StructureDefinition/Bundle-eu-lab"
    ]
  },
  "identifier": {
    "assigner": {
      "display": "HL7 Europe"
    },
    "system": "urn:oid:2.16.840.1.113883.2.51.999",
    "value": "9b2fbc44-4b60-4840-adcd-4fdc8428f804"
  },
  "entry": [
    {
      "fullUrl": "urn:uuid:349c5687-80fa-48e8-9f73-c285916b4de0",
      "resource": {
        "resourceType": "Composition",
        "id": "349c5687-80fa-48e8-9f73-c285916b4de0",
        "meta": {
          "profile": [
            "http://hl7.eu/fhir/laboratory/StructureDefinition/Composition-eu-lab"
          ]
        },
        "identifier": {
          "assigner": {
            "display": "HL7 Europe"
          },
          "system": "urn:oid:2.16.840.1.113883.2.51.999",
          "value": "90f14365-004a-4875-9f1e-723834cb3f68"
        },
        "author": [
          {
            "reference": "urn:uuid:30601be3-6795-4182-abc5-45bc8df9f45c"
          }
        ],
        "category": [
          {
            "coding": [
              {
                "code": "26436-6",
                "system": "http://loinc.org",
                "display": "Laboratory studies (set)"
              }
            ]
          }
        ],
        "type": {
          "coding": [
            {
              "code": "11502-2",
              "system": "http://loinc.org",
              "display": "Laboratory report"
            }
          ],
          "text": "Laboratory Report"
        },
        "section": [
          {
            "code": {
              "coding": [
                {
                  "code": "26436-6",
                  "system": "http://loinc.org",
                  "display": "Laboratory studies (set)"
                }
              ],
              "text": "Laboratory studies"
            },
            "section": [
              {
                "code": {
                  "coding": [
                    {
                      "code": "$18719-5",
                      "system": "http://loinc.org",
                      "display": "Chemistry studies (set)"
                    }
                  ],
                  "text": "Chemistry"
                },
                "entry": [
                  {
                    "reference": "urn:uuid:f275d42c-cee5-415d-b7a4-02a89b62202e"
                  },
                  {
                    "reference": "urn:uuid:ba7acc48-6bb9-4fde-9921-12d178a69177"
                  },
                  {
                    "reference": "urn:uuid:48710ea4-9fa4-4345-8648-c76efd62f44b"
                  },
                  {
                    "reference": "urn:uuid:594c3797-8a7c-490a-877a-34b42a122c23"
                  },
                  {
                    "reference": "urn:uuid:f3f934f2-b985-4a7e-8deb-824deed97f05"
                  },
                  {
                    "reference": "urn:uuid:069cdc03-24cd-4491-9a49-7778fc54f008"
                  },
                  {
                    "reference": "urn:uuid:60daa6a8-0fc5-44c0-900a-6a1672d38949"
                  },
                  {
                    "reference": "urn:uuid:70e4b305-35be-41fa-8acf-953a9bc7518b"
                  },
                  {
                    "reference": "urn:uuid:24f6c46d-8a97-47bf-b313-94c630bb5d57"
                  },
                  {
                    "reference": "urn:uuid:84789a51-509e-4192-b8b7-c3696475849e"
                  },
                  {
                    "reference": "urn:uuid:40d1f14e-233b-41a8-b763-0b16adb12867"
                  },
                  {
                    "reference": "urn:uuid:69d6b9a6-22a6-4d51-ba99-bac630bf16e0"
                  },
                  {
                    "reference": "urn:uuid:0be94979-2f40-44e4-8a95-ef2b32ff3bb0"
                  },
                  {
                    "reference": "urn:uuid:3c833432-cef6-461a-bb79-37c2cae0f845"
                  },
                  {
                    "reference": "urn:uuid:8db7a719-b536-4ab4-b587-923cb0cbd225"
                  },
                  {
                    "reference": "urn:uuid:38765825-dad2-4b3a-8956-7a8fcb7c9251"
                  },
                  {
                    "reference": "urn:uuid:4f41a1c0-b41c-4b39-9819-1669faebf76a"
                  },
                  {
                    "reference": "urn:uuid:55279e7b-bed4-47d6-bd1e-176a88d1227c"
                  },
                  {
                    "reference": "urn:uuid:3554cd3a-68e6-4406-acf3-5b9514c4cee4"
                  }
                ],
                "text": {
                  "status": "generated",
                  "div": "<div xmlns=\"http://www.w3.org/1999/xhtml\"><h3>Chemistry</h3><table class=\"hl7__eu__lab__report\"><thead><tr><th>Test</th><th>24-APR-2023</th><th>Reference&#xA0;Range</th><th>Unit</th></tr></thead><tbody><tr><td>Glucose [Mass/volume] in Blood</td><td>81.8</td><td>70 - 140</td><td>mg/dL</td></tr><tr><td>Urea nitrogen [Mass/volume] in Blood</td><td>19.6</td><td>7 - 20</td><td>mg/dL</td></tr><tr><td>Creatinine [Mass/volume] in Blood</td><td><strong>3.2 H</strong></td><td>0.6 - 1.1</td><td>mg/dL</td></tr><tr><td>Calcium [Mass/volume] in Blood</td><td>8.9</td><td>8.5 - 10.4</td><td>mg/dL</td></tr><tr><td>Sodium [Moles/volume] in Blood</td><td>142.9</td><td>135 - 145</td><td>mmol/L</td></tr><tr><td>Potassium [Moles/volume] in Blood</td><td>4.9</td><td>3.5 - 5.1</td><td>mmol/L</td></tr><tr><td>Chloride [Moles/volume] in Blood</td><td><strong>109.9 H</strong></td><td>98 - 108</td><td>mmol/L</td></tr><tr><td>Carbon dioxide, total [Moles/volume] in Blood</td><td>26.5</td><td>22 - 29</td><td>mmol/L</td></tr><tr><td>Protein [Mass/volume] in Serum or Plasma</td><td>7.1</td><td>6 - 8.3</td><td>g/dL</td></tr><tr><td>Albumin [Mass/volume] in Serum or Plasma</td><td>3.8</td><td>3.4 - 5</td><td>g/dL</td></tr><tr><td>Globulin [Mass/volume] in Serum by calculation</td><td>2.1</td><td>2 - 3.5</td><td>g/L</td></tr><tr><td>Bilirubin.total [Mass/volume] in Serum or Plasma</td><td>0.8</td><td>0.2 - 1.2</td><td>mg/dL</td></tr><tr><td>Alkaline phosphatase [Enzymatic activity/volume] in Serum or Plasma</td><td>75.3</td><td>44 - 104</td><td>U/L</td></tr><tr><td>Alanine aminotransferase [Enzymatic activity/volume] in Serum or Plasma</td><td>21.8</td><td>13 - 36</td><td>U/L</td></tr><tr><td>Aspartate aminotransferase [Enzymatic activity/volume] in Serum or Plasma</td><td>14.7</td><td>10 - 40</td><td>U/L</td></tr><tr><td>Cholesterol [Mass/volume] in Serum or Plasma</td><td>180.7</td><td>130 - 200</td><td>mg/dL</td></tr><tr><td>Triglyceride [Mass/volume] in Serum or Plasma</td><td>171.7</td><td>35 - 175</td><td>mg/dL</td></tr><tr><td>Cholesterol in LDL [Mass/volume] in Serum or Plasma by Direct assay</td><td>100.7</td><td>0 - 190</td><td>mg/dL</td></tr><tr><td>Cholesterol in HDL [Mass/volume] in Serum or Plasma</td><td>66.4</td><td>50 - 100</td><td>mg/dL</td></tr></tbody></table></div>"
                },
                "title": "Chemistry"
              }
            ],
            "title": "Laboratory Report"
          },
          {
            "text": {
              "status": "generated",
              "div": "<div xmlns=\"http://www.w3.org/1999/xhtml\"><h3>Annotation</h3><table class=\"hl7__eu__lab__report\"><tr><th>Conclusion and Recommendations based on this report and previous findings known to us</th></tr><tr><td>Most parameters are within normal limits. However, creatinine is significantly elevated, suggesting impaired renal function, and chloride is mildly increased. Other kidney and metabolic markers (urea, electrolytes, glucose) are normal. Liver function, protein status, and lipid profile are unremarkable. Recommend clinical correlation and further evaluation of renal function.</td></tr></table></div>"
            },
            "code": {
              "coding": [
                {
                  "system": "http://loinc.org",
                  "code": "48767-8",
                  "display": "Annotation comment"
                }
              ]
            },
            "title": "Annotation comment"
          }
        ],
        "status": "final",
        "subject": {
          "reference": "urn:uuid:6f549e85-e21d-4924-8009-ac999494473f",
          "display": "Eileen Taylor"
        },
        "date": "2023-04-24T07:47:02Z",
        "title": "Laboratory Report",
        "confidentiality": "N"
      }
    },
    {
      "fullUrl": "urn:uuid:282a28ee-7153-4a42-834a-d5851588cec8",
      "resource": {
        "resourceType": "DiagnosticReport",
        "id": "282a28ee-7153-4a42-834a-d5851588cec8",
        "meta": {
          "profile": [
            "http://hl7.eu/fhir/laboratory/StructureDefinition/DiagnosticReport-eu-lab"
          ]
        },
        "identifier": [
          {
            "assigner": {
              "display": "HL7 Europe"
            },
            "system": "urn:oid:2.16.840.1.113883.2.51.999",
            "value": "9232619d-a477-4f84-8a1f-22c35aa582d0"
          }
        ],
        "extension": [
          {
            "url": "http://hl7.org/fhir/5.0/StructureDefinition/extension-DiagnosticReport.composition",
            "valueReference": {
              "reference": "urn:uuid:90f14365-004a-4875-9f1e-723834cb3f68"
            }
          }
        ],
        "category": [
          {
            "coding": [
              {
                "code": "26436-6",
                "system": "http://loinc.org",
                "display": "Laboratory studies (set)"
              }
            ]
          }
        ],
        "specimen": [
          {
            "reference": "urn:uuid:19ce2348-5e2f-4c7c-8836-a1cf9b47890a"
          },
          {
            "reference": "urn:uuid:63a37bc2-178b-42b8-af41-23ef5690efb5"
          },
          {
            "reference": "urn:uuid:f0623c84-b807-4d36-a0b8-675abbc95cbd"
          }
        ],
        "result": [
          {
            "reference": "urn:uuid:f275d42c-cee5-415d-b7a4-02a89b62202e"
          },
          {
            "reference": "urn:uuid:ba7acc48-6bb9-4fde-9921-12d178a69177"
          },
          {
            "reference": "urn:uuid:48710ea4-9fa4-4345-8648-c76efd62f44b"
          },
          {
            "reference": "urn:uuid:594c3797-8a7c-490a-877a-34b42a122c23"
          },
          {
            "reference": "urn:uuid:f3f934f2-b985-4a7e-8deb-824deed97f05"
          },
          {
            "reference": "urn:uuid:069cdc03-24cd-4491-9a49-7778fc54f008"
          },
          {
            "reference": "urn:uuid:60daa6a8-0fc5-44c0-900a-6a1672d38949"
          },
          {
            "reference": "urn:uuid:70e4b305-35be-41fa-8acf-953a9bc7518b"
          },
          {
            "reference": "urn:uuid:24f6c46d-8a97-47bf-b313-94c630bb5d57"
          },
          {
            "reference": "urn:uuid:84789a51-509e-4192-b8b7-c3696475849e"
          },
          {
            "reference": "urn:uuid:40d1f14e-233b-41a8-b763-0b16adb12867"
          },
          {
            "reference": "urn:uuid:69d6b9a6-22a6-4d51-ba99-bac630bf16e0"
          },
          {
            "reference": "urn:uuid:0be94979-2f40-44e4-8a95-ef2b32ff3bb0"
          },
          {
            "reference": "urn:uuid:3c833432-cef6-461a-bb79-37c2cae0f845"
          },
          {
            "reference": "urn:uuid:8db7a719-b536-4ab4-b587-923cb0cbd225"
          },
          {
            "reference": "urn:uuid:38765825-dad2-4b3a-8956-7a8fcb7c9251"
          },
          {
            "reference": "urn:uuid:4f41a1c0-b41c-4b39-9819-1669faebf76a"
          },
          {
            "reference": "urn:uuid:55279e7b-bed4-47d6-bd1e-176a88d1227c"
          },
          {
            "reference": "urn:uuid:3554cd3a-68e6-4406-acf3-5b9514c4cee4"
          }
        ],
        "status": "registered",
        "code": {
          "coding": [
            {
              "code": "11502-2",
              "system": "http://loinc.org",
              "display": "Laboratory report"
            }
          ]
        },
        "subject": {
          "reference": "urn:uuid:6f549e85-e21d-4924-8009-ac999494473f",
          "display": "Eileen Taylor"
        }
      }
    },
    {
      "fullUrl": "urn:uuid:6f549e85-e21d-4924-8009-ac999494473f",
      "resource": {
        "resourceType": "Patient",
        "id": "6f549e85-e21d-4924-8009-ac999494473f",
        "meta": {
          "security": [
            {
              "system": "http://terminology.hl7.org/CodeSystem/v3-ActReason",
              "code": "HTEST"
            },
            {
              "system": "http://terminology.hl7.org/CodeSystem/v3-ActReason",
              "code": "TRAIN"
            }
          ],
          "tag": [
            {
              "system": "https://synderai.net/fhir/CodeSystem/tags",
              "code": "synthetic",
              "display": "SYNDERAI Synthetic data"
            }
          ],
          "profile": [
            "http://hl7.eu/fhir/base/StructureDefinition/patient-eu-core"
          ]
        },
        "identifier": [
          {
            "type": {
              "coding": [
                {
                  "code": "PT",
                  "system": "http://terminology.hl7.org/CodeSystem/v2-0203"
                }
              ]
            },
            "system": "http://ec.europa.eu/identifier/eci",
            "value": "6172-576075-7"
          },
          {
            "type": {
              "coding": [
                {
                  "code": "MR",
                  "system": "http://terminology.hl7.org/CodeSystem/v2-0203"
                }
              ]
            },
            "system": "http://local.setting.eu/identifier",
            "value": "f7f175da-cf0d-5686-8800-840d9ab7b47b"
          }
        ],
        "name": [
          {
            "family": "Taylor"
          },
          {
            "given": [
              "Eileen"
            ]
          },
          {
            "text": "Eileen Taylor"
          }
        ],
        "address": [
          {
            "line": [
              "39 Slater harbors"
            ],
            "use": "home",
            "type": "physical",
            "postalCode": "LE17",
            "city": "Smithtown",
            "country": "United Kingdom"
          }
        ],
        "telecom": [
          {
            "system": "phone",
            "value": "+44(0)1614960460"
          }
        ],
        "extension": [
          {
            "url": "http://hl7.org/fhir/StructureDefinition/patient-nationality",
            "valueCodeableConcept": {
              "coding": [
                {
                  "code": "GB",
                  "system": "http://hl7.org/fhir/ValueSet/country"
                }
              ]
            }
          }
        ],
        "text": {
          "status": "generated",
          "div": "<div xmlns=\"http://www.w3.org/1999/xhtml\"><table class=\"hl7__ips\"><tr><td>Eileen Taylor</td><td>female</td><td>11-Dec-1951</td></tr></table></div>"
        },
        "gender": "female",
        "birthDate": "1951-12-11"
      }
    },
    {
      "fullUrl": "urn:uuid:27b7b3bb-f75b-4354-b74d-0a548042f87c",
      "resource": {
        "resourceType": "ServiceRequest",
        "id": "27b7b3bb-f75b-4354-b74d-0a548042f87c",
        "meta": {
          "profile": [
            "http://hl7.eu/fhir/laboratory/StructureDefinition/ServiceRequest-eu-lab"
          ]
        },
        "identifier": [
          {
            "system": "http://example.org",
            "value": "87458764-0bc2-4746-b3e1-62c1b6258d5f"
          }
        ],
        "specimen": [
          {
            "reference": "urn:uuid:19ce2348-5e2f-4c7c-8836-a1cf9b47890a"
          },
          {
            "reference": "urn:uuid:63a37bc2-178b-42b8-af41-23ef5690efb5"
          },
          {
            "reference": "urn:uuid:f0623c84-b807-4d36-a0b8-675abbc95cbd"
          }
        ],
        "reasonCode": [
          {
            "coding": [
              {
                "code": "203082005",
                "system": "http://snomed.info/sct",
                "display": "Fibromyalgia"
              }
            ]
          },
          {
            "coding": [
              {
                "code": "239873007",
                "system": "http://snomed.info/sct",
                "display": "Osteoarthritis of knee"
              }
            ]
          },
          {
            "coding": [
              {
                "code": "55822004",
                "system": "http://snomed.info/sct",
                "display": "Hyperlipidemia"
              }
            ]
          },
          {
            "coding": [
              {
                "code": "254837009",
                "system": "http://snomed.info/sct",
                "display": "Malignant neoplasm of breast"
              }
            ]
          },
          {
            "coding": [
              {
                "code": "197927001",
                "system": "http://snomed.info/sct",
                "display": "Recurrent urinary tract infection"
              }
            ]
          }
        ],
        "status": "active",
        "intent": "order",
        "code": {
          "coding": [
            {
              "code": "108252007",
              "system": "http://snomed.info/sct",
              "display": "Laboratory procedure"
            }
          ]
        },
        "subject": {
          "reference": "urn:uuid:6f549e85-e21d-4924-8009-ac999494473f",
          "display": "Eileen Taylor"
        },
        "requester": {
          "reference": "urn:uuid:1fb5f9e7-ae7c-4f16-ba9f-18c521dde629"
        }
      }
    },
    {
      "fullUrl": "urn:uuid:1fb5f9e7-ae7c-4f16-ba9f-18c521dde629",
      "resource": {
        "resourceType": "PractitionerRole",
        "id": "1fb5f9e7-ae7c-4f16-ba9f-18c521dde629",
        "meta": {
          "profile": [
            "http://hl7.eu/fhir/base/StructureDefinition/practitionerRole-eu"
          ]
        },
        "text": {
          "status": "generated",
          "div": "<div xmlns=\"http://www.w3.org/1999/xhtml\">Provider Role Id: 1fb5f9e7-ae7c-4f16-ba9f-18c521dde629</div>"
        },
        "organization": {
          "reference": "urn:uuid:aaf35187-c5c2-435c-b7d4-dc2d47b8d166"
        }
      }
    },
    {
      "fullUrl": "urn:uuid:aaf35187-c5c2-435c-b7d4-dc2d47b8d166",
      "resource": {
        "resourceType": "Organization",
        "id": "aaf35187-c5c2-435c-b7d4-dc2d47b8d166",
        "meta": {
          "profile": [
            "http://hl7.eu/fhir/base/StructureDefinition/organization-eu"
          ]
        },
        "identifier": [
          {
            "assigner": {
              "display": "HL7 Europe"
            },
            "system": "urn:oid:2.16.840.1.113883.2.51.999",
            "value": "d6913455-8f61-4f3d-9243-8eb41da417cc"
          }
        ],
        "address": [
          {
            "city": "Leicester",
            "postalCode": "LE2 7",
            "country": "United Kingdom"
          }
        ],
        "text": {
          "status": "generated",
          "div": "<div xmlns=\"http://www.w3.org/1999/xhtml\">Provider Organization: Leicester Royal Infirmary</div>"
        },
        "name": "Leicester Royal Infirmary"
      }
    },
    {
      "fullUrl": "urn:uuid:19ce2348-5e2f-4c7c-8836-a1cf9b47890a",
      "resource": {
        "resourceType": "Specimen",
        "id": "19ce2348-5e2f-4c7c-8836-a1cf9b47890a",
        "meta": {
          "profile": [
            "http://hl7.eu/fhir/laboratory/StructureDefinition/Specimen-eu-lab"
          ]
        },
        "collection": {
          "collectedDateTime": "2023-04-24"
        },
        "text": {
          "status": "generated",
          "div": "<div xmlns=\"http://www.w3.org/1999/xhtml\"><table class=\"hl7__eu__lab__report\"><tr><th>Specimen</th><th>Collection Date</th></tr><tr><td>Whole blood specimen (specimen)</td><td><span class=\"nb\">24-Apr-2023</span></td></tr></table></div>"
        },
        "type": {
          "coding": [
            {
              "code": "258580003",
              "system": "http://snomed.info/sct",
              "display": "Whole blood specimen (specimen)"
            }
          ]
        }
      }
    },
    {
      "fullUrl": "urn:uuid:63a37bc2-178b-42b8-af41-23ef5690efb5",
      "resource": {
        "resourceType": "Specimen",
        "id": "63a37bc2-178b-42b8-af41-23ef5690efb5",
        "meta": {
          "profile": [
            "http://hl7.eu/fhir/laboratory/StructureDefinition/Specimen-eu-lab"
          ]
        },
        "collection": {
          "collectedDateTime": "2023-04-24"
        },
        "text": {
          "status": "generated",
          "div": "<div xmlns=\"http://www.w3.org/1999/xhtml\"><table class=\"hl7__eu__lab__report\"><tr><th>Specimen</th><th>Collection Date</th></tr><tr><td>Acellular blood (serum or plasma) specimen</td><td><span class=\"nb\">24-Apr-2023</span></td></tr></table></div>"
        },
        "type": {
          "coding": [
            {
              "code": "122592007",
              "system": "http://snomed.info/sct",
              "display": "Acellular blood (serum or plasma) specimen"
            }
          ]
        }
      }
    },
    {
      "fullUrl": "urn:uuid:f0623c84-b807-4d36-a0b8-675abbc95cbd",
      "resource": {
        "resourceType": "Specimen",
        "id": "f0623c84-b807-4d36-a0b8-675abbc95cbd",
        "meta": {
          "profile": [
            "http://hl7.eu/fhir/laboratory/StructureDefinition/Specimen-eu-lab"
          ]
        },
        "collection": {
          "collectedDateTime": "2023-04-24"
        },
        "text": {
          "status": "generated",
          "div": "<div xmlns=\"http://www.w3.org/1999/xhtml\"><table class=\"hl7__eu__lab__report\"><tr><th>Specimen</th><th>Collection Date</th></tr><tr><td>Serum specimen</td><td><span class=\"nb\">24-Apr-2023</span></td></tr></table></div>"
        },
        "type": {
          "coding": [
            {
              "code": "119364003",
              "system": "http://snomed.info/sct",
              "display": "Serum specimen"
            }
          ]
        }
      }
    },
    {
      "fullUrl": "urn:uuid:f275d42c-cee5-415d-b7a4-02a89b62202e",
      "resource": {
        "resourceType": "Observation",
        "id": "f275d42c-cee5-415d-b7a4-02a89b62202e",
        "meta": {
          "profile": [
            "http://hl7.eu/fhir/laboratory/StructureDefinition/Observation-resultslab-eu-lab"
          ]
        },
        "performer": [
          {
            "display": "The Central European Lab"
          }
        ],
        "category": [
          {
            "coding": [
              {
                "system": "http://terminology.hl7.org/CodeSystem/observation-category",
                "code": "laboratory"
              }
            ]
          }
        ],
        "code": {
          "coding": [
            {
              "code": "2339-0",
              "system": "http://loinc.org",
              "display": "Glucose [Mass/volume] in Blood"
            }
          ],
          "text": "Glucose [Mass/volume] in Blood"
        },
        "valueQuantity": {
          "system": "http://unitsofmeasure.org",
          "value": 81.8,
          "unit": "mg/dL",
          "code": "mg/dL"
        },
        "referenceRange": [
          {
            "low": {
              "value": 70,
              "code": "mg/dL",
              "system": "http://unitsofmeasure.org"
            }
          },
          {
            "high": {
              "value": 140,
              "code": "mg/dL",
              "system": "http://unitsofmeasure.org"
            }
          }
        ],
        "text": {
          "status": "generated",
          "div": "<div xmlns=\"http://www.w3.org/1999/xhtml\"><table class=\"hl7__eu__lab__report\"><tr><th>Test</th><th>24-Apr-2023</th><th>Reference&#xA0;Range</th><th>Unit</th></tr><tr><td>Glucose [Mass/volume] in Blood</td><td>81.8</td><td>70 - 140</td><td></td><td>mg/dL</td></tr></table></div>"
        },
        "status": "final",
        "subject": {
          "reference": "urn:uuid:6f549e85-e21d-4924-8009-ac999494473f",
          "display": "Eileen Taylor"
        },
        "effectiveDateTime": "2023-04-24T05:47:02Z",
        "specimen": {
          "reference": "urn:uuid:19ce2348-5e2f-4c7c-8836-a1cf9b47890a"
        }
      }
    },
    {
      "fullUrl": "urn:uuid:ba7acc48-6bb9-4fde-9921-12d178a69177",
      "resource": {
        "resourceType": "Observation",
        "id": "ba7acc48-6bb9-4fde-9921-12d178a69177",
        "meta": {
          "profile": [
            "http://hl7.eu/fhir/laboratory/StructureDefinition/Observation-resultslab-eu-lab"
          ]
        },
        "performer": [
          {
            "display": "The Central European Lab"
          }
        ],
        "category": [
          {
            "coding": [
              {
                "system": "http://terminology.hl7.org/CodeSystem/observation-category",
                "code": "laboratory"
              }
            ]
          }
        ],
        "code": {
          "coding": [
            {
              "code": "6299-2",
              "system": "http://loinc.org",
              "display": "Urea nitrogen [Mass/volume] in Blood"
            }
          ],
          "text": "Urea nitrogen [Mass/volume] in Blood"
        },
        "valueQuantity": {
          "system": "http://unitsofmeasure.org",
          "value": 19.6,
          "unit": "mg/dL",
          "code": "mg/dL"
        },
        "referenceRange": [
          {
            "low": {
              "value": 7,
              "code": "mg/dL",
              "system": "http://unitsofmeasure.org"
            }
          },
          {
            "high": {
              "value": 20,
              "code": "mg/dL",
              "system": "http://unitsofmeasure.org"
            }
          }
        ],
        "text": {
          "status": "generated",
          "div": "<div xmlns=\"http://www.w3.org/1999/xhtml\"><table class=\"hl7__eu__lab__report\"><tr><th>Test</th><th>24-Apr-2023</th><th>Reference&#xA0;Range</th><th>Unit</th></tr><tr><td>Urea nitrogen [Mass/volume] in Blood</td><td>19.6</td><td>7 - 20</td><td></td><td>mg/dL</td></tr></table></div>"
        },
        "status": "final",
        "subject": {
          "reference": "urn:uuid:6f549e85-e21d-4924-8009-ac999494473f",
          "display": "Eileen Taylor"
        },
        "effectiveDateTime": "2023-04-24T05:47:02Z",
        "specimen": {
          "reference": "urn:uuid:19ce2348-5e2f-4c7c-8836-a1cf9b47890a"
        }
      }
    },
    {
      "fullUrl": "urn:uuid:48710ea4-9fa4-4345-8648-c76efd62f44b",
      "resource": {
        "resourceType": "Observation",
        "id": "48710ea4-9fa4-4345-8648-c76efd62f44b",
        "meta": {
          "profile": [
            "http://hl7.eu/fhir/laboratory/StructureDefinition/Observation-resultslab-eu-lab"
          ]
        },
        "performer": [
          {
            "display": "The Central European Lab"
          }
        ],
        "category": [
          {
            "coding": [
              {
                "system": "http://terminology.hl7.org/CodeSystem/observation-category",
                "code": "laboratory"
              }
            ]
          }
        ],
        "code": {
          "coding": [
            {
              "code": "38483-4",
              "system": "http://loinc.org",
              "display": "Creatinine [Mass/volume] in Blood"
            }
          ],
          "text": "Creatinine [Mass/volume] in Blood"
        },
        "valueQuantity": {
          "system": "http://unitsofmeasure.org",
          "value": 3.2,
          "unit": "mg/dL",
          "code": "mg/dL"
        },
        "referenceRange": [
          {
            "low": {
              "value": 0.6,
              "code": "mg/dL",
              "system": "http://unitsofmeasure.org"
            }
          },
          {
            "high": {
              "value": 1.1,
              "code": "mg/dL",
              "system": "http://unitsofmeasure.org"
            }
          }
        ],
        "interpretation": [
          {
            "coding": [
              {
                "code": "H",
                "system": "http://terminology.hl7.org/CodeSystem/v3-ObservationInterpretation",
                "display": "High"
              }
            ]
          }
        ],
        "text": {
          "status": "generated",
          "div": "<div xmlns=\"http://www.w3.org/1999/xhtml\"><table class=\"hl7__eu__lab__report\"><tr><th>Test</th><th>24-Apr-2023</th><th>Reference&#xA0;Range</th><th>Unit</th></tr><tr><td>Creatinine [Mass/volume] in Blood</td><td>3.2</td><td>0.6 - 1.1</td><td>H</td><td>mg/dL</td></tr></table></div>"
        },
        "status": "final",
        "subject": {
          "reference": "urn:uuid:6f549e85-e21d-4924-8009-ac999494473f",
          "display": "Eileen Taylor"
        },
        "effectiveDateTime": "2023-04-24T05:47:02Z",
        "specimen": {
          "reference": "urn:uuid:19ce2348-5e2f-4c7c-8836-a1cf9b47890a"
        }
      }
    },
    {
      "fullUrl": "urn:uuid:594c3797-8a7c-490a-877a-34b42a122c23",
      "resource": {
        "resourceType": "Observation",
        "id": "594c3797-8a7c-490a-877a-34b42a122c23",
        "meta": {
          "profile": [
            "http://hl7.eu/fhir/laboratory/StructureDefinition/Observation-resultslab-eu-lab"
          ]
        },
        "performer": [
          {
            "display": "The Central European Lab"
          }
        ],
        "category": [
          {
            "coding": [
              {
                "system": "http://terminology.hl7.org/CodeSystem/observation-category",
                "code": "laboratory"
              }
            ]
          }
        ],
        "code": {
          "coding": [
            {
              "code": "49765-1",
              "system": "http://loinc.org",
              "display": "Calcium [Mass/volume] in Blood"
            }
          ],
          "text": "Calcium [Mass/volume] in Blood"
        },
        "valueQuantity": {
          "system": "http://unitsofmeasure.org",
          "value": 8.9,
          "unit": "mg/dL",
          "code": "mg/dL"
        },
        "referenceRange": [
          {
            "low": {
              "value": 8.5,
              "code": "mg/dL",
              "system": "http://unitsofmeasure.org"
            }
          },
          {
            "high": {
              "value": 10.4,
              "code": "mg/dL",
              "system": "http://unitsofmeasure.org"
            }
          }
        ],
        "text": {
          "status": "generated",
          "div": "<div xmlns=\"http://www.w3.org/1999/xhtml\"><table class=\"hl7__eu__lab__report\"><tr><th>Test</th><th>24-Apr-2023</th><th>Reference&#xA0;Range</th><th>Unit</th></tr><tr><td>Calcium [Mass/volume] in Blood</td><td>8.9</td><td>8.5 - 10.4</td><td></td><td>mg/dL</td></tr></table></div>"
        },
        "status": "final",
        "subject": {
          "reference": "urn:uuid:6f549e85-e21d-4924-8009-ac999494473f",
          "display": "Eileen Taylor"
        },
        "effectiveDateTime": "2023-04-24T05:47:02Z",
        "specimen": {
          "reference": "urn:uuid:19ce2348-5e2f-4c7c-8836-a1cf9b47890a"
        }
      }
    },
    {
      "fullUrl": "urn:uuid:f3f934f2-b985-4a7e-8deb-824deed97f05",
      "resource": {
        "resourceType": "Observation",
        "id": "f3f934f2-b985-4a7e-8deb-824deed97f05",
        "meta": {
          "profile": [
            "http://hl7.eu/fhir/laboratory/StructureDefinition/Observation-resultslab-eu-lab"
          ]
        },
        "performer": [
          {
            "display": "The Central European Lab"
          }
        ],
        "category": [
          {
            "coding": [
              {
                "system": "http://terminology.hl7.org/CodeSystem/observation-category",
                "code": "laboratory"
              }
            ]
          }
        ],
        "code": {
          "coding": [
            {
              "code": "2947-0",
              "system": "http://loinc.org",
              "display": "Sodium [Moles/volume] in Blood"
            }
          ],
          "text": "Sodium [Moles/volume] in Blood"
        },
        "valueQuantity": {
          "system": "http://unitsofmeasure.org",
          "value": 142.9,
          "unit": "mmol/L",
          "code": "mmol/L"
        },
        "referenceRange": [
          {
            "low": {
              "value": 135,
              "code": "mmol/L",
              "system": "http://unitsofmeasure.org"
            }
          },
          {
            "high": {
              "value": 145,
              "code": "mmol/L",
              "system": "http://unitsofmeasure.org"
            }
          }
        ],
        "text": {
          "status": "generated",
          "div": "<div xmlns=\"http://www.w3.org/1999/xhtml\"><table class=\"hl7__eu__lab__report\"><tr><th>Test</th><th>24-Apr-2023</th><th>Reference&#xA0;Range</th><th>Unit</th></tr><tr><td>Sodium [Moles/volume] in Blood</td><td>142.9</td><td>135 - 145</td><td></td><td>mmol/L</td></tr></table></div>"
        },
        "status": "final",
        "subject": {
          "reference": "urn:uuid:6f549e85-e21d-4924-8009-ac999494473f",
          "display": "Eileen Taylor"
        },
        "effectiveDateTime": "2023-04-24T05:47:02Z",
        "specimen": {
          "reference": "urn:uuid:19ce2348-5e2f-4c7c-8836-a1cf9b47890a"
        }
      }
    },
    {
      "fullUrl": "urn:uuid:069cdc03-24cd-4491-9a49-7778fc54f008",
      "resource": {
        "resourceType": "Observation",
        "id": "069cdc03-24cd-4491-9a49-7778fc54f008",
        "meta": {
          "profile": [
            "http://hl7.eu/fhir/laboratory/StructureDefinition/Observation-resultslab-eu-lab"
          ]
        },
        "performer": [
          {
            "display": "The Central European Lab"
          }
        ],
        "category": [
          {
            "coding": [
              {
                "system": "http://terminology.hl7.org/CodeSystem/observation-category",
                "code": "laboratory"
              }
            ]
          }
        ],
        "code": {
          "coding": [
            {
              "code": "6298-4",
              "system": "http://loinc.org",
              "display": "Potassium [Moles/volume] in Blood"
            }
          ],
          "text": "Potassium [Moles/volume] in Blood"
        },
        "valueQuantity": {
          "system": "http://unitsofmeasure.org",
          "value": 4.9,
          "unit": "mmol/L",
          "code": "mmol/L"
        },
        "referenceRange": [
          {
            "low": {
              "value": 3.5,
              "code": "mmol/L",
              "system": "http://unitsofmeasure.org"
            }
          },
          {
            "high": {
              "value": 5.1,
              "code": "mmol/L",
              "system": "http://unitsofmeasure.org"
            }
          }
        ],
        "text": {
          "status": "generated",
          "div": "<div xmlns=\"http://www.w3.org/1999/xhtml\"><table class=\"hl7__eu__lab__report\"><tr><th>Test</th><th>24-Apr-2023</th><th>Reference&#xA0;Range</th><th>Unit</th></tr><tr><td>Potassium [Moles/volume] in Blood</td><td>4.9</td><td>3.5 - 5.1</td><td></td><td>mmol/L</td></tr></table></div>"
        },
        "status": "final",
        "subject": {
          "reference": "urn:uuid:6f549e85-e21d-4924-8009-ac999494473f",
          "display": "Eileen Taylor"
        },
        "effectiveDateTime": "2023-04-24T05:47:02Z",
        "specimen": {
          "reference": "urn:uuid:19ce2348-5e2f-4c7c-8836-a1cf9b47890a"
        }
      }
    },
    {
      "fullUrl": "urn:uuid:60daa6a8-0fc5-44c0-900a-6a1672d38949",
      "resource": {
        "resourceType": "Observation",
        "id": "60daa6a8-0fc5-44c0-900a-6a1672d38949",
        "meta": {
          "profile": [
            "http://hl7.eu/fhir/laboratory/StructureDefinition/Observation-resultslab-eu-lab"
          ]
        },
        "performer": [
          {
            "display": "The Central European Lab"
          }
        ],
        "category": [
          {
            "coding": [
              {
                "system": "http://terminology.hl7.org/CodeSystem/observation-category",
                "code": "laboratory"
              }
            ]
          }
        ],
        "code": {
          "coding": [
            {
              "code": "2069-3",
              "system": "http://loinc.org",
              "display": "Chloride [Moles/volume] in Blood"
            }
          ],
          "text": "Chloride [Moles/volume] in Blood"
        },
        "valueQuantity": {
          "system": "http://unitsofmeasure.org",
          "value": 109.9,
          "unit": "mmol/L",
          "code": "mmol/L"
        },
        "referenceRange": [
          {
            "low": {
              "value": 98,
              "code": "mmol/L",
              "system": "http://unitsofmeasure.org"
            }
          },
          {
            "high": {
              "value": 108,
              "code": "mmol/L",
              "system": "http://unitsofmeasure.org"
            }
          }
        ],
        "interpretation": [
          {
            "coding": [
              {
                "code": "H",
                "system": "http://terminology.hl7.org/CodeSystem/v3-ObservationInterpretation",
                "display": "High"
              }
            ]
          }
        ],
        "text": {
          "status": "generated",
          "div": "<div xmlns=\"http://www.w3.org/1999/xhtml\"><table class=\"hl7__eu__lab__report\"><tr><th>Test</th><th>24-Apr-2023</th><th>Reference&#xA0;Range</th><th>Unit</th></tr><tr><td>Chloride [Moles/volume] in Blood</td><td>109.9</td><td>98 - 108</td><td>H</td><td>mmol/L</td></tr></table></div>"
        },
        "status": "final",
        "subject": {
          "reference": "urn:uuid:6f549e85-e21d-4924-8009-ac999494473f",
          "display": "Eileen Taylor"
        },
        "effectiveDateTime": "2023-04-24T05:47:02Z",
        "specimen": {
          "reference": "urn:uuid:19ce2348-5e2f-4c7c-8836-a1cf9b47890a"
        }
      }
    },
    {
      "fullUrl": "urn:uuid:70e4b305-35be-41fa-8acf-953a9bc7518b",
      "resource": {
        "resourceType": "Observation",
        "id": "70e4b305-35be-41fa-8acf-953a9bc7518b",
        "meta": {
          "profile": [
            "http://hl7.eu/fhir/laboratory/StructureDefinition/Observation-resultslab-eu-lab"
          ]
        },
        "performer": [
          {
            "display": "The Central European Lab"
          }
        ],
        "category": [
          {
            "coding": [
              {
                "system": "http://terminology.hl7.org/CodeSystem/observation-category",
                "code": "laboratory"
              }
            ]
          }
        ],
        "code": {
          "coding": [
            {
              "code": "20565-8",
              "system": "http://loinc.org",
              "display": "Carbon dioxide, total [Moles/volume] in Blood"
            }
          ],
          "text": "Carbon dioxide, total [Moles/volume] in Blood"
        },
        "valueQuantity": {
          "system": "http://unitsofmeasure.org",
          "value": 26.5,
          "unit": "mmol/L",
          "code": "mmol/L"
        },
        "referenceRange": [
          {
            "low": {
              "value": 22,
              "code": "mmol/L",
              "system": "http://unitsofmeasure.org"
            }
          },
          {
            "high": {
              "value": 29,
              "code": "mmol/L",
              "system": "http://unitsofmeasure.org"
            }
          }
        ],
        "text": {
          "status": "generated",
          "div": "<div xmlns=\"http://www.w3.org/1999/xhtml\"><table class=\"hl7__eu__lab__report\"><tr><th>Test</th><th>24-Apr-2023</th><th>Reference&#xA0;Range</th><th>Unit</th></tr><tr><td>Carbon dioxide, total [Moles/volume] in Blood</td><td>26.5</td><td>22 - 29</td><td></td><td>mmol/L</td></tr></table></div>"
        },
        "status": "final",
        "subject": {
          "reference": "urn:uuid:6f549e85-e21d-4924-8009-ac999494473f",
          "display": "Eileen Taylor"
        },
        "effectiveDateTime": "2023-04-24T05:47:02Z",
        "specimen": {
          "reference": "urn:uuid:19ce2348-5e2f-4c7c-8836-a1cf9b47890a"
        }
      }
    },
    {
      "fullUrl": "urn:uuid:24f6c46d-8a97-47bf-b313-94c630bb5d57",
      "resource": {
        "resourceType": "Observation",
        "id": "24f6c46d-8a97-47bf-b313-94c630bb5d57",
        "meta": {
          "profile": [
            "http://hl7.eu/fhir/laboratory/StructureDefinition/Observation-resultslab-eu-lab"
          ]
        },
        "performer": [
          {
            "display": "The Central European Lab"
          }
        ],
        "category": [
          {
            "coding": [
              {
                "system": "http://terminology.hl7.org/CodeSystem/observation-category",
                "code": "laboratory"
              }
            ]
          }
        ],
        "code": {
          "coding": [
            {
              "code": "2885-2",
              "system": "http://loinc.org",
              "display": "Protein [Mass/volume] in Serum or Plasma"
            }
          ],
          "text": "Protein [Mass/volume] in Serum or Plasma"
        },
        "valueQuantity": {
          "system": "http://unitsofmeasure.org",
          "value": 7.1,
          "unit": "g/dL",
          "code": "g/dL"
        },
        "referenceRange": [
          {
            "low": {
              "value": 6,
              "code": "g/dL",
              "system": "http://unitsofmeasure.org"
            }
          },
          {
            "high": {
              "value": 8.3,
              "code": "g/dL",
              "system": "http://unitsofmeasure.org"
            }
          }
        ],
        "text": {
          "status": "generated",
          "div": "<div xmlns=\"http://www.w3.org/1999/xhtml\"><table class=\"hl7__eu__lab__report\"><tr><th>Test</th><th>24-Apr-2023</th><th>Reference&#xA0;Range</th><th>Unit</th></tr><tr><td>Protein [Mass/volume] in Serum or Plasma</td><td>7.1</td><td>6 - 8.3</td><td></td><td>g/dL</td></tr></table></div>"
        },
        "status": "final",
        "subject": {
          "reference": "urn:uuid:6f549e85-e21d-4924-8009-ac999494473f",
          "display": "Eileen Taylor"
        },
        "effectiveDateTime": "2023-04-24T05:47:02Z",
        "specimen": {
          "reference": "urn:uuid:63a37bc2-178b-42b8-af41-23ef5690efb5"
        }
      }
    },
    {
      "fullUrl": "urn:uuid:84789a51-509e-4192-b8b7-c3696475849e",
      "resource": {
        "resourceType": "Observation",
        "id": "84789a51-509e-4192-b8b7-c3696475849e",
        "meta": {
          "profile": [
            "http://hl7.eu/fhir/laboratory/StructureDefinition/Observation-resultslab-eu-lab"
          ]
        },
        "performer": [
          {
            "display": "The Central European Lab"
          }
        ],
        "category": [
          {
            "coding": [
              {
                "system": "http://terminology.hl7.org/CodeSystem/observation-category",
                "code": "laboratory"
              }
            ]
          }
        ],
        "code": {
          "coding": [
            {
              "code": "1751-7",
              "system": "http://loinc.org",
              "display": "Albumin [Mass/volume] in Serum or Plasma"
            }
          ],
          "text": "Albumin [Mass/volume] in Serum or Plasma"
        },
        "valueQuantity": {
          "system": "http://unitsofmeasure.org",
          "value": 3.8,
          "unit": "g/dL",
          "code": "g/dL"
        },
        "referenceRange": [
          {
            "low": {
              "value": 3.4,
              "code": "g/dL",
              "system": "http://unitsofmeasure.org"
            }
          },
          {
            "high": {
              "value": 5,
              "code": "g/dL",
              "system": "http://unitsofmeasure.org"
            }
          }
        ],
        "text": {
          "status": "generated",
          "div": "<div xmlns=\"http://www.w3.org/1999/xhtml\"><table class=\"hl7__eu__lab__report\"><tr><th>Test</th><th>24-Apr-2023</th><th>Reference&#xA0;Range</th><th>Unit</th></tr><tr><td>Albumin [Mass/volume] in Serum or Plasma</td><td>3.8</td><td>3.4 - 5</td><td></td><td>g/dL</td></tr></table></div>"
        },
        "status": "final",
        "subject": {
          "reference": "urn:uuid:6f549e85-e21d-4924-8009-ac999494473f",
          "display": "Eileen Taylor"
        },
        "effectiveDateTime": "2023-04-24T05:47:02Z",
        "specimen": {
          "reference": "urn:uuid:63a37bc2-178b-42b8-af41-23ef5690efb5"
        }
      }
    },
    {
      "fullUrl": "urn:uuid:40d1f14e-233b-41a8-b763-0b16adb12867",
      "resource": {
        "resourceType": "Observation",
        "id": "40d1f14e-233b-41a8-b763-0b16adb12867",
        "meta": {
          "profile": [
            "http://hl7.eu/fhir/laboratory/StructureDefinition/Observation-resultslab-eu-lab"
          ]
        },
        "performer": [
          {
            "display": "The Central European Lab"
          }
        ],
        "category": [
          {
            "coding": [
              {
                "system": "http://terminology.hl7.org/CodeSystem/observation-category",
                "code": "laboratory"
              }
            ]
          }
        ],
        "code": {
          "coding": [
            {
              "code": "10834-0",
              "system": "http://loinc.org",
              "display": "Globulin [Mass/volume] in Serum by calculation"
            }
          ],
          "text": "Globulin [Mass/volume] in Serum by calculation"
        },
        "valueQuantity": {
          "system": "http://unitsofmeasure.org",
          "value": 2.1,
          "unit": "g/L",
          "code": "g/L"
        },
        "referenceRange": [
          {
            "low": {
              "value": 2,
              "code": "g/L",
              "system": "http://unitsofmeasure.org"
            }
          },
          {
            "high": {
              "value": 3.5,
              "code": "g/L",
              "system": "http://unitsofmeasure.org"
            }
          }
        ],
        "text": {
          "status": "generated",
          "div": "<div xmlns=\"http://www.w3.org/1999/xhtml\"><table class=\"hl7__eu__lab__report\"><tr><th>Test</th><th>24-Apr-2023</th><th>Reference&#xA0;Range</th><th>Unit</th></tr><tr><td>Globulin [Mass/volume] in Serum by calculation</td><td>2.1</td><td>2 - 3.5</td><td></td><td>g/L</td></tr></table></div>"
        },
        "status": "final",
        "subject": {
          "reference": "urn:uuid:6f549e85-e21d-4924-8009-ac999494473f",
          "display": "Eileen Taylor"
        },
        "effectiveDateTime": "2023-04-24T05:47:02Z",
        "specimen": {
          "reference": "urn:uuid:f0623c84-b807-4d36-a0b8-675abbc95cbd"
        }
      }
    },
    {
      "fullUrl": "urn:uuid:69d6b9a6-22a6-4d51-ba99-bac630bf16e0",
      "resource": {
        "resourceType": "Observation",
        "id": "69d6b9a6-22a6-4d51-ba99-bac630bf16e0",
        "meta": {
          "profile": [
            "http://hl7.eu/fhir/laboratory/StructureDefinition/Observation-resultslab-eu-lab"
          ]
        },
        "performer": [
          {
            "display": "The Central European Lab"
          }
        ],
        "category": [
          {
            "coding": [
              {
                "system": "http://terminology.hl7.org/CodeSystem/observation-category",
                "code": "laboratory"
              }
            ]
          }
        ],
        "code": {
          "coding": [
            {
              "code": "1975-2",
              "system": "http://loinc.org",
              "display": "Bilirubin.total [Mass/volume] in Serum or Plasma"
            }
          ],
          "text": "Bilirubin.total [Mass/volume] in Serum or Plasma"
        },
        "valueQuantity": {
          "system": "http://unitsofmeasure.org",
          "value": 0.8,
          "unit": "mg/dL",
          "code": "mg/dL"
        },
        "referenceRange": [
          {
            "low": {
              "value": 0.2,
              "code": "mg/dL",
              "system": "http://unitsofmeasure.org"
            }
          },
          {
            "high": {
              "value": 1.2,
              "code": "mg/dL",
              "system": "http://unitsofmeasure.org"
            }
          }
        ],
        "text": {
          "status": "generated",
          "div": "<div xmlns=\"http://www.w3.org/1999/xhtml\"><table class=\"hl7__eu__lab__report\"><tr><th>Test</th><th>24-Apr-2023</th><th>Reference&#xA0;Range</th><th>Unit</th></tr><tr><td>Bilirubin.total [Mass/volume] in Serum or Plasma</td><td>0.8</td><td>0.2 - 1.2</td><td></td><td>mg/dL</td></tr></table></div>"
        },
        "status": "final",
        "subject": {
          "reference": "urn:uuid:6f549e85-e21d-4924-8009-ac999494473f",
          "display": "Eileen Taylor"
        },
        "effectiveDateTime": "2023-04-24T05:47:02Z",
        "specimen": {
          "reference": "urn:uuid:63a37bc2-178b-42b8-af41-23ef5690efb5"
        }
      }
    },
    {
      "fullUrl": "urn:uuid:0be94979-2f40-44e4-8a95-ef2b32ff3bb0",
      "resource": {
        "resourceType": "Observation",
        "id": "0be94979-2f40-44e4-8a95-ef2b32ff3bb0",
        "meta": {
          "profile": [
            "http://hl7.eu/fhir/laboratory/StructureDefinition/Observation-resultslab-eu-lab"
          ]
        },
        "performer": [
          {
            "display": "The Central European Lab"
          }
        ],
        "category": [
          {
            "coding": [
              {
                "system": "http://terminology.hl7.org/CodeSystem/observation-category",
                "code": "laboratory"
              }
            ]
          }
        ],
        "code": {
          "coding": [
            {
              "code": "6768-6",
              "system": "http://loinc.org",
              "display": "Alkaline phosphatase [Enzymatic activity/volume] in Serum or Plasma"
            }
          ],
          "text": "Alkaline phosphatase [Enzymatic activity/volume] in Serum or Plasma"
        },
        "valueQuantity": {
          "system": "http://unitsofmeasure.org",
          "value": 75.3,
          "unit": "U/L",
          "code": "U/L"
        },
        "referenceRange": [
          {
            "low": {
              "value": 44,
              "code": "U/L",
              "system": "http://unitsofmeasure.org"
            }
          },
          {
            "high": {
              "value": 104,
              "code": "U/L",
              "system": "http://unitsofmeasure.org"
            }
          }
        ],
        "text": {
          "status": "generated",
          "div": "<div xmlns=\"http://www.w3.org/1999/xhtml\"><table class=\"hl7__eu__lab__report\"><tr><th>Test</th><th>24-Apr-2023</th><th>Reference&#xA0;Range</th><th>Unit</th></tr><tr><td>Alkaline phosphatase [Enzymatic activity/volume] in Serum or Plasma</td><td>75.3</td><td>44 - 104</td><td></td><td>U/L</td></tr></table></div>"
        },
        "status": "final",
        "subject": {
          "reference": "urn:uuid:6f549e85-e21d-4924-8009-ac999494473f",
          "display": "Eileen Taylor"
        },
        "effectiveDateTime": "2023-04-24T05:47:02Z",
        "specimen": {
          "reference": "urn:uuid:63a37bc2-178b-42b8-af41-23ef5690efb5"
        }
      }
    },
    {
      "fullUrl": "urn:uuid:3c833432-cef6-461a-bb79-37c2cae0f845",
      "resource": {
        "resourceType": "Observation",
        "id": "3c833432-cef6-461a-bb79-37c2cae0f845",
        "meta": {
          "profile": [
            "http://hl7.eu/fhir/laboratory/StructureDefinition/Observation-resultslab-eu-lab"
          ]
        },
        "performer": [
          {
            "display": "The Central European Lab"
          }
        ],
        "category": [
          {
            "coding": [
              {
                "system": "http://terminology.hl7.org/CodeSystem/observation-category",
                "code": "laboratory"
              }
            ]
          }
        ],
        "code": {
          "coding": [
            {
              "code": "1742-6",
              "system": "http://loinc.org",
              "display": "Alanine aminotransferase [Enzymatic activity/volume] in Serum or Plasma"
            }
          ],
          "text": "Alanine aminotransferase [Enzymatic activity/volume] in Serum or Plasma"
        },
        "valueQuantity": {
          "system": "http://unitsofmeasure.org",
          "value": 21.8,
          "unit": "U/L",
          "code": "U/L"
        },
        "referenceRange": [
          {
            "low": {
              "value": 13,
              "code": "U/L",
              "system": "http://unitsofmeasure.org"
            }
          },
          {
            "high": {
              "value": 36,
              "code": "U/L",
              "system": "http://unitsofmeasure.org"
            }
          }
        ],
        "text": {
          "status": "generated",
          "div": "<div xmlns=\"http://www.w3.org/1999/xhtml\"><table class=\"hl7__eu__lab__report\"><tr><th>Test</th><th>24-Apr-2023</th><th>Reference&#xA0;Range</th><th>Unit</th></tr><tr><td>Alanine aminotransferase [Enzymatic activity/volume] in Serum or Plasma</td><td>21.8</td><td>13 - 36</td><td></td><td>U/L</td></tr></table></div>"
        },
        "status": "final",
        "subject": {
          "reference": "urn:uuid:6f549e85-e21d-4924-8009-ac999494473f",
          "display": "Eileen Taylor"
        },
        "effectiveDateTime": "2023-04-24T05:47:02Z",
        "specimen": {
          "reference": "urn:uuid:63a37bc2-178b-42b8-af41-23ef5690efb5"
        }
      }
    },
    {
      "fullUrl": "urn:uuid:8db7a719-b536-4ab4-b587-923cb0cbd225",
      "resource": {
        "resourceType": "Observation",
        "id": "8db7a719-b536-4ab4-b587-923cb0cbd225",
        "meta": {
          "profile": [
            "http://hl7.eu/fhir/laboratory/StructureDefinition/Observation-resultslab-eu-lab"
          ]
        },
        "performer": [
          {
            "display": "The Central European Lab"
          }
        ],
        "category": [
          {
            "coding": [
              {
                "system": "http://terminology.hl7.org/CodeSystem/observation-category",
                "code": "laboratory"
              }
            ]
          }
        ],
        "code": {
          "coding": [
            {
              "code": "1920-8",
              "system": "http://loinc.org",
              "display": "Aspartate aminotransferase [Enzymatic activity/volume] in Serum or Plasma"
            }
          ],
          "text": "Aspartate aminotransferase [Enzymatic activity/volume] in Serum or Plasma"
        },
        "valueQuantity": {
          "system": "http://unitsofmeasure.org",
          "value": 14.7,
          "unit": "U/L",
          "code": "U/L"
        },
        "referenceRange": [
          {
            "low": {
              "value": 10,
              "code": "U/L",
              "system": "http://unitsofmeasure.org"
            }
          },
          {
            "high": {
              "value": 40,
              "code": "U/L",
              "system": "http://unitsofmeasure.org"
            }
          }
        ],
        "text": {
          "status": "generated",
          "div": "<div xmlns=\"http://www.w3.org/1999/xhtml\"><table class=\"hl7__eu__lab__report\"><tr><th>Test</th><th>24-Apr-2023</th><th>Reference&#xA0;Range</th><th>Unit</th></tr><tr><td>Aspartate aminotransferase [Enzymatic activity/volume] in Serum or Plasma</td><td>14.7</td><td>10 - 40</td><td></td><td>U/L</td></tr></table></div>"
        },
        "status": "final",
        "subject": {
          "reference": "urn:uuid:6f549e85-e21d-4924-8009-ac999494473f",
          "display": "Eileen Taylor"
        },
        "effectiveDateTime": "2023-04-24T05:47:02Z",
        "specimen": {
          "reference": "urn:uuid:63a37bc2-178b-42b8-af41-23ef5690efb5"
        }
      }
    },
    {
      "fullUrl": "urn:uuid:38765825-dad2-4b3a-8956-7a8fcb7c9251",
      "resource": {
        "resourceType": "Observation",
        "id": "38765825-dad2-4b3a-8956-7a8fcb7c9251",
        "meta": {
          "profile": [
            "http://hl7.eu/fhir/laboratory/StructureDefinition/Observation-resultslab-eu-lab"
          ]
        },
        "performer": [
          {
            "display": "The Central European Lab"
          }
        ],
        "category": [
          {
            "coding": [
              {
                "system": "http://terminology.hl7.org/CodeSystem/observation-category",
                "code": "laboratory"
              }
            ]
          }
        ],
        "code": {
          "coding": [
            {
              "code": "2093-3",
              "system": "http://loinc.org",
              "display": "Cholesterol [Mass/volume] in Serum or Plasma"
            }
          ],
          "text": "Cholesterol [Mass/volume] in Serum or Plasma"
        },
        "valueQuantity": {
          "system": "http://unitsofmeasure.org",
          "value": 180.7,
          "unit": "mg/dL",
          "code": "mg/dL"
        },
        "referenceRange": [
          {
            "low": {
              "value": 130,
              "code": "mg/dL",
              "system": "http://unitsofmeasure.org"
            }
          },
          {
            "high": {
              "value": 200,
              "code": "mg/dL",
              "system": "http://unitsofmeasure.org"
            }
          }
        ],
        "text": {
          "status": "generated",
          "div": "<div xmlns=\"http://www.w3.org/1999/xhtml\"><table class=\"hl7__eu__lab__report\"><tr><th>Test</th><th>24-Apr-2023</th><th>Reference&#xA0;Range</th><th>Unit</th></tr><tr><td>Cholesterol [Mass/volume] in Serum or Plasma</td><td>180.7</td><td>130 - 200</td><td></td><td>mg/dL</td></tr></table></div>"
        },
        "status": "final",
        "subject": {
          "reference": "urn:uuid:6f549e85-e21d-4924-8009-ac999494473f",
          "display": "Eileen Taylor"
        },
        "effectiveDateTime": "2023-04-24T05:47:02Z",
        "specimen": {
          "reference": "urn:uuid:63a37bc2-178b-42b8-af41-23ef5690efb5"
        }
      }
    },
    {
      "fullUrl": "urn:uuid:4f41a1c0-b41c-4b39-9819-1669faebf76a",
      "resource": {
        "resourceType": "Observation",
        "id": "4f41a1c0-b41c-4b39-9819-1669faebf76a",
        "meta": {
          "profile": [
            "http://hl7.eu/fhir/laboratory/StructureDefinition/Observation-resultslab-eu-lab"
          ]
        },
        "performer": [
          {
            "display": "The Central European Lab"
          }
        ],
        "category": [
          {
            "coding": [
              {
                "system": "http://terminology.hl7.org/CodeSystem/observation-category",
                "code": "laboratory"
              }
            ]
          }
        ],
        "code": {
          "coding": [
            {
              "code": "2571-8",
              "system": "http://loinc.org",
              "display": "Triglyceride [Mass/volume] in Serum or Plasma"
            }
          ],
          "text": "Triglyceride [Mass/volume] in Serum or Plasma"
        },
        "valueQuantity": {
          "system": "http://unitsofmeasure.org",
          "value": 171.7,
          "unit": "mg/dL",
          "code": "mg/dL"
        },
        "referenceRange": [
          {
            "low": {
              "value": 35,
              "code": "mg/dL",
              "system": "http://unitsofmeasure.org"
            }
          },
          {
            "high": {
              "value": 175,
              "code": "mg/dL",
              "system": "http://unitsofmeasure.org"
            }
          }
        ],
        "text": {
          "status": "generated",
          "div": "<div xmlns=\"http://www.w3.org/1999/xhtml\"><table class=\"hl7__eu__lab__report\"><tr><th>Test</th><th>24-Apr-2023</th><th>Reference&#xA0;Range</th><th>Unit</th></tr><tr><td>Triglyceride [Mass/volume] in Serum or Plasma</td><td>171.7</td><td>35 - 175</td><td></td><td>mg/dL</td></tr></table></div>"
        },
        "status": "final",
        "subject": {
          "reference": "urn:uuid:6f549e85-e21d-4924-8009-ac999494473f",
          "display": "Eileen Taylor"
        },
        "effectiveDateTime": "2023-04-24T05:47:02Z",
        "specimen": {
          "reference": "urn:uuid:63a37bc2-178b-42b8-af41-23ef5690efb5"
        }
      }
    },
    {
      "fullUrl": "urn:uuid:55279e7b-bed4-47d6-bd1e-176a88d1227c",
      "resource": {
        "resourceType": "Observation",
        "id": "55279e7b-bed4-47d6-bd1e-176a88d1227c",
        "meta": {
          "profile": [
            "http://hl7.eu/fhir/laboratory/StructureDefinition/Observation-resultslab-eu-lab"
          ]
        },
        "performer": [
          {
            "display": "The Central European Lab"
          }
        ],
        "category": [
          {
            "coding": [
              {
                "system": "http://terminology.hl7.org/CodeSystem/observation-category",
                "code": "laboratory"
              }
            ]
          }
        ],
        "code": {
          "coding": [
            {
              "code": "18262-6",
              "system": "http://loinc.org",
              "display": "Cholesterol in LDL [Mass/volume] in Serum or Plasma by Direct assay"
            }
          ],
          "text": "Cholesterol in LDL [Mass/volume] in Serum or Plasma by Direct assay"
        },
        "valueQuantity": {
          "system": "http://unitsofmeasure.org",
          "value": 100.7,
          "unit": "mg/dL",
          "code": "mg/dL"
        },
        "referenceRange": [
          {
            "low": {
              "value": 0,
              "code": "mg/dL",
              "system": "http://unitsofmeasure.org"
            }
          },
          {
            "high": {
              "value": 190,
              "code": "mg/dL",
              "system": "http://unitsofmeasure.org"
            }
          }
        ],
        "text": {
          "status": "generated",
          "div": "<div xmlns=\"http://www.w3.org/1999/xhtml\"><table class=\"hl7__eu__lab__report\"><tr><th>Test</th><th>24-Apr-2023</th><th>Reference&#xA0;Range</th><th>Unit</th></tr><tr><td>Cholesterol in LDL [Mass/volume] in Serum or Plasma by Direct assay</td><td>100.7</td><td>0 - 190</td><td></td><td>mg/dL</td></tr></table></div>"
        },
        "status": "final",
        "subject": {
          "reference": "urn:uuid:6f549e85-e21d-4924-8009-ac999494473f",
          "display": "Eileen Taylor"
        },
        "effectiveDateTime": "2023-04-24T05:47:02Z",
        "specimen": {
          "reference": "urn:uuid:63a37bc2-178b-42b8-af41-23ef5690efb5"
        }
      }
    },
    {
      "fullUrl": "urn:uuid:3554cd3a-68e6-4406-acf3-5b9514c4cee4",
      "resource": {
        "resourceType": "Observation",
        "id": "3554cd3a-68e6-4406-acf3-5b9514c4cee4",
        "meta": {
          "profile": [
            "http://hl7.eu/fhir/laboratory/StructureDefinition/Observation-resultslab-eu-lab"
          ]
        },
        "performer": [
          {
            "display": "The Central European Lab"
          }
        ],
        "category": [
          {
            "coding": [
              {
                "system": "http://terminology.hl7.org/CodeSystem/observation-category",
                "code": "laboratory"
              }
            ]
          }
        ],
        "code": {
          "coding": [
            {
              "code": "2085-9",
              "system": "http://loinc.org",
              "display": "Cholesterol in HDL [Mass/volume] in Serum or Plasma"
            }
          ],
          "text": "Cholesterol in HDL [Mass/volume] in Serum or Plasma"
        },
        "valueQuantity": {
          "system": "http://unitsofmeasure.org",
          "value": 66.4,
          "unit": "mg/dL",
          "code": "mg/dL"
        },
        "referenceRange": [
          {
            "low": {
              "value": 50,
              "code": "mg/dL",
              "system": "http://unitsofmeasure.org"
            }
          },
          {
            "high": {
              "value": 100,
              "code": "mg/dL",
              "system": "http://unitsofmeasure.org"
            }
          }
        ],
        "text": {
          "status": "generated",
          "div": "<div xmlns=\"http://www.w3.org/1999/xhtml\"><table class=\"hl7__eu__lab__report\"><tr><th>Test</th><th>24-Apr-2023</th><th>Reference&#xA0;Range</th><th>Unit</th></tr><tr><td>Cholesterol in HDL [Mass/volume] in Serum or Plasma</td><td>66.4</td><td>50 - 100</td><td></td><td>mg/dL</td></tr></table></div>"
        },
        "status": "final",
        "subject": {
          "reference": "urn:uuid:6f549e85-e21d-4924-8009-ac999494473f",
          "display": "Eileen Taylor"
        },
        "effectiveDateTime": "2023-04-24T05:47:02Z",
        "specimen": {
          "reference": "urn:uuid:63a37bc2-178b-42b8-af41-23ef5690efb5"
        }
      }
    },
    {
      "fullUrl": "urn:uuid:33797550-b6d0-43c6-9a36-7072ba9f850b",
      "resource": {
        "resourceType": "Device",
        "id": "33797550-b6d0-43c6-9a36-7072ba9f850b",
        "deviceName": [
          {
            "name": "SYNDERAI Synthetic Generator",
            "type": "manufacturer-name"
          }
        ],
        "version": [
          {
            "value": "5.0"
          }
        ],
        "text": {
          "status": "generated",
          "div": "<div xmlns=\"http://www.w3.org/1999/xhtml\">SYNDERAI Synthetic Generator v5.0</div>"
        },
        "status": "active\"",
        "distinctIdentifier": "synderai-generator-50",
        "manufacturer": "SYNDERAI Project"
      }
    },
    {
      "fullUrl": "urn:uuid:9893b430-ec5e-463a-a797-9677e9dd1359",
      "resource": {
        "resourceType": "Provenance",
        "id": "9893b430-ec5e-463a-a797-9677e9dd1359",
        "target": [
          {
            "reference": "Patient/6f549e85-e21d-4924-8009-ac999494473f"
          },
          {
            "reference": "Bundle/109ab074-58cb-44ec-997a-b27231276a35"
          },
          {
            "reference": "Composition/349c5687-80fa-48e8-9f73-c285916b4de0"
          },
          {
            "reference": "PractitionerRole/30601be3-6795-4182-abc5-45bc8df9f45c"
          },
          {
            "reference": "Practitioner/3d22740f-0ebb-4e73-a797-b3d42eea5989"
          },
          {
            "reference": "PractitionerRole/1fb5f9e7-ae7c-4f16-ba9f-18c521dde629"
          },
          {
            "reference": "Organization/aaf35187-c5c2-435c-b7d4-dc2d47b8d166"
          }
        ],
        "activity": {
          "text": "Synthetic Example Data Generation"
        },
        "policy": [
          "https://synderai.net/synderai-synthetic-data-policy"
        ],
        "agent": [
          {
            "type": {
              "text": "author"
            },
            "who": {
              "reference": "Device/33797550-b6d0-43c6-9a36-7072ba9f850b"
            }
          }
        ],
        "reason": [
          {
            "text": "Interoperability Testing and Training (non-clinical use)"
          }
        ],
        "text": {
          "status": "generated",
          "div": "<div xmlns=\"http://www.w3.org/1999/xhtml\">Provenance for SYNDERAI Synthetic Example Data Resource</div>"
        },
        "recorded": "2023-04-24T07:47:02Z"
      }
    },
    {
      "fullUrl": "urn:uuid:30601be3-6795-4182-abc5-45bc8df9f45c",
      "resource": {
        "resourceType": "PractitionerRole",
        "id": "30601be3-6795-4182-abc5-45bc8df9f45c",
        "meta": {
          "profile": [
            "http://hl7.eu/fhir/base/StructureDefinition/practitionerRole-eu"
          ]
        },
        "text": {
          "status": "generated",
          "div": "<div xmlns=\"http://www.w3.org/1999/xhtml\">Laboratory Role Id: 30601be3-6795-4182-abc5-45bc8df9f45c</div>"
        },
        "practitioner": {
          "reference": "urn:uuid:3d22740f-0ebb-4e73-a797-b3d42eea5989"
        }
      }
    },
    {
      "fullUrl": "urn:uuid:3d22740f-0ebb-4e73-a797-b3d42eea5989",
      "resource": {
        "resourceType": "Practitioner",
        "id": "3d22740f-0ebb-4e73-a797-b3d42eea5989",
        "meta": {
          "profile": [
            "http://hl7.eu/fhir/base/StructureDefinition/practitioner-eu"
          ]
        },
        "identifier": [
          {
            "assigner": {
              "display": "HL7 Europe"
            },
            "system": "urn:oid:2.16.840.1.113883.2.51.999",
            "value": "e38668b5-04cc-444b-bf35-3e3bb7017cb0"
          }
        ],
        "name": [
          {
            "prefix": [
              "dr"
            ],
            "given": [
              "Ex"
            ],
            "family": "Ample"
          }
        ],
        "address": [
          {
            "line": [
              "Laboratoire Central Europenne",
              "Boulevard du Jardin Botanique 32"
            ],
            "postalCode": "1000",
            "city": "Brussels",
            "country": "Belgium"
          }
        ],
        "text": {
          "status": "generated",
          "div": "<div xmlns=\"http://www.w3.org/1999/xhtml\">Laboratory: Laboratoire Central Europenne, 1000 Brussels, Belgium</div>"
        }
      }
    }
  ],
  "type": "document",
  "timestamp": "2023-04-24T07:47:02Z"
}
