{
  "resourceType": "Bundle",
  "id": "96978355-14b2-4427-acef-f5939f30a6cf",
  "meta": {
    "profile": [
      "http://hl7.eu/fhir/laboratory/StructureDefinition/Bundle-eu-lab"
    ]
  },
  "identifier": {
    "assigner": {
      "display": "HL7 Europe"
    },
    "system": "urn:oid:2.16.840.1.113883.2.51.999",
    "value": "9852568a-6e43-4392-9bb3-4462bbfd08a0"
  },
  "entry": [
    {
      "fullUrl": "urn:uuid:8062c196-8bca-4719-bc86-fa677bab82af",
      "resource": {
        "resourceType": "Composition",
        "id": "8062c196-8bca-4719-bc86-fa677bab82af",
        "meta": {
          "profile": [
            "http://hl7.eu/fhir/laboratory/StructureDefinition/Composition-eu-lab"
          ]
        },
        "identifier": {
          "assigner": {
            "display": "HL7 Europe"
          },
          "system": "urn:oid:2.16.840.1.113883.2.51.999",
          "value": "d2baed7b-1ca1-4899-be45-14f603d788d4"
        },
        "author": [
          {
            "reference": "urn:uuid:f6e7b0c3-0aca-45ec-8f3f-bfea3cf2f677"
          }
        ],
        "category": [
          {
            "coding": [
              {
                "code": "26436-6",
                "system": "http://loinc.org",
                "display": "Laboratory studies (set)"
              }
            ]
          }
        ],
        "type": {
          "coding": [
            {
              "code": "11502-2",
              "system": "http://loinc.org",
              "display": "Laboratory report"
            }
          ],
          "text": "Laboratory Report"
        },
        "section": [
          {
            "code": {
              "coding": [
                {
                  "code": "26436-6",
                  "system": "http://loinc.org",
                  "display": "Laboratory studies (set)"
                }
              ],
              "text": "Laboratory studies"
            },
            "section": [
              {
                "code": {
                  "coding": [
                    {
                      "code": "$18719-5",
                      "system": "http://loinc.org",
                      "display": "Chemistry studies (set)"
                    }
                  ],
                  "text": "Chemistry"
                },
                "entry": [
                  {
                    "reference": "urn:uuid:ffb140f7-f8c8-48ff-8d02-01a4d3db0823"
                  },
                  {
                    "reference": "urn:uuid:ed301f57-dbcf-4885-bb98-034ceb283aa5"
                  },
                  {
                    "reference": "urn:uuid:33956539-b836-43e5-a4d9-bbe95ef47300"
                  },
                  {
                    "reference": "urn:uuid:3bd954f2-07bb-4c20-8883-8caf3a4d9885"
                  },
                  {
                    "reference": "urn:uuid:4a08d1e4-5106-459f-b25c-bfe81c818400"
                  },
                  {
                    "reference": "urn:uuid:3cd437ac-3caf-4a57-b9d0-4720e9d87cbc"
                  },
                  {
                    "reference": "urn:uuid:4148abac-f15f-4551-a55a-9ca318cce6e0"
                  },
                  {
                    "reference": "urn:uuid:ff2bbe16-13ad-4416-98cb-838b626c000c"
                  },
                  {
                    "reference": "urn:uuid:e3f7863c-1b8b-4059-9184-f9abddd648e4"
                  },
                  {
                    "reference": "urn:uuid:bd17b913-3df2-4541-a0cc-bd9e3e584ea3"
                  },
                  {
                    "reference": "urn:uuid:d9803dd0-caea-4dcc-af8d-6fa121994662"
                  },
                  {
                    "reference": "urn:uuid:e08fef93-dc4f-4b18-ae94-f3a2a55668f6"
                  },
                  {
                    "reference": "urn:uuid:600e901f-0c7a-4314-a074-0990a02299e3"
                  }
                ],
                "text": {
                  "status": "generated",
                  "div": "<div xmlns=\"http://www.w3.org/1999/xhtml\"><h3>Chemistry</h3><table class=\"hl7__eu__lab__report\"><thead><tr><th>Test</th><th>16-MAY-2018</th><th>Reference&#xA0;Range</th><th>Unit</th></tr></thead><tbody><tr><td>Hemoglobin A1c/Hemoglobin.total in Blood</td><td>6.3</td><td>4.5 - 6.4</td><td>%</td></tr><tr><td>Glucose [Mass/volume] in Blood</td><td>85.6</td><td>70 - 140</td><td>mg/dL</td></tr><tr><td>Urea nitrogen [Mass/volume] in Blood</td><td>9.1</td><td>7 - 20</td><td>mg/dL</td></tr><tr><td>Creatinine [Mass/volume] in Blood</td><td>0.6</td><td>0.6 - 1.1</td><td>mg/dL</td></tr><tr><td>Calcium [Mass/volume] in Blood</td><td>9.1</td><td>8.5 - 10.4</td><td>mg/dL</td></tr><tr><td>Sodium [Moles/volume] in Blood</td><td>136.3</td><td>135 - 145</td><td>mmol/L</td></tr><tr><td>Potassium [Moles/volume] in Blood</td><td>4.4</td><td>3.5 - 5.1</td><td>mmol/L</td></tr><tr><td>Chloride [Moles/volume] in Blood</td><td><strong>108.4 H</strong></td><td>98 - 107</td><td>mmol/L</td></tr><tr><td>Carbon dioxide, total [Moles/volume] in Blood</td><td>25.4</td><td>22 - 29</td><td>mmol/L</td></tr><tr><td>Cholesterol [Mass/volume] in Serum or Plasma</td><td><strong>209.4 H</strong></td><td>125 - 200</td><td>mg/dL</td></tr><tr><td>Triglyceride [Mass/volume] in Serum or Plasma</td><td>143.5</td><td>0 - 150</td><td>mg/dL</td></tr><tr><td>Cholesterol in LDL [Mass/volume] in Serum or Plasma by Direct assay</td><td>126.8</td><td>0 - 130</td><td>mg/dL</td></tr><tr><td>Cholesterol in HDL [Mass/volume] in Serum or Plasma</td><td>53.9</td><td>50 - 100</td><td>mg/dL</td></tr></tbody></table></div>"
                },
                "title": "Chemistry"
              }
            ],
            "title": "Laboratory Report"
          },
          {
            "text": {
              "status": "generated",
              "div": "<div xmlns=\"http://www.w3.org/1999/xhtml\"><h3>Annotation</h3><table class=\"hl7__eu__lab__report\"><tr><th>Conclusion and Recommendations based on this report and previous findings known to us</th></tr><tr><td>All measured values are within or close to normal ranges, except for mildly elevated chloride and total cholesterol. HbA1c is at the upper limit of normal, suggesting good but borderline glycemic control. Lipid profile shows slightly elevated total cholesterol with acceptable LDL and HDL levels. Renal function, electrolytes, and glucose are unremarkable. No acute laboratory concerns; recommend monitoring cholesterol and glycemic control.</td></tr></table></div>"
            },
            "code": {
              "coding": [
                {
                  "system": "http://loinc.org",
                  "code": "48767-8",
                  "display": "Annotation comment"
                }
              ]
            },
            "title": "Annotation comment"
          }
        ],
        "status": "final",
        "subject": {
          "reference": "urn:uuid:ccdfbc74-51bf-4c3a-b444-f608dac71ca3",
          "display": "Magdolna Balog"
        },
        "date": "2018-05-16T15:34:16Z",
        "title": "Laboratory Report",
        "confidentiality": "N"
      }
    },
    {
      "fullUrl": "urn:uuid:2c42e72b-0574-4a0e-bf9c-6812d746e73d",
      "resource": {
        "resourceType": "DiagnosticReport",
        "id": "2c42e72b-0574-4a0e-bf9c-6812d746e73d",
        "meta": {
          "profile": [
            "http://hl7.eu/fhir/laboratory/StructureDefinition/DiagnosticReport-eu-lab"
          ]
        },
        "identifier": [
          {
            "assigner": {
              "display": "HL7 Europe"
            },
            "system": "urn:oid:2.16.840.1.113883.2.51.999",
            "value": "6ac56c61-14f4-4b31-96a7-8cdca277986a"
          }
        ],
        "extension": [
          {
            "url": "http://hl7.org/fhir/5.0/StructureDefinition/extension-DiagnosticReport.composition",
            "valueReference": {
              "reference": "urn:uuid:d2baed7b-1ca1-4899-be45-14f603d788d4"
            }
          }
        ],
        "category": [
          {
            "coding": [
              {
                "code": "26436-6",
                "system": "http://loinc.org",
                "display": "Laboratory studies (set)"
              }
            ]
          }
        ],
        "specimen": [
          {
            "reference": "urn:uuid:77ec2331-d3fb-479e-a6d6-d8193e85b2c4"
          },
          {
            "reference": "urn:uuid:823592bc-fac2-4a17-abd1-536fc431fdbd"
          }
        ],
        "result": [
          {
            "reference": "urn:uuid:ffb140f7-f8c8-48ff-8d02-01a4d3db0823"
          },
          {
            "reference": "urn:uuid:ed301f57-dbcf-4885-bb98-034ceb283aa5"
          },
          {
            "reference": "urn:uuid:33956539-b836-43e5-a4d9-bbe95ef47300"
          },
          {
            "reference": "urn:uuid:3bd954f2-07bb-4c20-8883-8caf3a4d9885"
          },
          {
            "reference": "urn:uuid:4a08d1e4-5106-459f-b25c-bfe81c818400"
          },
          {
            "reference": "urn:uuid:3cd437ac-3caf-4a57-b9d0-4720e9d87cbc"
          },
          {
            "reference": "urn:uuid:4148abac-f15f-4551-a55a-9ca318cce6e0"
          },
          {
            "reference": "urn:uuid:ff2bbe16-13ad-4416-98cb-838b626c000c"
          },
          {
            "reference": "urn:uuid:e3f7863c-1b8b-4059-9184-f9abddd648e4"
          },
          {
            "reference": "urn:uuid:bd17b913-3df2-4541-a0cc-bd9e3e584ea3"
          },
          {
            "reference": "urn:uuid:d9803dd0-caea-4dcc-af8d-6fa121994662"
          },
          {
            "reference": "urn:uuid:e08fef93-dc4f-4b18-ae94-f3a2a55668f6"
          },
          {
            "reference": "urn:uuid:600e901f-0c7a-4314-a074-0990a02299e3"
          }
        ],
        "status": "registered",
        "code": {
          "coding": [
            {
              "code": "11502-2",
              "system": "http://loinc.org",
              "display": "Laboratory report"
            }
          ]
        },
        "subject": {
          "reference": "urn:uuid:ccdfbc74-51bf-4c3a-b444-f608dac71ca3",
          "display": "Magdolna Balog"
        }
      }
    },
    {
      "fullUrl": "urn:uuid:ccdfbc74-51bf-4c3a-b444-f608dac71ca3",
      "resource": {
        "resourceType": "Patient",
        "id": "ccdfbc74-51bf-4c3a-b444-f608dac71ca3",
        "meta": {
          "security": [
            {
              "system": "http://terminology.hl7.org/CodeSystem/v3-ActReason",
              "code": "HTEST"
            },
            {
              "system": "http://terminology.hl7.org/CodeSystem/v3-ActReason",
              "code": "TRAIN"
            }
          ],
          "tag": [
            {
              "system": "https://synderai.net/fhir/CodeSystem/tags",
              "code": "synthetic",
              "display": "SYNDERAI Synthetic data"
            }
          ],
          "profile": [
            "http://hl7.eu/fhir/base/StructureDefinition/patient-eu-core"
          ]
        },
        "identifier": [
          {
            "type": {
              "coding": [
                {
                  "code": "PT",
                  "system": "http://terminology.hl7.org/CodeSystem/v2-0203"
                }
              ]
            },
            "system": "http://ec.europa.eu/identifier/eci",
            "value": "2437-386280-4"
          },
          {
            "type": {
              "coding": [
                {
                  "code": "MR",
                  "system": "http://terminology.hl7.org/CodeSystem/v2-0203"
                }
              ]
            },
            "system": "http://local.setting.eu/identifier",
            "value": "1d8dc8c5-3a85-b1b5-4101-cca776d0be28"
          }
        ],
        "name": [
          {
            "family": "Balog"
          },
          {
            "given": [
              "Magdolna"
            ]
          },
          {
            "text": "Magdolna Balog"
          }
        ],
        "address": [
          {
            "line": [
              "Ady endre utca 160."
            ],
            "use": "home",
            "type": "physical",
            "postalCode": "3989",
            "city": "Némethídfa",
            "country": "Hungary"
          }
        ],
        "telecom": [
          {
            "system": "phone",
            "value": "+36 46 091-2914"
          }
        ],
        "extension": [
          {
            "url": "http://hl7.org/fhir/StructureDefinition/patient-nationality",
            "valueCodeableConcept": {
              "coding": [
                {
                  "code": "HU",
                  "system": "http://hl7.org/fhir/ValueSet/country"
                }
              ]
            }
          }
        ],
        "text": {
          "status": "generated",
          "div": "<div xmlns=\"http://www.w3.org/1999/xhtml\"><table class=\"hl7__ips\"><tr><td>Magdolna Balog</td><td>female</td><td>21-May-1946</td></tr></table></div>"
        },
        "gender": "female",
        "birthDate": "1946-05-21"
      }
    },
    {
      "fullUrl": "urn:uuid:cc0d8708-155a-405b-be36-8e1bb093e804",
      "resource": {
        "resourceType": "ServiceRequest",
        "id": "cc0d8708-155a-405b-be36-8e1bb093e804",
        "meta": {
          "profile": [
            "http://hl7.eu/fhir/laboratory/StructureDefinition/ServiceRequest-eu-lab"
          ]
        },
        "identifier": [
          {
            "system": "http://example.org",
            "value": "25961292-9726-48c8-bcfe-1c21f7903c9c"
          }
        ],
        "specimen": [
          {
            "reference": "urn:uuid:77ec2331-d3fb-479e-a6d6-d8193e85b2c4"
          },
          {
            "reference": "urn:uuid:823592bc-fac2-4a17-abd1-536fc431fdbd"
          }
        ],
        "reasonCode": [
          {
            "coding": [
              {
                "code": "26929004",
                "system": "http://snomed.info/sct",
                "display": "Alzheimer&#039;s disease"
              }
            ]
          },
          {
            "coding": [
              {
                "code": "414545008",
                "system": "http://snomed.info/sct",
                "display": "Ischemic heart disease"
              }
            ]
          },
          {
            "coding": [
              {
                "code": "49436004",
                "system": "http://snomed.info/sct",
                "display": "Atrial fibrillation"
              }
            ]
          },
          {
            "coding": [
              {
                "code": "64859006",
                "system": "http://snomed.info/sct",
                "display": "Osteoporosis"
              }
            ]
          },
          {
            "coding": [
              {
                "code": "15777000",
                "system": "http://snomed.info/sct",
                "display": "Prediabetes"
              }
            ]
          },
          {
            "coding": [
              {
                "code": "271737000",
                "system": "http://snomed.info/sct",
                "display": "Anemia"
              }
            ]
          }
        ],
        "status": "active",
        "intent": "order",
        "code": {
          "coding": [
            {
              "code": "108252007",
              "system": "http://snomed.info/sct",
              "display": "Laboratory procedure"
            }
          ]
        },
        "subject": {
          "reference": "urn:uuid:ccdfbc74-51bf-4c3a-b444-f608dac71ca3",
          "display": "Magdolna Balog"
        },
        "requester": {
          "reference": "urn:uuid:560bcc75-6d0b-41e3-aa9a-ee94cf6960e4"
        }
      }
    },
    {
      "fullUrl": "urn:uuid:560bcc75-6d0b-41e3-aa9a-ee94cf6960e4",
      "resource": {
        "resourceType": "PractitionerRole",
        "id": "560bcc75-6d0b-41e3-aa9a-ee94cf6960e4",
        "meta": {
          "profile": [
            "http://hl7.eu/fhir/base/StructureDefinition/practitionerRole-eu"
          ]
        },
        "text": {
          "status": "generated",
          "div": "<div xmlns=\"http://www.w3.org/1999/xhtml\">Provider Role Id: 560bcc75-6d0b-41e3-aa9a-ee94cf6960e4</div>"
        },
        "organization": {
          "reference": "urn:uuid:51318001-1878-4518-8d99-3a912a5a9d72"
        }
      }
    },
    {
      "fullUrl": "urn:uuid:51318001-1878-4518-8d99-3a912a5a9d72",
      "resource": {
        "resourceType": "Organization",
        "id": "51318001-1878-4518-8d99-3a912a5a9d72",
        "meta": {
          "profile": [
            "http://hl7.eu/fhir/base/StructureDefinition/organization-eu"
          ]
        },
        "identifier": [
          {
            "assigner": {
              "display": "HL7 Europe"
            },
            "system": "urn:oid:2.16.840.1.113883.2.51.999",
            "value": "091c3882-696e-4a7b-b219-d86884104a7f"
          }
        ],
        "address": [
          {
            "line": [
              "Csabai kapu 9-11"
            ],
            "city": "Miskolc",
            "postalCode": "3529",
            "country": "Hungary"
          }
        ],
        "text": {
          "status": "generated",
          "div": "<div xmlns=\"http://www.w3.org/1999/xhtml\">Provider Organization: Semmelweis Ignác Egészségügyi Központ és Egyetemi Oktató Kórház</div>"
        },
        "name": "Semmelweis Ignác Egészségügyi Központ és Egyetemi Oktató Kórház"
      }
    },
    {
      "fullUrl": "urn:uuid:77ec2331-d3fb-479e-a6d6-d8193e85b2c4",
      "resource": {
        "resourceType": "Specimen",
        "id": "77ec2331-d3fb-479e-a6d6-d8193e85b2c4",
        "meta": {
          "profile": [
            "http://hl7.eu/fhir/laboratory/StructureDefinition/Specimen-eu-lab"
          ]
        },
        "collection": {
          "collectedDateTime": "2018-05-16"
        },
        "text": {
          "status": "generated",
          "div": "<div xmlns=\"http://www.w3.org/1999/xhtml\"><table class=\"hl7__eu__lab__report\"><tr><th>Specimen</th><th>Collection Date</th></tr><tr><td>Whole blood specimen (specimen)</td><td><span class=\"nb\">16-May-2018</span></td></tr></table></div>"
        },
        "type": {
          "coding": [
            {
              "code": "258580003",
              "system": "http://snomed.info/sct",
              "display": "Whole blood specimen (specimen)"
            }
          ]
        }
      }
    },
    {
      "fullUrl": "urn:uuid:823592bc-fac2-4a17-abd1-536fc431fdbd",
      "resource": {
        "resourceType": "Specimen",
        "id": "823592bc-fac2-4a17-abd1-536fc431fdbd",
        "meta": {
          "profile": [
            "http://hl7.eu/fhir/laboratory/StructureDefinition/Specimen-eu-lab"
          ]
        },
        "collection": {
          "collectedDateTime": "2018-05-16"
        },
        "text": {
          "status": "generated",
          "div": "<div xmlns=\"http://www.w3.org/1999/xhtml\"><table class=\"hl7__eu__lab__report\"><tr><th>Specimen</th><th>Collection Date</th></tr><tr><td>Acellular blood (serum or plasma) specimen</td><td><span class=\"nb\">16-May-2018</span></td></tr></table></div>"
        },
        "type": {
          "coding": [
            {
              "code": "122592007",
              "system": "http://snomed.info/sct",
              "display": "Acellular blood (serum or plasma) specimen"
            }
          ]
        }
      }
    },
    {
      "fullUrl": "urn:uuid:ffb140f7-f8c8-48ff-8d02-01a4d3db0823",
      "resource": {
        "resourceType": "Observation",
        "id": "ffb140f7-f8c8-48ff-8d02-01a4d3db0823",
        "meta": {
          "profile": [
            "http://hl7.eu/fhir/laboratory/StructureDefinition/Observation-resultslab-eu-lab"
          ]
        },
        "performer": [
          {
            "display": "The Central European Lab"
          }
        ],
        "category": [
          {
            "coding": [
              {
                "system": "http://terminology.hl7.org/CodeSystem/observation-category",
                "code": "laboratory"
              }
            ]
          }
        ],
        "code": {
          "coding": [
            {
              "code": "4548-4",
              "system": "http://loinc.org",
              "display": "Hemoglobin A1c/Hemoglobin.total in Blood"
            }
          ],
          "text": "Hemoglobin A1c/Hemoglobin.total in Blood"
        },
        "valueQuantity": {
          "system": "http://unitsofmeasure.org",
          "value": 6.3,
          "unit": "%",
          "code": "%"
        },
        "referenceRange": [
          {
            "low": {
              "value": 4.5,
              "code": "%",
              "system": "http://unitsofmeasure.org"
            }
          },
          {
            "high": {
              "value": 6.4,
              "code": "%",
              "system": "http://unitsofmeasure.org"
            }
          }
        ],
        "text": {
          "status": "generated",
          "div": "<div xmlns=\"http://www.w3.org/1999/xhtml\"><table class=\"hl7__eu__lab__report\"><tr><th>Test</th><th>16-May-2018</th><th>Reference&#xA0;Range</th><th>Unit</th></tr><tr><td>Hemoglobin A1c/Hemoglobin.total in Blood</td><td>6.3</td><td>4.5 - 6.4</td><td></td><td>%</td></tr></table></div>"
        },
        "status": "final",
        "subject": {
          "reference": "urn:uuid:ccdfbc74-51bf-4c3a-b444-f608dac71ca3",
          "display": "Magdolna Balog"
        },
        "effectiveDateTime": "2018-05-16T13:34:16Z",
        "specimen": {
          "reference": "urn:uuid:77ec2331-d3fb-479e-a6d6-d8193e85b2c4"
        }
      }
    },
    {
      "fullUrl": "urn:uuid:ed301f57-dbcf-4885-bb98-034ceb283aa5",
      "resource": {
        "resourceType": "Observation",
        "id": "ed301f57-dbcf-4885-bb98-034ceb283aa5",
        "meta": {
          "profile": [
            "http://hl7.eu/fhir/laboratory/StructureDefinition/Observation-resultslab-eu-lab"
          ]
        },
        "performer": [
          {
            "display": "The Central European Lab"
          }
        ],
        "category": [
          {
            "coding": [
              {
                "system": "http://terminology.hl7.org/CodeSystem/observation-category",
                "code": "laboratory"
              }
            ]
          }
        ],
        "code": {
          "coding": [
            {
              "code": "2339-0",
              "system": "http://loinc.org",
              "display": "Glucose [Mass/volume] in Blood"
            }
          ],
          "text": "Glucose [Mass/volume] in Blood"
        },
        "valueQuantity": {
          "system": "http://unitsofmeasure.org",
          "value": 85.6,
          "unit": "mg/dL",
          "code": "mg/dL"
        },
        "referenceRange": [
          {
            "low": {
              "value": 70,
              "code": "mg/dL",
              "system": "http://unitsofmeasure.org"
            }
          },
          {
            "high": {
              "value": 140,
              "code": "mg/dL",
              "system": "http://unitsofmeasure.org"
            }
          }
        ],
        "text": {
          "status": "generated",
          "div": "<div xmlns=\"http://www.w3.org/1999/xhtml\"><table class=\"hl7__eu__lab__report\"><tr><th>Test</th><th>16-May-2018</th><th>Reference&#xA0;Range</th><th>Unit</th></tr><tr><td>Glucose [Mass/volume] in Blood</td><td>85.6</td><td>70 - 140</td><td></td><td>mg/dL</td></tr></table></div>"
        },
        "status": "final",
        "subject": {
          "reference": "urn:uuid:ccdfbc74-51bf-4c3a-b444-f608dac71ca3",
          "display": "Magdolna Balog"
        },
        "effectiveDateTime": "2018-05-16T13:34:16Z",
        "specimen": {
          "reference": "urn:uuid:77ec2331-d3fb-479e-a6d6-d8193e85b2c4"
        }
      }
    },
    {
      "fullUrl": "urn:uuid:33956539-b836-43e5-a4d9-bbe95ef47300",
      "resource": {
        "resourceType": "Observation",
        "id": "33956539-b836-43e5-a4d9-bbe95ef47300",
        "meta": {
          "profile": [
            "http://hl7.eu/fhir/laboratory/StructureDefinition/Observation-resultslab-eu-lab"
          ]
        },
        "performer": [
          {
            "display": "The Central European Lab"
          }
        ],
        "category": [
          {
            "coding": [
              {
                "system": "http://terminology.hl7.org/CodeSystem/observation-category",
                "code": "laboratory"
              }
            ]
          }
        ],
        "code": {
          "coding": [
            {
              "code": "6299-2",
              "system": "http://loinc.org",
              "display": "Urea nitrogen [Mass/volume] in Blood"
            }
          ],
          "text": "Urea nitrogen [Mass/volume] in Blood"
        },
        "valueQuantity": {
          "system": "http://unitsofmeasure.org",
          "value": 9.1,
          "unit": "mg/dL",
          "code": "mg/dL"
        },
        "referenceRange": [
          {
            "low": {
              "value": 7,
              "code": "mg/dL",
              "system": "http://unitsofmeasure.org"
            }
          },
          {
            "high": {
              "value": 20,
              "code": "mg/dL",
              "system": "http://unitsofmeasure.org"
            }
          }
        ],
        "text": {
          "status": "generated",
          "div": "<div xmlns=\"http://www.w3.org/1999/xhtml\"><table class=\"hl7__eu__lab__report\"><tr><th>Test</th><th>16-May-2018</th><th>Reference&#xA0;Range</th><th>Unit</th></tr><tr><td>Urea nitrogen [Mass/volume] in Blood</td><td>9.1</td><td>7 - 20</td><td></td><td>mg/dL</td></tr></table></div>"
        },
        "status": "final",
        "subject": {
          "reference": "urn:uuid:ccdfbc74-51bf-4c3a-b444-f608dac71ca3",
          "display": "Magdolna Balog"
        },
        "effectiveDateTime": "2018-05-16T13:34:16Z",
        "specimen": {
          "reference": "urn:uuid:77ec2331-d3fb-479e-a6d6-d8193e85b2c4"
        }
      }
    },
    {
      "fullUrl": "urn:uuid:3bd954f2-07bb-4c20-8883-8caf3a4d9885",
      "resource": {
        "resourceType": "Observation",
        "id": "3bd954f2-07bb-4c20-8883-8caf3a4d9885",
        "meta": {
          "profile": [
            "http://hl7.eu/fhir/laboratory/StructureDefinition/Observation-resultslab-eu-lab"
          ]
        },
        "performer": [
          {
            "display": "The Central European Lab"
          }
        ],
        "category": [
          {
            "coding": [
              {
                "system": "http://terminology.hl7.org/CodeSystem/observation-category",
                "code": "laboratory"
              }
            ]
          }
        ],
        "code": {
          "coding": [
            {
              "code": "38483-4",
              "system": "http://loinc.org",
              "display": "Creatinine [Mass/volume] in Blood"
            }
          ],
          "text": "Creatinine [Mass/volume] in Blood"
        },
        "valueQuantity": {
          "system": "http://unitsofmeasure.org",
          "value": 0.6,
          "unit": "mg/dL",
          "code": "mg/dL"
        },
        "referenceRange": [
          {
            "low": {
              "value": 0.6,
              "code": "mg/dL",
              "system": "http://unitsofmeasure.org"
            }
          },
          {
            "high": {
              "value": 1.1,
              "code": "mg/dL",
              "system": "http://unitsofmeasure.org"
            }
          }
        ],
        "text": {
          "status": "generated",
          "div": "<div xmlns=\"http://www.w3.org/1999/xhtml\"><table class=\"hl7__eu__lab__report\"><tr><th>Test</th><th>16-May-2018</th><th>Reference&#xA0;Range</th><th>Unit</th></tr><tr><td>Creatinine [Mass/volume] in Blood</td><td>0.6</td><td>0.6 - 1.1</td><td></td><td>mg/dL</td></tr></table></div>"
        },
        "status": "final",
        "subject": {
          "reference": "urn:uuid:ccdfbc74-51bf-4c3a-b444-f608dac71ca3",
          "display": "Magdolna Balog"
        },
        "effectiveDateTime": "2018-05-16T13:34:16Z",
        "specimen": {
          "reference": "urn:uuid:77ec2331-d3fb-479e-a6d6-d8193e85b2c4"
        }
      }
    },
    {
      "fullUrl": "urn:uuid:4a08d1e4-5106-459f-b25c-bfe81c818400",
      "resource": {
        "resourceType": "Observation",
        "id": "4a08d1e4-5106-459f-b25c-bfe81c818400",
        "meta": {
          "profile": [
            "http://hl7.eu/fhir/laboratory/StructureDefinition/Observation-resultslab-eu-lab"
          ]
        },
        "performer": [
          {
            "display": "The Central European Lab"
          }
        ],
        "category": [
          {
            "coding": [
              {
                "system": "http://terminology.hl7.org/CodeSystem/observation-category",
                "code": "laboratory"
              }
            ]
          }
        ],
        "code": {
          "coding": [
            {
              "code": "49765-1",
              "system": "http://loinc.org",
              "display": "Calcium [Mass/volume] in Blood"
            }
          ],
          "text": "Calcium [Mass/volume] in Blood"
        },
        "valueQuantity": {
          "system": "http://unitsofmeasure.org",
          "value": 9.1,
          "unit": "mg/dL",
          "code": "mg/dL"
        },
        "referenceRange": [
          {
            "low": {
              "value": 8.5,
              "code": "mg/dL",
              "system": "http://unitsofmeasure.org"
            }
          },
          {
            "high": {
              "value": 10.4,
              "code": "mg/dL",
              "system": "http://unitsofmeasure.org"
            }
          }
        ],
        "text": {
          "status": "generated",
          "div": "<div xmlns=\"http://www.w3.org/1999/xhtml\"><table class=\"hl7__eu__lab__report\"><tr><th>Test</th><th>16-May-2018</th><th>Reference&#xA0;Range</th><th>Unit</th></tr><tr><td>Calcium [Mass/volume] in Blood</td><td>9.1</td><td>8.5 - 10.4</td><td></td><td>mg/dL</td></tr></table></div>"
        },
        "status": "final",
        "subject": {
          "reference": "urn:uuid:ccdfbc74-51bf-4c3a-b444-f608dac71ca3",
          "display": "Magdolna Balog"
        },
        "effectiveDateTime": "2018-05-16T13:34:16Z",
        "specimen": {
          "reference": "urn:uuid:77ec2331-d3fb-479e-a6d6-d8193e85b2c4"
        }
      }
    },
    {
      "fullUrl": "urn:uuid:3cd437ac-3caf-4a57-b9d0-4720e9d87cbc",
      "resource": {
        "resourceType": "Observation",
        "id": "3cd437ac-3caf-4a57-b9d0-4720e9d87cbc",
        "meta": {
          "profile": [
            "http://hl7.eu/fhir/laboratory/StructureDefinition/Observation-resultslab-eu-lab"
          ]
        },
        "performer": [
          {
            "display": "The Central European Lab"
          }
        ],
        "category": [
          {
            "coding": [
              {
                "system": "http://terminology.hl7.org/CodeSystem/observation-category",
                "code": "laboratory"
              }
            ]
          }
        ],
        "code": {
          "coding": [
            {
              "code": "2947-0",
              "system": "http://loinc.org",
              "display": "Sodium [Moles/volume] in Blood"
            }
          ],
          "text": "Sodium [Moles/volume] in Blood"
        },
        "valueQuantity": {
          "system": "http://unitsofmeasure.org",
          "value": 136.3,
          "unit": "mmol/L",
          "code": "mmol/L"
        },
        "referenceRange": [
          {
            "low": {
              "value": 135,
              "code": "mmol/L",
              "system": "http://unitsofmeasure.org"
            }
          },
          {
            "high": {
              "value": 145,
              "code": "mmol/L",
              "system": "http://unitsofmeasure.org"
            }
          }
        ],
        "text": {
          "status": "generated",
          "div": "<div xmlns=\"http://www.w3.org/1999/xhtml\"><table class=\"hl7__eu__lab__report\"><tr><th>Test</th><th>16-May-2018</th><th>Reference&#xA0;Range</th><th>Unit</th></tr><tr><td>Sodium [Moles/volume] in Blood</td><td>136.3</td><td>135 - 145</td><td></td><td>mmol/L</td></tr></table></div>"
        },
        "status": "final",
        "subject": {
          "reference": "urn:uuid:ccdfbc74-51bf-4c3a-b444-f608dac71ca3",
          "display": "Magdolna Balog"
        },
        "effectiveDateTime": "2018-05-16T13:34:16Z",
        "specimen": {
          "reference": "urn:uuid:77ec2331-d3fb-479e-a6d6-d8193e85b2c4"
        }
      }
    },
    {
      "fullUrl": "urn:uuid:4148abac-f15f-4551-a55a-9ca318cce6e0",
      "resource": {
        "resourceType": "Observation",
        "id": "4148abac-f15f-4551-a55a-9ca318cce6e0",
        "meta": {
          "profile": [
            "http://hl7.eu/fhir/laboratory/StructureDefinition/Observation-resultslab-eu-lab"
          ]
        },
        "performer": [
          {
            "display": "The Central European Lab"
          }
        ],
        "category": [
          {
            "coding": [
              {
                "system": "http://terminology.hl7.org/CodeSystem/observation-category",
                "code": "laboratory"
              }
            ]
          }
        ],
        "code": {
          "coding": [
            {
              "code": "6298-4",
              "system": "http://loinc.org",
              "display": "Potassium [Moles/volume] in Blood"
            }
          ],
          "text": "Potassium [Moles/volume] in Blood"
        },
        "valueQuantity": {
          "system": "http://unitsofmeasure.org",
          "value": 4.4,
          "unit": "mmol/L",
          "code": "mmol/L"
        },
        "referenceRange": [
          {
            "low": {
              "value": 3.5,
              "code": "mmol/L",
              "system": "http://unitsofmeasure.org"
            }
          },
          {
            "high": {
              "value": 5.1,
              "code": "mmol/L",
              "system": "http://unitsofmeasure.org"
            }
          }
        ],
        "text": {
          "status": "generated",
          "div": "<div xmlns=\"http://www.w3.org/1999/xhtml\"><table class=\"hl7__eu__lab__report\"><tr><th>Test</th><th>16-May-2018</th><th>Reference&#xA0;Range</th><th>Unit</th></tr><tr><td>Potassium [Moles/volume] in Blood</td><td>4.4</td><td>3.5 - 5.1</td><td></td><td>mmol/L</td></tr></table></div>"
        },
        "status": "final",
        "subject": {
          "reference": "urn:uuid:ccdfbc74-51bf-4c3a-b444-f608dac71ca3",
          "display": "Magdolna Balog"
        },
        "effectiveDateTime": "2018-05-16T13:34:16Z",
        "specimen": {
          "reference": "urn:uuid:77ec2331-d3fb-479e-a6d6-d8193e85b2c4"
        }
      }
    },
    {
      "fullUrl": "urn:uuid:ff2bbe16-13ad-4416-98cb-838b626c000c",
      "resource": {
        "resourceType": "Observation",
        "id": "ff2bbe16-13ad-4416-98cb-838b626c000c",
        "meta": {
          "profile": [
            "http://hl7.eu/fhir/laboratory/StructureDefinition/Observation-resultslab-eu-lab"
          ]
        },
        "performer": [
          {
            "display": "The Central European Lab"
          }
        ],
        "category": [
          {
            "coding": [
              {
                "system": "http://terminology.hl7.org/CodeSystem/observation-category",
                "code": "laboratory"
              }
            ]
          }
        ],
        "code": {
          "coding": [
            {
              "code": "2069-3",
              "system": "http://loinc.org",
              "display": "Chloride [Moles/volume] in Blood"
            }
          ],
          "text": "Chloride [Moles/volume] in Blood"
        },
        "valueQuantity": {
          "system": "http://unitsofmeasure.org",
          "value": 108.4,
          "unit": "mmol/L",
          "code": "mmol/L"
        },
        "referenceRange": [
          {
            "low": {
              "value": 98,
              "code": "mmol/L",
              "system": "http://unitsofmeasure.org"
            }
          },
          {
            "high": {
              "value": 107,
              "code": "mmol/L",
              "system": "http://unitsofmeasure.org"
            }
          }
        ],
        "interpretation": [
          {
            "coding": [
              {
                "code": "H",
                "system": "http://terminology.hl7.org/CodeSystem/v3-ObservationInterpretation",
                "display": "High"
              }
            ]
          }
        ],
        "text": {
          "status": "generated",
          "div": "<div xmlns=\"http://www.w3.org/1999/xhtml\"><table class=\"hl7__eu__lab__report\"><tr><th>Test</th><th>16-May-2018</th><th>Reference&#xA0;Range</th><th>Unit</th></tr><tr><td>Chloride [Moles/volume] in Blood</td><td>108.4</td><td>98 - 107</td><td>H</td><td>mmol/L</td></tr></table></div>"
        },
        "status": "final",
        "subject": {
          "reference": "urn:uuid:ccdfbc74-51bf-4c3a-b444-f608dac71ca3",
          "display": "Magdolna Balog"
        },
        "effectiveDateTime": "2018-05-16T13:34:16Z",
        "specimen": {
          "reference": "urn:uuid:77ec2331-d3fb-479e-a6d6-d8193e85b2c4"
        }
      }
    },
    {
      "fullUrl": "urn:uuid:e3f7863c-1b8b-4059-9184-f9abddd648e4",
      "resource": {
        "resourceType": "Observation",
        "id": "e3f7863c-1b8b-4059-9184-f9abddd648e4",
        "meta": {
          "profile": [
            "http://hl7.eu/fhir/laboratory/StructureDefinition/Observation-resultslab-eu-lab"
          ]
        },
        "performer": [
          {
            "display": "The Central European Lab"
          }
        ],
        "category": [
          {
            "coding": [
              {
                "system": "http://terminology.hl7.org/CodeSystem/observation-category",
                "code": "laboratory"
              }
            ]
          }
        ],
        "code": {
          "coding": [
            {
              "code": "20565-8",
              "system": "http://loinc.org",
              "display": "Carbon dioxide, total [Moles/volume] in Blood"
            }
          ],
          "text": "Carbon dioxide, total [Moles/volume] in Blood"
        },
        "valueQuantity": {
          "system": "http://unitsofmeasure.org",
          "value": 25.4,
          "unit": "mmol/L",
          "code": "mmol/L"
        },
        "referenceRange": [
          {
            "low": {
              "value": 22,
              "code": "mmol/L",
              "system": "http://unitsofmeasure.org"
            }
          },
          {
            "high": {
              "value": 29,
              "code": "mmol/L",
              "system": "http://unitsofmeasure.org"
            }
          }
        ],
        "text": {
          "status": "generated",
          "div": "<div xmlns=\"http://www.w3.org/1999/xhtml\"><table class=\"hl7__eu__lab__report\"><tr><th>Test</th><th>16-May-2018</th><th>Reference&#xA0;Range</th><th>Unit</th></tr><tr><td>Carbon dioxide, total [Moles/volume] in Blood</td><td>25.4</td><td>22 - 29</td><td></td><td>mmol/L</td></tr></table></div>"
        },
        "status": "final",
        "subject": {
          "reference": "urn:uuid:ccdfbc74-51bf-4c3a-b444-f608dac71ca3",
          "display": "Magdolna Balog"
        },
        "effectiveDateTime": "2018-05-16T13:34:16Z",
        "specimen": {
          "reference": "urn:uuid:77ec2331-d3fb-479e-a6d6-d8193e85b2c4"
        }
      }
    },
    {
      "fullUrl": "urn:uuid:bd17b913-3df2-4541-a0cc-bd9e3e584ea3",
      "resource": {
        "resourceType": "Observation",
        "id": "bd17b913-3df2-4541-a0cc-bd9e3e584ea3",
        "meta": {
          "profile": [
            "http://hl7.eu/fhir/laboratory/StructureDefinition/Observation-resultslab-eu-lab"
          ]
        },
        "performer": [
          {
            "display": "The Central European Lab"
          }
        ],
        "category": [
          {
            "coding": [
              {
                "system": "http://terminology.hl7.org/CodeSystem/observation-category",
                "code": "laboratory"
              }
            ]
          }
        ],
        "code": {
          "coding": [
            {
              "code": "2093-3",
              "system": "http://loinc.org",
              "display": "Cholesterol [Mass/volume] in Serum or Plasma"
            }
          ],
          "text": "Cholesterol [Mass/volume] in Serum or Plasma"
        },
        "valueQuantity": {
          "system": "http://unitsofmeasure.org",
          "value": 209.4,
          "unit": "mg/dL",
          "code": "mg/dL"
        },
        "referenceRange": [
          {
            "low": {
              "value": 125,
              "code": "mg/dL",
              "system": "http://unitsofmeasure.org"
            }
          },
          {
            "high": {
              "value": 200,
              "code": "mg/dL",
              "system": "http://unitsofmeasure.org"
            }
          }
        ],
        "interpretation": [
          {
            "coding": [
              {
                "code": "H",
                "system": "http://terminology.hl7.org/CodeSystem/v3-ObservationInterpretation",
                "display": "High"
              }
            ]
          }
        ],
        "text": {
          "status": "generated",
          "div": "<div xmlns=\"http://www.w3.org/1999/xhtml\"><table class=\"hl7__eu__lab__report\"><tr><th>Test</th><th>16-May-2018</th><th>Reference&#xA0;Range</th><th>Unit</th></tr><tr><td>Cholesterol [Mass/volume] in Serum or Plasma</td><td>209.4</td><td>125 - 200</td><td>H</td><td>mg/dL</td></tr></table></div>"
        },
        "status": "final",
        "subject": {
          "reference": "urn:uuid:ccdfbc74-51bf-4c3a-b444-f608dac71ca3",
          "display": "Magdolna Balog"
        },
        "effectiveDateTime": "2018-05-16T13:34:16Z",
        "specimen": {
          "reference": "urn:uuid:823592bc-fac2-4a17-abd1-536fc431fdbd"
        }
      }
    },
    {
      "fullUrl": "urn:uuid:d9803dd0-caea-4dcc-af8d-6fa121994662",
      "resource": {
        "resourceType": "Observation",
        "id": "d9803dd0-caea-4dcc-af8d-6fa121994662",
        "meta": {
          "profile": [
            "http://hl7.eu/fhir/laboratory/StructureDefinition/Observation-resultslab-eu-lab"
          ]
        },
        "performer": [
          {
            "display": "The Central European Lab"
          }
        ],
        "category": [
          {
            "coding": [
              {
                "system": "http://terminology.hl7.org/CodeSystem/observation-category",
                "code": "laboratory"
              }
            ]
          }
        ],
        "code": {
          "coding": [
            {
              "code": "2571-8",
              "system": "http://loinc.org",
              "display": "Triglyceride [Mass/volume] in Serum or Plasma"
            }
          ],
          "text": "Triglyceride [Mass/volume] in Serum or Plasma"
        },
        "valueQuantity": {
          "system": "http://unitsofmeasure.org",
          "value": 143.5,
          "unit": "mg/dL",
          "code": "mg/dL"
        },
        "referenceRange": [
          {
            "low": {
              "value": 0,
              "code": "mg/dL",
              "system": "http://unitsofmeasure.org"
            }
          },
          {
            "high": {
              "value": 150,
              "code": "mg/dL",
              "system": "http://unitsofmeasure.org"
            }
          }
        ],
        "text": {
          "status": "generated",
          "div": "<div xmlns=\"http://www.w3.org/1999/xhtml\"><table class=\"hl7__eu__lab__report\"><tr><th>Test</th><th>16-May-2018</th><th>Reference&#xA0;Range</th><th>Unit</th></tr><tr><td>Triglyceride [Mass/volume] in Serum or Plasma</td><td>143.5</td><td>0 - 150</td><td></td><td>mg/dL</td></tr></table></div>"
        },
        "status": "final",
        "subject": {
          "reference": "urn:uuid:ccdfbc74-51bf-4c3a-b444-f608dac71ca3",
          "display": "Magdolna Balog"
        },
        "effectiveDateTime": "2018-05-16T13:34:16Z",
        "specimen": {
          "reference": "urn:uuid:823592bc-fac2-4a17-abd1-536fc431fdbd"
        }
      }
    },
    {
      "fullUrl": "urn:uuid:e08fef93-dc4f-4b18-ae94-f3a2a55668f6",
      "resource": {
        "resourceType": "Observation",
        "id": "e08fef93-dc4f-4b18-ae94-f3a2a55668f6",
        "meta": {
          "profile": [
            "http://hl7.eu/fhir/laboratory/StructureDefinition/Observation-resultslab-eu-lab"
          ]
        },
        "performer": [
          {
            "display": "The Central European Lab"
          }
        ],
        "category": [
          {
            "coding": [
              {
                "system": "http://terminology.hl7.org/CodeSystem/observation-category",
                "code": "laboratory"
              }
            ]
          }
        ],
        "code": {
          "coding": [
            {
              "code": "18262-6",
              "system": "http://loinc.org",
              "display": "Cholesterol in LDL [Mass/volume] in Serum or Plasma by Direct assay"
            }
          ],
          "text": "Cholesterol in LDL [Mass/volume] in Serum or Plasma by Direct assay"
        },
        "valueQuantity": {
          "system": "http://unitsofmeasure.org",
          "value": 126.8,
          "unit": "mg/dL",
          "code": "mg/dL"
        },
        "referenceRange": [
          {
            "low": {
              "value": 0,
              "code": "mg/dL",
              "system": "http://unitsofmeasure.org"
            }
          },
          {
            "high": {
              "value": 130,
              "code": "mg/dL",
              "system": "http://unitsofmeasure.org"
            }
          }
        ],
        "text": {
          "status": "generated",
          "div": "<div xmlns=\"http://www.w3.org/1999/xhtml\"><table class=\"hl7__eu__lab__report\"><tr><th>Test</th><th>16-May-2018</th><th>Reference&#xA0;Range</th><th>Unit</th></tr><tr><td>Cholesterol in LDL [Mass/volume] in Serum or Plasma by Direct assay</td><td>126.8</td><td>0 - 130</td><td></td><td>mg/dL</td></tr></table></div>"
        },
        "status": "final",
        "subject": {
          "reference": "urn:uuid:ccdfbc74-51bf-4c3a-b444-f608dac71ca3",
          "display": "Magdolna Balog"
        },
        "effectiveDateTime": "2018-05-16T13:34:16Z",
        "specimen": {
          "reference": "urn:uuid:823592bc-fac2-4a17-abd1-536fc431fdbd"
        }
      }
    },
    {
      "fullUrl": "urn:uuid:600e901f-0c7a-4314-a074-0990a02299e3",
      "resource": {
        "resourceType": "Observation",
        "id": "600e901f-0c7a-4314-a074-0990a02299e3",
        "meta": {
          "profile": [
            "http://hl7.eu/fhir/laboratory/StructureDefinition/Observation-resultslab-eu-lab"
          ]
        },
        "performer": [
          {
            "display": "The Central European Lab"
          }
        ],
        "category": [
          {
            "coding": [
              {
                "system": "http://terminology.hl7.org/CodeSystem/observation-category",
                "code": "laboratory"
              }
            ]
          }
        ],
        "code": {
          "coding": [
            {
              "code": "2085-9",
              "system": "http://loinc.org",
              "display": "Cholesterol in HDL [Mass/volume] in Serum or Plasma"
            }
          ],
          "text": "Cholesterol in HDL [Mass/volume] in Serum or Plasma"
        },
        "valueQuantity": {
          "system": "http://unitsofmeasure.org",
          "value": 53.9,
          "unit": "mg/dL",
          "code": "mg/dL"
        },
        "referenceRange": [
          {
            "low": {
              "value": 50,
              "code": "mg/dL",
              "system": "http://unitsofmeasure.org"
            }
          },
          {
            "high": {
              "value": 100,
              "code": "mg/dL",
              "system": "http://unitsofmeasure.org"
            }
          }
        ],
        "text": {
          "status": "generated",
          "div": "<div xmlns=\"http://www.w3.org/1999/xhtml\"><table class=\"hl7__eu__lab__report\"><tr><th>Test</th><th>16-May-2018</th><th>Reference&#xA0;Range</th><th>Unit</th></tr><tr><td>Cholesterol in HDL [Mass/volume] in Serum or Plasma</td><td>53.9</td><td>50 - 100</td><td></td><td>mg/dL</td></tr></table></div>"
        },
        "status": "final",
        "subject": {
          "reference": "urn:uuid:ccdfbc74-51bf-4c3a-b444-f608dac71ca3",
          "display": "Magdolna Balog"
        },
        "effectiveDateTime": "2018-05-16T13:34:16Z",
        "specimen": {
          "reference": "urn:uuid:823592bc-fac2-4a17-abd1-536fc431fdbd"
        }
      }
    },
    {
      "fullUrl": "urn:uuid:afc4ab2f-b14c-4518-96e3-0f74c9ce83c7",
      "resource": {
        "resourceType": "Device",
        "id": "afc4ab2f-b14c-4518-96e3-0f74c9ce83c7",
        "deviceName": [
          {
            "name": "SYNDERAI Synthetic Generator",
            "type": "manufacturer-name"
          }
        ],
        "version": [
          {
            "value": "5.0"
          }
        ],
        "text": {
          "status": "generated",
          "div": "<div xmlns=\"http://www.w3.org/1999/xhtml\">SYNDERAI Synthetic Generator v5.0</div>"
        },
        "status": "active\"",
        "distinctIdentifier": "synderai-generator-50",
        "manufacturer": "SYNDERAI Project"
      }
    },
    {
      "fullUrl": "urn:uuid:6df953d4-0504-4995-8cf3-602fcdef4f59",
      "resource": {
        "resourceType": "Provenance",
        "id": "6df953d4-0504-4995-8cf3-602fcdef4f59",
        "target": [
          {
            "reference": "Patient/ccdfbc74-51bf-4c3a-b444-f608dac71ca3"
          },
          {
            "reference": "Bundle/96978355-14b2-4427-acef-f5939f30a6cf"
          },
          {
            "reference": "Composition/8062c196-8bca-4719-bc86-fa677bab82af"
          },
          {
            "reference": "PractitionerRole/f6e7b0c3-0aca-45ec-8f3f-bfea3cf2f677"
          },
          {
            "reference": "Practitioner/51aedd14-2ac1-464f-b8a4-78590073e0d0"
          },
          {
            "reference": "PractitionerRole/560bcc75-6d0b-41e3-aa9a-ee94cf6960e4"
          },
          {
            "reference": "Organization/51318001-1878-4518-8d99-3a912a5a9d72"
          }
        ],
        "activity": {
          "text": "Synthetic Example Data Generation"
        },
        "policy": [
          "https://synderai.net/synderai-synthetic-data-policy"
        ],
        "agent": [
          {
            "type": {
              "text": "author"
            },
            "who": {
              "reference": "Device/afc4ab2f-b14c-4518-96e3-0f74c9ce83c7"
            }
          }
        ],
        "reason": [
          {
            "text": "Interoperability Testing and Training (non-clinical use)"
          }
        ],
        "text": {
          "status": "generated",
          "div": "<div xmlns=\"http://www.w3.org/1999/xhtml\">Provenance for SYNDERAI Synthetic Example Data Resource</div>"
        },
        "recorded": "2018-05-16T15:34:16Z"
      }
    },
    {
      "fullUrl": "urn:uuid:f6e7b0c3-0aca-45ec-8f3f-bfea3cf2f677",
      "resource": {
        "resourceType": "PractitionerRole",
        "id": "f6e7b0c3-0aca-45ec-8f3f-bfea3cf2f677",
        "meta": {
          "profile": [
            "http://hl7.eu/fhir/base/StructureDefinition/practitionerRole-eu"
          ]
        },
        "text": {
          "status": "generated",
          "div": "<div xmlns=\"http://www.w3.org/1999/xhtml\">Laboratory Role Id: f6e7b0c3-0aca-45ec-8f3f-bfea3cf2f677</div>"
        },
        "practitioner": {
          "reference": "urn:uuid:51aedd14-2ac1-464f-b8a4-78590073e0d0"
        }
      }
    },
    {
      "fullUrl": "urn:uuid:51aedd14-2ac1-464f-b8a4-78590073e0d0",
      "resource": {
        "resourceType": "Practitioner",
        "id": "51aedd14-2ac1-464f-b8a4-78590073e0d0",
        "meta": {
          "profile": [
            "http://hl7.eu/fhir/base/StructureDefinition/practitioner-eu"
          ]
        },
        "identifier": [
          {
            "assigner": {
              "display": "HL7 Europe"
            },
            "system": "urn:oid:2.16.840.1.113883.2.51.999",
            "value": "5f03efac-9f5b-4856-81b8-31281da49162"
          }
        ],
        "name": [
          {
            "prefix": [
              "dr"
            ],
            "given": [
              "Ex"
            ],
            "family": "Ample"
          }
        ],
        "address": [
          {
            "line": [
              "Laboratoire Central Européenne",
              "Boulevard du Jardin Botanique 32"
            ],
            "postalCode": "1000",
            "city": "Brussels",
            "country": "Belgium"
          }
        ],
        "text": {
          "status": "generated",
          "div": "<div xmlns=\"http://www.w3.org/1999/xhtml\">Laboratory: Laboratoire Central Européenne, 1000 Brussels, Belgium</div>"
        }
      }
    }
  ],
  "type": "document",
  "timestamp": "2018-05-16T15:34:16Z"
}
