{
  "resourceType": "Bundle",
  "id": "4a68b89e-2d4c-419a-a888-74994dd44480",
  "meta": {
    "profile": [
      "http://hl7.eu/fhir/laboratory/StructureDefinition/Bundle-eu-lab"
    ]
  },
  "identifier": {
    "assigner": {
      "display": "HL7 Europe"
    },
    "system": "urn:oid:2.16.840.1.113883.2.51.999",
    "value": "8364b89f-b029-477d-93a0-20243f20f809"
  },
  "entry": [
    {
      "fullUrl": "urn:uuid:fe68ab08-558c-47de-ba8c-d62a3d4e88ed",
      "resource": {
        "resourceType": "Composition",
        "id": "fe68ab08-558c-47de-ba8c-d62a3d4e88ed",
        "meta": {
          "profile": [
            "http://hl7.eu/fhir/laboratory/StructureDefinition/Composition-eu-lab"
          ]
        },
        "identifier": {
          "assigner": {
            "display": "HL7 Europe"
          },
          "system": "urn:oid:2.16.840.1.113883.2.51.999",
          "value": "342966e5-cc5f-49db-8dfd-cc844067da12"
        },
        "author": [
          {
            "reference": "urn:uuid:0e4be945-7084-48e9-8518-307e81a523f5"
          }
        ],
        "category": [
          {
            "coding": [
              {
                "code": "26436-6",
                "system": "http://loinc.org",
                "display": "Laboratory studies (set)"
              }
            ]
          }
        ],
        "type": {
          "coding": [
            {
              "code": "11502-2",
              "system": "http://loinc.org",
              "display": "Laboratory report"
            }
          ],
          "text": "Laboratory Report"
        },
        "section": [
          {
            "code": {
              "coding": [
                {
                  "code": "26436-6",
                  "system": "http://loinc.org",
                  "display": "Laboratory studies (set)"
                }
              ],
              "text": "Laboratory studies"
            },
            "section": [
              {
                "code": {
                  "coding": [
                    {
                      "code": "$18723-7",
                      "system": "http://loinc.org",
                      "display": "Hematology studies (set)"
                    }
                  ],
                  "text": "Hematology"
                },
                "entry": [
                  {
                    "reference": "urn:uuid:ded4f3c7-7c7c-4f19-93e1-5374377594b5"
                  },
                  {
                    "reference": "urn:uuid:7812ac5e-e491-4c2d-8f4e-4c2e2587e093"
                  },
                  {
                    "reference": "urn:uuid:3ae9c4c5-de2f-4f15-b298-4487a978eaa2"
                  },
                  {
                    "reference": "urn:uuid:25e1ed2d-15bc-49a5-8711-4568a44722de"
                  },
                  {
                    "reference": "urn:uuid:bcce2925-1cbb-4902-ab1f-d2254b2ca4b3"
                  },
                  {
                    "reference": "urn:uuid:59cbc286-7f07-4a4e-b4dc-475752611874"
                  },
                  {
                    "reference": "urn:uuid:df5670fd-510d-4a10-b0cb-688a84e61b33"
                  },
                  {
                    "reference": "urn:uuid:96acb745-6560-40e0-b512-13264607e889"
                  },
                  {
                    "reference": "urn:uuid:dc1bf1ac-a057-4c87-8879-7b500b4e8a1a"
                  },
                  {
                    "reference": "urn:uuid:48fe1072-381f-479c-8369-962d332abeaf"
                  },
                  {
                    "reference": "urn:uuid:e8257530-2154-40b2-b92c-5bc486d2005a"
                  }
                ],
                "text": {
                  "status": "generated",
                  "div": "<div xmlns=\"http://www.w3.org/1999/xhtml\"><h3>Hematology</h3><table class=\"hl7__eu__lab__report\"><thead><tr><th>Test</th><th>27-JAN-2018</th><th>Reference&#xA0;Range</th><th>Unit</th></tr></thead><tbody><tr><td>Leukocytes [#/volume] in Blood by Automated count</td><td>5.3</td><td>3.4 - 10.5</td><td>10*3/uL</td></tr><tr><td>Erythrocytes [#/volume] in Blood by Automated count</td><td>4.3</td><td>4.2 - 5.2</td><td>10*6/uL</td></tr><tr><td>Hemoglobin [Mass/volume] in Blood</td><td>12.7</td><td>12 - 16</td><td>g/dL</td></tr><tr><td>Hematocrit [Volume Fraction] of Blood by Automated count</td><td>44.7</td><td>38 - 54</td><td>%</td></tr><tr><td>MCV [Entitic volume] by Automated count</td><td>94.2</td><td>82 - 98</td><td>fL</td></tr><tr><td>MCH [Entitic mass] by Automated count</td><td>32.7</td><td>27 - 33</td><td>pg</td></tr><tr><td>MCHC [Mass/volume] by Automated count</td><td>35.1</td><td>32 - 35.5</td><td>g/dL</td></tr><tr><td>Erythrocyte distribution width [Entitic volume] by Automated count</td><td>40.6</td><td>36 - 56</td><td>fL</td></tr><tr><td>Platelets [#/volume] in Blood by Automated count</td><td>400.4</td><td>150 - 450</td><td>10*3/uL</td></tr><tr><td>Platelet distribution width [Entitic volume] in Blood by Automated count</td><td>165.3</td><td>150 - 450</td><td>fL</td></tr><tr><td>Platelet mean volume [Entitic volume] in Blood by Automated count</td><td>11.4</td><td>7.4 - 13.8</td><td>fL</td></tr></tbody></table></div>"
                },
                "title": "Hematology"
              },
              {
                "code": {
                  "coding": [
                    {
                      "code": "$18719-5",
                      "system": "http://loinc.org",
                      "display": "Chemistry studies (set)"
                    }
                  ],
                  "text": "Chemistry"
                },
                "entry": [
                  {
                    "reference": "urn:uuid:71f43f82-e660-4647-a28d-fcfdd3a87fe9"
                  },
                  {
                    "reference": "urn:uuid:3f170c53-0961-4fcc-a59c-0915b6ed8a83"
                  },
                  {
                    "reference": "urn:uuid:fb42a18b-534d-4eb0-8e05-51a5991f3180"
                  },
                  {
                    "reference": "urn:uuid:2faa3137-e451-4de9-a94d-798f9b4a43d0"
                  },
                  {
                    "reference": "urn:uuid:7f8a55dc-408c-42ac-a8be-bd1d2b4c37e4"
                  },
                  {
                    "reference": "urn:uuid:d3b1a1f4-48ec-4c87-9c0f-efa957488e21"
                  },
                  {
                    "reference": "urn:uuid:6ca862fd-a655-43d2-9bd5-76a7063cacc8"
                  },
                  {
                    "reference": "urn:uuid:082d19d5-457f-4ae6-b3f6-d0ab32e895e9"
                  },
                  {
                    "reference": "urn:uuid:c837a8c6-38ee-4058-a858-7c4240bb4ba7"
                  }
                ],
                "text": {
                  "status": "generated",
                  "div": "<div xmlns=\"http://www.w3.org/1999/xhtml\"><h3>Chemistry</h3><table class=\"hl7__eu__lab__report\"><thead><tr><th>Test</th><th>27-JAN-2018</th><th>Reference&#xA0;Range</th><th>Unit</th></tr></thead><tbody><tr><td>Hemoglobin A1c/Hemoglobin.total in Blood</td><td><strong>6.1 H</strong></td><td>4 - 6</td><td>%</td></tr><tr><td>Glucose [Mass/volume] in Blood</td><td>91.8</td><td>70 - 140</td><td>mg/dL</td></tr><tr><td>Urea nitrogen [Mass/volume] in Blood</td><td>17.2</td><td>7 - 45</td><td>mg/dL</td></tr><tr><td>Creatinine [Mass/volume] in Blood</td><td><strong>1.3 H</strong></td><td>0.6 - 1.1</td><td>mg/dL</td></tr><tr><td>Calcium [Mass/volume] in Blood</td><td>9.3</td><td>8.5 - 10.5</td><td>mg/dL</td></tr><tr><td>Sodium [Moles/volume] in Blood</td><td>137.4</td><td>135 - 145</td><td>mmol/L</td></tr><tr><td>Potassium [Moles/volume] in Blood</td><td>4.0</td><td>3.5 - 5.1</td><td>mmol/L</td></tr><tr><td>Chloride [Moles/volume] in Blood</td><td><strong>107.2 H</strong></td><td>98 - 107</td><td>mmol/L</td></tr><tr><td>Carbon dioxide, total [Moles/volume] in Blood</td><td>22.1</td><td>22 - 32</td><td>mmol/L</td></tr></tbody></table></div>"
                },
                "title": "Chemistry"
              }
            ],
            "title": "Laboratory Report"
          },
          {
            "text": {
              "status": "generated",
              "div": "<div xmlns=\"http://www.w3.org/1999/xhtml\"><h3>Annotation</h3><table class=\"hl7__eu__lab__report\"><tr><th>Conclusion and Recommendations based on this report and previous findings known to us</th></tr><tr><td>The patient shows mildly elevated HbA1c (6.1%), suggesting impaired glucose tolerance or early diabetes. Creatinine is slightly elevated, indicating possible mild renal impairment. Chloride is marginally high but likely not clinically significant. Other parameters, including blood counts, electrolytes, and metabolic markers, are within normal limits. Recommend clinical correlation and monitoring of glycemic control and renal function.</td></tr></table></div>"
            },
            "code": {
              "coding": [
                {
                  "system": "http://loinc.org",
                  "code": "48767-8",
                  "display": "Annotation comment"
                }
              ]
            },
            "title": "Annotation comment"
          }
        ],
        "status": "final",
        "subject": {
          "reference": "urn:uuid:678bc19c-9e97-4cf7-bc87-1331b497ac39",
          "display": "Lydia Ward"
        },
        "date": "2018-01-27T00:08:09Z",
        "title": "Laboratory Report",
        "confidentiality": "N"
      }
    },
    {
      "fullUrl": "urn:uuid:838d5b82-c643-4cb0-a484-5b79b4229bc7",
      "resource": {
        "resourceType": "DiagnosticReport",
        "id": "838d5b82-c643-4cb0-a484-5b79b4229bc7",
        "meta": {
          "profile": [
            "http://hl7.eu/fhir/laboratory/StructureDefinition/DiagnosticReport-eu-lab"
          ]
        },
        "identifier": [
          {
            "assigner": {
              "display": "HL7 Europe"
            },
            "system": "urn:oid:2.16.840.1.113883.2.51.999",
            "value": "fa29a0c1-f510-4479-8ca4-5fd9700fea3e"
          }
        ],
        "extension": [
          {
            "url": "http://hl7.org/fhir/5.0/StructureDefinition/extension-DiagnosticReport.composition",
            "valueReference": {
              "reference": "urn:uuid:342966e5-cc5f-49db-8dfd-cc844067da12"
            }
          }
        ],
        "category": [
          {
            "coding": [
              {
                "code": "26436-6",
                "system": "http://loinc.org",
                "display": "Laboratory studies (set)"
              }
            ]
          }
        ],
        "specimen": [
          {
            "reference": "urn:uuid:698987dc-75ed-4670-a585-e8bc0cd5361f"
          },
          {
            "reference": "urn:uuid:698987dc-75ed-4670-a585-e8bc0cd5361f"
          }
        ],
        "result": [
          {
            "reference": "urn:uuid:71f43f82-e660-4647-a28d-fcfdd3a87fe9"
          },
          {
            "reference": "urn:uuid:3f170c53-0961-4fcc-a59c-0915b6ed8a83"
          },
          {
            "reference": "urn:uuid:fb42a18b-534d-4eb0-8e05-51a5991f3180"
          },
          {
            "reference": "urn:uuid:2faa3137-e451-4de9-a94d-798f9b4a43d0"
          },
          {
            "reference": "urn:uuid:7f8a55dc-408c-42ac-a8be-bd1d2b4c37e4"
          },
          {
            "reference": "urn:uuid:d3b1a1f4-48ec-4c87-9c0f-efa957488e21"
          },
          {
            "reference": "urn:uuid:6ca862fd-a655-43d2-9bd5-76a7063cacc8"
          },
          {
            "reference": "urn:uuid:082d19d5-457f-4ae6-b3f6-d0ab32e895e9"
          },
          {
            "reference": "urn:uuid:c837a8c6-38ee-4058-a858-7c4240bb4ba7"
          },
          {
            "reference": "urn:uuid:ded4f3c7-7c7c-4f19-93e1-5374377594b5"
          },
          {
            "reference": "urn:uuid:7812ac5e-e491-4c2d-8f4e-4c2e2587e093"
          },
          {
            "reference": "urn:uuid:3ae9c4c5-de2f-4f15-b298-4487a978eaa2"
          },
          {
            "reference": "urn:uuid:25e1ed2d-15bc-49a5-8711-4568a44722de"
          },
          {
            "reference": "urn:uuid:bcce2925-1cbb-4902-ab1f-d2254b2ca4b3"
          },
          {
            "reference": "urn:uuid:59cbc286-7f07-4a4e-b4dc-475752611874"
          },
          {
            "reference": "urn:uuid:df5670fd-510d-4a10-b0cb-688a84e61b33"
          },
          {
            "reference": "urn:uuid:96acb745-6560-40e0-b512-13264607e889"
          },
          {
            "reference": "urn:uuid:dc1bf1ac-a057-4c87-8879-7b500b4e8a1a"
          },
          {
            "reference": "urn:uuid:48fe1072-381f-479c-8369-962d332abeaf"
          },
          {
            "reference": "urn:uuid:e8257530-2154-40b2-b92c-5bc486d2005a"
          }
        ],
        "status": "registered",
        "code": {
          "coding": [
            {
              "code": "11502-2",
              "system": "http://loinc.org",
              "display": "Laboratory report"
            }
          ]
        },
        "subject": {
          "reference": "urn:uuid:678bc19c-9e97-4cf7-bc87-1331b497ac39",
          "display": "Lydia Ward"
        }
      }
    },
    {
      "fullUrl": "urn:uuid:678bc19c-9e97-4cf7-bc87-1331b497ac39",
      "resource": {
        "resourceType": "Patient",
        "id": "678bc19c-9e97-4cf7-bc87-1331b497ac39",
        "meta": {
          "security": [
            {
              "system": "http://terminology.hl7.org/CodeSystem/v3-ActReason",
              "code": "HTEST"
            },
            {
              "system": "http://terminology.hl7.org/CodeSystem/v3-ActReason",
              "code": "TRAIN"
            }
          ],
          "tag": [
            {
              "system": "https://synderai.net/fhir/CodeSystem/tags",
              "code": "synthetic",
              "display": "SYNDERAI Synthetic data"
            }
          ],
          "profile": [
            "http://hl7.eu/fhir/base/StructureDefinition/patient-eu-core"
          ]
        },
        "identifier": [
          {
            "type": {
              "coding": [
                {
                  "code": "PT",
                  "system": "http://terminology.hl7.org/CodeSystem/v2-0203"
                }
              ]
            },
            "system": "http://ec.europa.eu/identifier/eci",
            "value": "8944-364030-8"
          },
          {
            "type": {
              "coding": [
                {
                  "code": "MR",
                  "system": "http://terminology.hl7.org/CodeSystem/v2-0203"
                }
              ]
            },
            "system": "http://local.setting.eu/identifier",
            "value": "9edf6b8d-b276-7218-98c6-ccf8d15f2a01"
          }
        ],
        "name": [
          {
            "family": "Ward"
          },
          {
            "given": [
              "Lydia"
            ]
          },
          {
            "text": "Lydia Ward"
          }
        ],
        "address": [
          {
            "line": [
              "6 Hunt radial"
            ],
            "use": "home",
            "type": "physical",
            "postalCode": "EH33",
            "city": "South Rosieside",
            "country": "United Kingdom"
          }
        ],
        "telecom": [
          {
            "system": "phone",
            "value": "01144960349"
          }
        ],
        "extension": [
          {
            "url": "http://hl7.org/fhir/StructureDefinition/patient-nationality",
            "valueCodeableConcept": {
              "coding": [
                {
                  "code": "GB",
                  "system": "http://hl7.org/fhir/ValueSet/country"
                }
              ]
            }
          }
        ],
        "text": {
          "status": "generated",
          "div": "<div xmlns=\"http://www.w3.org/1999/xhtml\"><table class=\"hl7__ips\"><tr><td>Lydia Ward</td><td>female</td><td>27-Dec-1968</td></tr></table></div>"
        },
        "gender": "female",
        "birthDate": "1968-12-27"
      }
    },
    {
      "fullUrl": "urn:uuid:46e989a3-f7af-4e01-b37f-ae002b233ad2",
      "resource": {
        "resourceType": "ServiceRequest",
        "id": "46e989a3-f7af-4e01-b37f-ae002b233ad2",
        "meta": {
          "profile": [
            "http://hl7.eu/fhir/laboratory/StructureDefinition/ServiceRequest-eu-lab"
          ]
        },
        "identifier": [
          {
            "system": "http://example.org",
            "value": "72715b40-cc16-4316-a3da-49d85990d605"
          }
        ],
        "specimen": [
          {
            "reference": "urn:uuid:698987dc-75ed-4670-a585-e8bc0cd5361f"
          }
        ],
        "reasonCode": [
          {
            "coding": [
              {
                "code": "271737000",
                "system": "http://snomed.info/sct",
                "display": "Anemia"
              }
            ]
          },
          {
            "coding": [
              {
                "code": "15777000",
                "system": "http://snomed.info/sct",
                "display": "Prediabetes"
              }
            ]
          }
        ],
        "status": "active",
        "intent": "order",
        "code": {
          "coding": [
            {
              "code": "108252007",
              "system": "http://snomed.info/sct",
              "display": "Laboratory procedure"
            }
          ]
        },
        "subject": {
          "reference": "urn:uuid:678bc19c-9e97-4cf7-bc87-1331b497ac39",
          "display": "Lydia Ward"
        },
        "requester": {
          "reference": "urn:uuid:d9f0d306-addf-4922-ad6c-e9f00c369443"
        }
      }
    },
    {
      "fullUrl": "urn:uuid:d9f0d306-addf-4922-ad6c-e9f00c369443",
      "resource": {
        "resourceType": "PractitionerRole",
        "id": "d9f0d306-addf-4922-ad6c-e9f00c369443",
        "meta": {
          "profile": [
            "http://hl7.eu/fhir/base/StructureDefinition/practitionerRole-eu"
          ]
        },
        "text": {
          "status": "generated",
          "div": "<div xmlns=\"http://www.w3.org/1999/xhtml\">Provider Role Id: d9f0d306-addf-4922-ad6c-e9f00c369443</div>"
        },
        "organization": {
          "reference": "urn:uuid:98d884e3-472d-4a18-8e6e-7603eef36587"
        }
      }
    },
    {
      "fullUrl": "urn:uuid:98d884e3-472d-4a18-8e6e-7603eef36587",
      "resource": {
        "resourceType": "Organization",
        "id": "98d884e3-472d-4a18-8e6e-7603eef36587",
        "meta": {
          "profile": [
            "http://hl7.eu/fhir/base/StructureDefinition/organization-eu"
          ]
        },
        "identifier": [
          {
            "assigner": {
              "display": "HL7 Europe"
            },
            "system": "urn:oid:2.16.840.1.113883.2.51.999",
            "value": "d3a4ecb5-d745-47bc-9ee6-2bf0690971ac"
          }
        ],
        "address": [
          {
            "city": "Edinburgh",
            "postalCode": "EH9 2",
            "country": "United Kingdom"
          }
        ],
        "text": {
          "status": "generated",
          "div": "<div xmlns=\"http://www.w3.org/1999/xhtml\">Provider Organization: Royal Hospital for Sick Children</div>"
        },
        "name": "Royal Hospital for Sick Children"
      }
    },
    {
      "fullUrl": "urn:uuid:698987dc-75ed-4670-a585-e8bc0cd5361f",
      "resource": {
        "resourceType": "Specimen",
        "id": "698987dc-75ed-4670-a585-e8bc0cd5361f",
        "meta": {
          "profile": [
            "http://hl7.eu/fhir/laboratory/StructureDefinition/Specimen-eu-lab"
          ]
        },
        "collection": {
          "collectedDateTime": "2018-01-26"
        },
        "text": {
          "status": "generated",
          "div": "<div xmlns=\"http://www.w3.org/1999/xhtml\"><table class=\"hl7__eu__lab__report\"><tr><th>Specimen</th><th>Collection Date</th></tr><tr><td>Whole blood specimen (specimen)</td><td><span class=\"nb\">26-Jan-2018</span></td></tr></table></div>"
        },
        "type": {
          "coding": [
            {
              "code": "258580003",
              "system": "http://snomed.info/sct",
              "display": "Whole blood specimen (specimen)"
            }
          ]
        }
      }
    },
    {
      "fullUrl": "urn:uuid:698987dc-75ed-4670-a585-e8bc0cd5361f",
      "resource": {
        "resourceType": "Specimen",
        "id": "698987dc-75ed-4670-a585-e8bc0cd5361f",
        "meta": {
          "profile": [
            "http://hl7.eu/fhir/laboratory/StructureDefinition/Specimen-eu-lab"
          ]
        },
        "collection": {
          "collectedDateTime": "2018-01-26"
        },
        "text": {
          "status": "generated",
          "div": "<div xmlns=\"http://www.w3.org/1999/xhtml\"><table class=\"hl7__eu__lab__report\"><tr><th>Specimen</th><th>Collection Date</th></tr><tr><td>Whole blood specimen (specimen)</td><td><span class=\"nb\">26-Jan-2018</span></td></tr></table></div>"
        },
        "type": {
          "coding": [
            {
              "code": "258580003",
              "system": "http://snomed.info/sct",
              "display": "Whole blood specimen (specimen)"
            }
          ]
        }
      }
    },
    {
      "fullUrl": "urn:uuid:71f43f82-e660-4647-a28d-fcfdd3a87fe9",
      "resource": {
        "resourceType": "Observation",
        "id": "71f43f82-e660-4647-a28d-fcfdd3a87fe9",
        "meta": {
          "profile": [
            "http://hl7.eu/fhir/laboratory/StructureDefinition/Observation-resultslab-eu-lab"
          ]
        },
        "performer": [
          {
            "display": "The Central European Lab"
          }
        ],
        "category": [
          {
            "coding": [
              {
                "system": "http://terminology.hl7.org/CodeSystem/observation-category",
                "code": "laboratory"
              }
            ]
          }
        ],
        "code": {
          "coding": [
            {
              "code": "4548-4",
              "system": "http://loinc.org",
              "display": "Hemoglobin A1c/Hemoglobin.total in Blood"
            }
          ],
          "text": "Hemoglobin A1c/Hemoglobin.total in Blood"
        },
        "valueQuantity": {
          "system": "http://unitsofmeasure.org",
          "value": 6.1,
          "unit": "%",
          "code": "%"
        },
        "referenceRange": [
          {
            "low": {
              "value": 4,
              "code": "%",
              "system": "http://unitsofmeasure.org"
            }
          },
          {
            "high": {
              "value": 6,
              "code": "%",
              "system": "http://unitsofmeasure.org"
            }
          }
        ],
        "interpretation": [
          {
            "coding": [
              {
                "code": "H",
                "system": "http://terminology.hl7.org/CodeSystem/v3-ObservationInterpretation",
                "display": "High"
              }
            ]
          }
        ],
        "text": {
          "status": "generated",
          "div": "<div xmlns=\"http://www.w3.org/1999/xhtml\"><table class=\"hl7__eu__lab__report\"><tr><th>Test</th><th>27-Jan-2018</th><th>Reference&#xA0;Range</th><th>Unit</th></tr><tr><td>Hemoglobin A1c/Hemoglobin.total in Blood</td><td>6.1</td><td>4 - 6</td><td>H</td><td>%</td></tr></table></div>"
        },
        "status": "final",
        "subject": {
          "reference": "urn:uuid:678bc19c-9e97-4cf7-bc87-1331b497ac39",
          "display": "Lydia Ward"
        },
        "effectiveDateTime": "2018-01-26T23:08:09Z",
        "specimen": {
          "reference": "urn:uuid:698987dc-75ed-4670-a585-e8bc0cd5361f"
        }
      }
    },
    {
      "fullUrl": "urn:uuid:3f170c53-0961-4fcc-a59c-0915b6ed8a83",
      "resource": {
        "resourceType": "Observation",
        "id": "3f170c53-0961-4fcc-a59c-0915b6ed8a83",
        "meta": {
          "profile": [
            "http://hl7.eu/fhir/laboratory/StructureDefinition/Observation-resultslab-eu-lab"
          ]
        },
        "performer": [
          {
            "display": "The Central European Lab"
          }
        ],
        "category": [
          {
            "coding": [
              {
                "system": "http://terminology.hl7.org/CodeSystem/observation-category",
                "code": "laboratory"
              }
            ]
          }
        ],
        "code": {
          "coding": [
            {
              "code": "2339-0",
              "system": "http://loinc.org",
              "display": "Glucose [Mass/volume] in Blood"
            }
          ],
          "text": "Glucose [Mass/volume] in Blood"
        },
        "valueQuantity": {
          "system": "http://unitsofmeasure.org",
          "value": 91.8,
          "unit": "mg/dL",
          "code": "mg/dL"
        },
        "referenceRange": [
          {
            "low": {
              "value": 70,
              "code": "mg/dL",
              "system": "http://unitsofmeasure.org"
            }
          },
          {
            "high": {
              "value": 140,
              "code": "mg/dL",
              "system": "http://unitsofmeasure.org"
            }
          }
        ],
        "text": {
          "status": "generated",
          "div": "<div xmlns=\"http://www.w3.org/1999/xhtml\"><table class=\"hl7__eu__lab__report\"><tr><th>Test</th><th>27-Jan-2018</th><th>Reference&#xA0;Range</th><th>Unit</th></tr><tr><td>Glucose [Mass/volume] in Blood</td><td>91.8</td><td>70 - 140</td><td></td><td>mg/dL</td></tr></table></div>"
        },
        "status": "final",
        "subject": {
          "reference": "urn:uuid:678bc19c-9e97-4cf7-bc87-1331b497ac39",
          "display": "Lydia Ward"
        },
        "effectiveDateTime": "2018-01-26T23:08:09Z",
        "specimen": {
          "reference": "urn:uuid:698987dc-75ed-4670-a585-e8bc0cd5361f"
        }
      }
    },
    {
      "fullUrl": "urn:uuid:fb42a18b-534d-4eb0-8e05-51a5991f3180",
      "resource": {
        "resourceType": "Observation",
        "id": "fb42a18b-534d-4eb0-8e05-51a5991f3180",
        "meta": {
          "profile": [
            "http://hl7.eu/fhir/laboratory/StructureDefinition/Observation-resultslab-eu-lab"
          ]
        },
        "performer": [
          {
            "display": "The Central European Lab"
          }
        ],
        "category": [
          {
            "coding": [
              {
                "system": "http://terminology.hl7.org/CodeSystem/observation-category",
                "code": "laboratory"
              }
            ]
          }
        ],
        "code": {
          "coding": [
            {
              "code": "6299-2",
              "system": "http://loinc.org",
              "display": "Urea nitrogen [Mass/volume] in Blood"
            }
          ],
          "text": "Urea nitrogen [Mass/volume] in Blood"
        },
        "valueQuantity": {
          "system": "http://unitsofmeasure.org",
          "value": 17.2,
          "unit": "mg/dL",
          "code": "mg/dL"
        },
        "referenceRange": [
          {
            "low": {
              "value": 7,
              "code": "mg/dL",
              "system": "http://unitsofmeasure.org"
            }
          },
          {
            "high": {
              "value": 45,
              "code": "mg/dL",
              "system": "http://unitsofmeasure.org"
            }
          }
        ],
        "text": {
          "status": "generated",
          "div": "<div xmlns=\"http://www.w3.org/1999/xhtml\"><table class=\"hl7__eu__lab__report\"><tr><th>Test</th><th>27-Jan-2018</th><th>Reference&#xA0;Range</th><th>Unit</th></tr><tr><td>Urea nitrogen [Mass/volume] in Blood</td><td>17.2</td><td>7 - 45</td><td></td><td>mg/dL</td></tr></table></div>"
        },
        "status": "final",
        "subject": {
          "reference": "urn:uuid:678bc19c-9e97-4cf7-bc87-1331b497ac39",
          "display": "Lydia Ward"
        },
        "effectiveDateTime": "2018-01-26T23:08:09Z",
        "specimen": {
          "reference": "urn:uuid:698987dc-75ed-4670-a585-e8bc0cd5361f"
        }
      }
    },
    {
      "fullUrl": "urn:uuid:2faa3137-e451-4de9-a94d-798f9b4a43d0",
      "resource": {
        "resourceType": "Observation",
        "id": "2faa3137-e451-4de9-a94d-798f9b4a43d0",
        "meta": {
          "profile": [
            "http://hl7.eu/fhir/laboratory/StructureDefinition/Observation-resultslab-eu-lab"
          ]
        },
        "performer": [
          {
            "display": "The Central European Lab"
          }
        ],
        "category": [
          {
            "coding": [
              {
                "system": "http://terminology.hl7.org/CodeSystem/observation-category",
                "code": "laboratory"
              }
            ]
          }
        ],
        "code": {
          "coding": [
            {
              "code": "38483-4",
              "system": "http://loinc.org",
              "display": "Creatinine [Mass/volume] in Blood"
            }
          ],
          "text": "Creatinine [Mass/volume] in Blood"
        },
        "valueQuantity": {
          "system": "http://unitsofmeasure.org",
          "value": 1.3,
          "unit": "mg/dL",
          "code": "mg/dL"
        },
        "referenceRange": [
          {
            "low": {
              "value": 0.6,
              "code": "mg/dL",
              "system": "http://unitsofmeasure.org"
            }
          },
          {
            "high": {
              "value": 1.1,
              "code": "mg/dL",
              "system": "http://unitsofmeasure.org"
            }
          }
        ],
        "interpretation": [
          {
            "coding": [
              {
                "code": "H",
                "system": "http://terminology.hl7.org/CodeSystem/v3-ObservationInterpretation",
                "display": "High"
              }
            ]
          }
        ],
        "text": {
          "status": "generated",
          "div": "<div xmlns=\"http://www.w3.org/1999/xhtml\"><table class=\"hl7__eu__lab__report\"><tr><th>Test</th><th>27-Jan-2018</th><th>Reference&#xA0;Range</th><th>Unit</th></tr><tr><td>Creatinine [Mass/volume] in Blood</td><td>1.3</td><td>0.6 - 1.1</td><td>H</td><td>mg/dL</td></tr></table></div>"
        },
        "status": "final",
        "subject": {
          "reference": "urn:uuid:678bc19c-9e97-4cf7-bc87-1331b497ac39",
          "display": "Lydia Ward"
        },
        "effectiveDateTime": "2018-01-26T23:08:09Z",
        "specimen": {
          "reference": "urn:uuid:698987dc-75ed-4670-a585-e8bc0cd5361f"
        }
      }
    },
    {
      "fullUrl": "urn:uuid:7f8a55dc-408c-42ac-a8be-bd1d2b4c37e4",
      "resource": {
        "resourceType": "Observation",
        "id": "7f8a55dc-408c-42ac-a8be-bd1d2b4c37e4",
        "meta": {
          "profile": [
            "http://hl7.eu/fhir/laboratory/StructureDefinition/Observation-resultslab-eu-lab"
          ]
        },
        "performer": [
          {
            "display": "The Central European Lab"
          }
        ],
        "category": [
          {
            "coding": [
              {
                "system": "http://terminology.hl7.org/CodeSystem/observation-category",
                "code": "laboratory"
              }
            ]
          }
        ],
        "code": {
          "coding": [
            {
              "code": "49765-1",
              "system": "http://loinc.org",
              "display": "Calcium [Mass/volume] in Blood"
            }
          ],
          "text": "Calcium [Mass/volume] in Blood"
        },
        "valueQuantity": {
          "system": "http://unitsofmeasure.org",
          "value": 9.3,
          "unit": "mg/dL",
          "code": "mg/dL"
        },
        "referenceRange": [
          {
            "low": {
              "value": 8.5,
              "code": "mg/dL",
              "system": "http://unitsofmeasure.org"
            }
          },
          {
            "high": {
              "value": 10.5,
              "code": "mg/dL",
              "system": "http://unitsofmeasure.org"
            }
          }
        ],
        "text": {
          "status": "generated",
          "div": "<div xmlns=\"http://www.w3.org/1999/xhtml\"><table class=\"hl7__eu__lab__report\"><tr><th>Test</th><th>27-Jan-2018</th><th>Reference&#xA0;Range</th><th>Unit</th></tr><tr><td>Calcium [Mass/volume] in Blood</td><td>9.3</td><td>8.5 - 10.5</td><td></td><td>mg/dL</td></tr></table></div>"
        },
        "status": "final",
        "subject": {
          "reference": "urn:uuid:678bc19c-9e97-4cf7-bc87-1331b497ac39",
          "display": "Lydia Ward"
        },
        "effectiveDateTime": "2018-01-26T23:08:09Z",
        "specimen": {
          "reference": "urn:uuid:698987dc-75ed-4670-a585-e8bc0cd5361f"
        }
      }
    },
    {
      "fullUrl": "urn:uuid:d3b1a1f4-48ec-4c87-9c0f-efa957488e21",
      "resource": {
        "resourceType": "Observation",
        "id": "d3b1a1f4-48ec-4c87-9c0f-efa957488e21",
        "meta": {
          "profile": [
            "http://hl7.eu/fhir/laboratory/StructureDefinition/Observation-resultslab-eu-lab"
          ]
        },
        "performer": [
          {
            "display": "The Central European Lab"
          }
        ],
        "category": [
          {
            "coding": [
              {
                "system": "http://terminology.hl7.org/CodeSystem/observation-category",
                "code": "laboratory"
              }
            ]
          }
        ],
        "code": {
          "coding": [
            {
              "code": "2947-0",
              "system": "http://loinc.org",
              "display": "Sodium [Moles/volume] in Blood"
            }
          ],
          "text": "Sodium [Moles/volume] in Blood"
        },
        "valueQuantity": {
          "system": "http://unitsofmeasure.org",
          "value": 137.4,
          "unit": "mmol/L",
          "code": "mmol/L"
        },
        "referenceRange": [
          {
            "low": {
              "value": 135,
              "code": "mmol/L",
              "system": "http://unitsofmeasure.org"
            }
          },
          {
            "high": {
              "value": 145,
              "code": "mmol/L",
              "system": "http://unitsofmeasure.org"
            }
          }
        ],
        "text": {
          "status": "generated",
          "div": "<div xmlns=\"http://www.w3.org/1999/xhtml\"><table class=\"hl7__eu__lab__report\"><tr><th>Test</th><th>27-Jan-2018</th><th>Reference&#xA0;Range</th><th>Unit</th></tr><tr><td>Sodium [Moles/volume] in Blood</td><td>137.4</td><td>135 - 145</td><td></td><td>mmol/L</td></tr></table></div>"
        },
        "status": "final",
        "subject": {
          "reference": "urn:uuid:678bc19c-9e97-4cf7-bc87-1331b497ac39",
          "display": "Lydia Ward"
        },
        "effectiveDateTime": "2018-01-26T23:08:09Z",
        "specimen": {
          "reference": "urn:uuid:698987dc-75ed-4670-a585-e8bc0cd5361f"
        }
      }
    },
    {
      "fullUrl": "urn:uuid:6ca862fd-a655-43d2-9bd5-76a7063cacc8",
      "resource": {
        "resourceType": "Observation",
        "id": "6ca862fd-a655-43d2-9bd5-76a7063cacc8",
        "meta": {
          "profile": [
            "http://hl7.eu/fhir/laboratory/StructureDefinition/Observation-resultslab-eu-lab"
          ]
        },
        "performer": [
          {
            "display": "The Central European Lab"
          }
        ],
        "category": [
          {
            "coding": [
              {
                "system": "http://terminology.hl7.org/CodeSystem/observation-category",
                "code": "laboratory"
              }
            ]
          }
        ],
        "code": {
          "coding": [
            {
              "code": "6298-4",
              "system": "http://loinc.org",
              "display": "Potassium [Moles/volume] in Blood"
            }
          ],
          "text": "Potassium [Moles/volume] in Blood"
        },
        "valueQuantity": {
          "system": "http://unitsofmeasure.org",
          "value": 4,
          "unit": "mmol/L",
          "code": "mmol/L"
        },
        "referenceRange": [
          {
            "low": {
              "value": 3.5,
              "code": "mmol/L",
              "system": "http://unitsofmeasure.org"
            }
          },
          {
            "high": {
              "value": 5.1,
              "code": "mmol/L",
              "system": "http://unitsofmeasure.org"
            }
          }
        ],
        "text": {
          "status": "generated",
          "div": "<div xmlns=\"http://www.w3.org/1999/xhtml\"><table class=\"hl7__eu__lab__report\"><tr><th>Test</th><th>27-Jan-2018</th><th>Reference&#xA0;Range</th><th>Unit</th></tr><tr><td>Potassium [Moles/volume] in Blood</td><td>4.0</td><td>3.5 - 5.1</td><td></td><td>mmol/L</td></tr></table></div>"
        },
        "status": "final",
        "subject": {
          "reference": "urn:uuid:678bc19c-9e97-4cf7-bc87-1331b497ac39",
          "display": "Lydia Ward"
        },
        "effectiveDateTime": "2018-01-26T23:08:09Z",
        "specimen": {
          "reference": "urn:uuid:698987dc-75ed-4670-a585-e8bc0cd5361f"
        }
      }
    },
    {
      "fullUrl": "urn:uuid:082d19d5-457f-4ae6-b3f6-d0ab32e895e9",
      "resource": {
        "resourceType": "Observation",
        "id": "082d19d5-457f-4ae6-b3f6-d0ab32e895e9",
        "meta": {
          "profile": [
            "http://hl7.eu/fhir/laboratory/StructureDefinition/Observation-resultslab-eu-lab"
          ]
        },
        "performer": [
          {
            "display": "The Central European Lab"
          }
        ],
        "category": [
          {
            "coding": [
              {
                "system": "http://terminology.hl7.org/CodeSystem/observation-category",
                "code": "laboratory"
              }
            ]
          }
        ],
        "code": {
          "coding": [
            {
              "code": "2069-3",
              "system": "http://loinc.org",
              "display": "Chloride [Moles/volume] in Blood"
            }
          ],
          "text": "Chloride [Moles/volume] in Blood"
        },
        "valueQuantity": {
          "system": "http://unitsofmeasure.org",
          "value": 107.2,
          "unit": "mmol/L",
          "code": "mmol/L"
        },
        "referenceRange": [
          {
            "low": {
              "value": 98,
              "code": "mmol/L",
              "system": "http://unitsofmeasure.org"
            }
          },
          {
            "high": {
              "value": 107,
              "code": "mmol/L",
              "system": "http://unitsofmeasure.org"
            }
          }
        ],
        "interpretation": [
          {
            "coding": [
              {
                "code": "H",
                "system": "http://terminology.hl7.org/CodeSystem/v3-ObservationInterpretation",
                "display": "High"
              }
            ]
          }
        ],
        "text": {
          "status": "generated",
          "div": "<div xmlns=\"http://www.w3.org/1999/xhtml\"><table class=\"hl7__eu__lab__report\"><tr><th>Test</th><th>27-Jan-2018</th><th>Reference&#xA0;Range</th><th>Unit</th></tr><tr><td>Chloride [Moles/volume] in Blood</td><td>107.2</td><td>98 - 107</td><td>H</td><td>mmol/L</td></tr></table></div>"
        },
        "status": "final",
        "subject": {
          "reference": "urn:uuid:678bc19c-9e97-4cf7-bc87-1331b497ac39",
          "display": "Lydia Ward"
        },
        "effectiveDateTime": "2018-01-26T23:08:09Z",
        "specimen": {
          "reference": "urn:uuid:698987dc-75ed-4670-a585-e8bc0cd5361f"
        }
      }
    },
    {
      "fullUrl": "urn:uuid:c837a8c6-38ee-4058-a858-7c4240bb4ba7",
      "resource": {
        "resourceType": "Observation",
        "id": "c837a8c6-38ee-4058-a858-7c4240bb4ba7",
        "meta": {
          "profile": [
            "http://hl7.eu/fhir/laboratory/StructureDefinition/Observation-resultslab-eu-lab"
          ]
        },
        "performer": [
          {
            "display": "The Central European Lab"
          }
        ],
        "category": [
          {
            "coding": [
              {
                "system": "http://terminology.hl7.org/CodeSystem/observation-category",
                "code": "laboratory"
              }
            ]
          }
        ],
        "code": {
          "coding": [
            {
              "code": "20565-8",
              "system": "http://loinc.org",
              "display": "Carbon dioxide, total [Moles/volume] in Blood"
            }
          ],
          "text": "Carbon dioxide, total [Moles/volume] in Blood"
        },
        "valueQuantity": {
          "system": "http://unitsofmeasure.org",
          "value": 22.1,
          "unit": "mmol/L",
          "code": "mmol/L"
        },
        "referenceRange": [
          {
            "low": {
              "value": 22,
              "code": "mmol/L",
              "system": "http://unitsofmeasure.org"
            }
          },
          {
            "high": {
              "value": 32,
              "code": "mmol/L",
              "system": "http://unitsofmeasure.org"
            }
          }
        ],
        "text": {
          "status": "generated",
          "div": "<div xmlns=\"http://www.w3.org/1999/xhtml\"><table class=\"hl7__eu__lab__report\"><tr><th>Test</th><th>27-Jan-2018</th><th>Reference&#xA0;Range</th><th>Unit</th></tr><tr><td>Carbon dioxide, total [Moles/volume] in Blood</td><td>22.1</td><td>22 - 32</td><td></td><td>mmol/L</td></tr></table></div>"
        },
        "status": "final",
        "subject": {
          "reference": "urn:uuid:678bc19c-9e97-4cf7-bc87-1331b497ac39",
          "display": "Lydia Ward"
        },
        "effectiveDateTime": "2018-01-26T23:08:09Z",
        "specimen": {
          "reference": "urn:uuid:698987dc-75ed-4670-a585-e8bc0cd5361f"
        }
      }
    },
    {
      "fullUrl": "urn:uuid:ded4f3c7-7c7c-4f19-93e1-5374377594b5",
      "resource": {
        "resourceType": "Observation",
        "id": "ded4f3c7-7c7c-4f19-93e1-5374377594b5",
        "meta": {
          "profile": [
            "http://hl7.eu/fhir/laboratory/StructureDefinition/Observation-resultslab-eu-lab"
          ]
        },
        "performer": [
          {
            "display": "The Central European Lab"
          }
        ],
        "category": [
          {
            "coding": [
              {
                "system": "http://terminology.hl7.org/CodeSystem/observation-category",
                "code": "laboratory"
              }
            ]
          }
        ],
        "code": {
          "coding": [
            {
              "code": "6690-2",
              "system": "http://loinc.org",
              "display": "Leukocytes [#/volume] in Blood by Automated count"
            }
          ],
          "text": "Leukocytes [#/volume] in Blood by Automated count"
        },
        "valueQuantity": {
          "system": "http://unitsofmeasure.org",
          "value": 5.3,
          "unit": "10*3/uL",
          "code": "10*3/uL"
        },
        "referenceRange": [
          {
            "low": {
              "value": 3.4,
              "code": "10*3/uL",
              "system": "http://unitsofmeasure.org"
            }
          },
          {
            "high": {
              "value": 10.5,
              "code": "10*3/uL",
              "system": "http://unitsofmeasure.org"
            }
          }
        ],
        "text": {
          "status": "generated",
          "div": "<div xmlns=\"http://www.w3.org/1999/xhtml\"><table class=\"hl7__eu__lab__report\"><tr><th>Test</th><th>27-Jan-2018</th><th>Reference&#xA0;Range</th><th>Unit</th></tr><tr><td>Leukocytes [#/volume] in Blood by Automated count</td><td>5.3</td><td>3.4 - 10.5</td><td></td><td>10*3/uL</td></tr></table></div>"
        },
        "status": "final",
        "subject": {
          "reference": "urn:uuid:678bc19c-9e97-4cf7-bc87-1331b497ac39",
          "display": "Lydia Ward"
        },
        "effectiveDateTime": "2018-01-26T23:08:09Z",
        "specimen": {
          "reference": "urn:uuid:698987dc-75ed-4670-a585-e8bc0cd5361f"
        }
      }
    },
    {
      "fullUrl": "urn:uuid:7812ac5e-e491-4c2d-8f4e-4c2e2587e093",
      "resource": {
        "resourceType": "Observation",
        "id": "7812ac5e-e491-4c2d-8f4e-4c2e2587e093",
        "meta": {
          "profile": [
            "http://hl7.eu/fhir/laboratory/StructureDefinition/Observation-resultslab-eu-lab"
          ]
        },
        "performer": [
          {
            "display": "The Central European Lab"
          }
        ],
        "category": [
          {
            "coding": [
              {
                "system": "http://terminology.hl7.org/CodeSystem/observation-category",
                "code": "laboratory"
              }
            ]
          }
        ],
        "code": {
          "coding": [
            {
              "code": "789-8",
              "system": "http://loinc.org",
              "display": "Erythrocytes [#/volume] in Blood by Automated count"
            }
          ],
          "text": "Erythrocytes [#/volume] in Blood by Automated count"
        },
        "valueQuantity": {
          "system": "http://unitsofmeasure.org",
          "value": 4.3,
          "unit": "10*6/uL",
          "code": "10*6/uL"
        },
        "referenceRange": [
          {
            "low": {
              "value": 4.2,
              "code": "10*6/uL",
              "system": "http://unitsofmeasure.org"
            }
          },
          {
            "high": {
              "value": 5.2,
              "code": "10*6/uL",
              "system": "http://unitsofmeasure.org"
            }
          }
        ],
        "text": {
          "status": "generated",
          "div": "<div xmlns=\"http://www.w3.org/1999/xhtml\"><table class=\"hl7__eu__lab__report\"><tr><th>Test</th><th>27-Jan-2018</th><th>Reference&#xA0;Range</th><th>Unit</th></tr><tr><td>Erythrocytes [#/volume] in Blood by Automated count</td><td>4.3</td><td>4.2 - 5.2</td><td></td><td>10*6/uL</td></tr></table></div>"
        },
        "status": "final",
        "subject": {
          "reference": "urn:uuid:678bc19c-9e97-4cf7-bc87-1331b497ac39",
          "display": "Lydia Ward"
        },
        "effectiveDateTime": "2018-01-26T23:08:09Z",
        "specimen": {
          "reference": "urn:uuid:698987dc-75ed-4670-a585-e8bc0cd5361f"
        }
      }
    },
    {
      "fullUrl": "urn:uuid:3ae9c4c5-de2f-4f15-b298-4487a978eaa2",
      "resource": {
        "resourceType": "Observation",
        "id": "3ae9c4c5-de2f-4f15-b298-4487a978eaa2",
        "meta": {
          "profile": [
            "http://hl7.eu/fhir/laboratory/StructureDefinition/Observation-resultslab-eu-lab"
          ]
        },
        "performer": [
          {
            "display": "The Central European Lab"
          }
        ],
        "category": [
          {
            "coding": [
              {
                "system": "http://terminology.hl7.org/CodeSystem/observation-category",
                "code": "laboratory"
              }
            ]
          }
        ],
        "code": {
          "coding": [
            {
              "code": "718-7",
              "system": "http://loinc.org",
              "display": "Hemoglobin [Mass/volume] in Blood"
            }
          ],
          "text": "Hemoglobin [Mass/volume] in Blood"
        },
        "valueQuantity": {
          "system": "http://unitsofmeasure.org",
          "value": 12.7,
          "unit": "g/dL",
          "code": "g/dL"
        },
        "referenceRange": [
          {
            "low": {
              "value": 12,
              "code": "g/dL",
              "system": "http://unitsofmeasure.org"
            }
          },
          {
            "high": {
              "value": 16,
              "code": "g/dL",
              "system": "http://unitsofmeasure.org"
            }
          }
        ],
        "text": {
          "status": "generated",
          "div": "<div xmlns=\"http://www.w3.org/1999/xhtml\"><table class=\"hl7__eu__lab__report\"><tr><th>Test</th><th>27-Jan-2018</th><th>Reference&#xA0;Range</th><th>Unit</th></tr><tr><td>Hemoglobin [Mass/volume] in Blood</td><td>12.7</td><td>12 - 16</td><td></td><td>g/dL</td></tr></table></div>"
        },
        "status": "final",
        "subject": {
          "reference": "urn:uuid:678bc19c-9e97-4cf7-bc87-1331b497ac39",
          "display": "Lydia Ward"
        },
        "effectiveDateTime": "2018-01-26T23:08:09Z",
        "specimen": {
          "reference": "urn:uuid:698987dc-75ed-4670-a585-e8bc0cd5361f"
        }
      }
    },
    {
      "fullUrl": "urn:uuid:25e1ed2d-15bc-49a5-8711-4568a44722de",
      "resource": {
        "resourceType": "Observation",
        "id": "25e1ed2d-15bc-49a5-8711-4568a44722de",
        "meta": {
          "profile": [
            "http://hl7.eu/fhir/laboratory/StructureDefinition/Observation-resultslab-eu-lab"
          ]
        },
        "performer": [
          {
            "display": "The Central European Lab"
          }
        ],
        "category": [
          {
            "coding": [
              {
                "system": "http://terminology.hl7.org/CodeSystem/observation-category",
                "code": "laboratory"
              }
            ]
          }
        ],
        "code": {
          "coding": [
            {
              "code": "4544-3",
              "system": "http://loinc.org",
              "display": "Hematocrit [Volume Fraction] of Blood by Automated count"
            }
          ],
          "text": "Hematocrit [Volume Fraction] of Blood by Automated count"
        },
        "valueQuantity": {
          "system": "http://unitsofmeasure.org",
          "value": 44.7,
          "unit": "%",
          "code": "%"
        },
        "referenceRange": [
          {
            "low": {
              "value": 38,
              "code": "%",
              "system": "http://unitsofmeasure.org"
            }
          },
          {
            "high": {
              "value": 54,
              "code": "%",
              "system": "http://unitsofmeasure.org"
            }
          }
        ],
        "text": {
          "status": "generated",
          "div": "<div xmlns=\"http://www.w3.org/1999/xhtml\"><table class=\"hl7__eu__lab__report\"><tr><th>Test</th><th>27-Jan-2018</th><th>Reference&#xA0;Range</th><th>Unit</th></tr><tr><td>Hematocrit [Volume Fraction] of Blood by Automated count</td><td>44.7</td><td>38 - 54</td><td></td><td>%</td></tr></table></div>"
        },
        "status": "final",
        "subject": {
          "reference": "urn:uuid:678bc19c-9e97-4cf7-bc87-1331b497ac39",
          "display": "Lydia Ward"
        },
        "effectiveDateTime": "2018-01-26T23:08:09Z",
        "specimen": {
          "reference": "urn:uuid:698987dc-75ed-4670-a585-e8bc0cd5361f"
        }
      }
    },
    {
      "fullUrl": "urn:uuid:bcce2925-1cbb-4902-ab1f-d2254b2ca4b3",
      "resource": {
        "resourceType": "Observation",
        "id": "bcce2925-1cbb-4902-ab1f-d2254b2ca4b3",
        "meta": {
          "profile": [
            "http://hl7.eu/fhir/laboratory/StructureDefinition/Observation-resultslab-eu-lab"
          ]
        },
        "performer": [
          {
            "display": "The Central European Lab"
          }
        ],
        "category": [
          {
            "coding": [
              {
                "system": "http://terminology.hl7.org/CodeSystem/observation-category",
                "code": "laboratory"
              }
            ]
          }
        ],
        "code": {
          "coding": [
            {
              "code": "787-2",
              "system": "http://loinc.org",
              "display": "MCV [Entitic volume] by Automated count"
            }
          ],
          "text": "MCV [Entitic volume] by Automated count"
        },
        "valueQuantity": {
          "system": "http://unitsofmeasure.org",
          "value": 94.2,
          "unit": "fL",
          "code": "fL"
        },
        "referenceRange": [
          {
            "low": {
              "value": 82,
              "code": "fL",
              "system": "http://unitsofmeasure.org"
            }
          },
          {
            "high": {
              "value": 98,
              "code": "fL",
              "system": "http://unitsofmeasure.org"
            }
          }
        ],
        "text": {
          "status": "generated",
          "div": "<div xmlns=\"http://www.w3.org/1999/xhtml\"><table class=\"hl7__eu__lab__report\"><tr><th>Test</th><th>27-Jan-2018</th><th>Reference&#xA0;Range</th><th>Unit</th></tr><tr><td>MCV [Entitic volume] by Automated count</td><td>94.2</td><td>82 - 98</td><td></td><td>fL</td></tr></table></div>"
        },
        "status": "final",
        "subject": {
          "reference": "urn:uuid:678bc19c-9e97-4cf7-bc87-1331b497ac39",
          "display": "Lydia Ward"
        },
        "effectiveDateTime": "2018-01-26T23:08:09Z",
        "specimen": {
          "reference": "urn:uuid:698987dc-75ed-4670-a585-e8bc0cd5361f"
        }
      }
    },
    {
      "fullUrl": "urn:uuid:59cbc286-7f07-4a4e-b4dc-475752611874",
      "resource": {
        "resourceType": "Observation",
        "id": "59cbc286-7f07-4a4e-b4dc-475752611874",
        "meta": {
          "profile": [
            "http://hl7.eu/fhir/laboratory/StructureDefinition/Observation-resultslab-eu-lab"
          ]
        },
        "performer": [
          {
            "display": "The Central European Lab"
          }
        ],
        "category": [
          {
            "coding": [
              {
                "system": "http://terminology.hl7.org/CodeSystem/observation-category",
                "code": "laboratory"
              }
            ]
          }
        ],
        "code": {
          "coding": [
            {
              "code": "785-6",
              "system": "http://loinc.org",
              "display": "MCH [Entitic mass] by Automated count"
            }
          ],
          "text": "MCH [Entitic mass] by Automated count"
        },
        "valueQuantity": {
          "system": "http://unitsofmeasure.org",
          "value": 32.7,
          "unit": "pg",
          "code": "pg"
        },
        "referenceRange": [
          {
            "low": {
              "value": 27,
              "code": "pg",
              "system": "http://unitsofmeasure.org"
            }
          },
          {
            "high": {
              "value": 33,
              "code": "pg",
              "system": "http://unitsofmeasure.org"
            }
          }
        ],
        "text": {
          "status": "generated",
          "div": "<div xmlns=\"http://www.w3.org/1999/xhtml\"><table class=\"hl7__eu__lab__report\"><tr><th>Test</th><th>27-Jan-2018</th><th>Reference&#xA0;Range</th><th>Unit</th></tr><tr><td>MCH [Entitic mass] by Automated count</td><td>32.7</td><td>27 - 33</td><td></td><td>pg</td></tr></table></div>"
        },
        "status": "final",
        "subject": {
          "reference": "urn:uuid:678bc19c-9e97-4cf7-bc87-1331b497ac39",
          "display": "Lydia Ward"
        },
        "effectiveDateTime": "2018-01-26T23:08:09Z",
        "specimen": {
          "reference": "urn:uuid:698987dc-75ed-4670-a585-e8bc0cd5361f"
        }
      }
    },
    {
      "fullUrl": "urn:uuid:df5670fd-510d-4a10-b0cb-688a84e61b33",
      "resource": {
        "resourceType": "Observation",
        "id": "df5670fd-510d-4a10-b0cb-688a84e61b33",
        "meta": {
          "profile": [
            "http://hl7.eu/fhir/laboratory/StructureDefinition/Observation-resultslab-eu-lab"
          ]
        },
        "performer": [
          {
            "display": "The Central European Lab"
          }
        ],
        "category": [
          {
            "coding": [
              {
                "system": "http://terminology.hl7.org/CodeSystem/observation-category",
                "code": "laboratory"
              }
            ]
          }
        ],
        "code": {
          "coding": [
            {
              "code": "786-4",
              "system": "http://loinc.org",
              "display": "MCHC [Mass/volume] by Automated count"
            }
          ],
          "text": "MCHC [Mass/volume] by Automated count"
        },
        "valueQuantity": {
          "system": "http://unitsofmeasure.org",
          "value": 35.1,
          "unit": "g/dL",
          "code": "g/dL"
        },
        "referenceRange": [
          {
            "low": {
              "value": 32,
              "code": "g/dL",
              "system": "http://unitsofmeasure.org"
            }
          },
          {
            "high": {
              "value": 35.5,
              "code": "g/dL",
              "system": "http://unitsofmeasure.org"
            }
          }
        ],
        "text": {
          "status": "generated",
          "div": "<div xmlns=\"http://www.w3.org/1999/xhtml\"><table class=\"hl7__eu__lab__report\"><tr><th>Test</th><th>27-Jan-2018</th><th>Reference&#xA0;Range</th><th>Unit</th></tr><tr><td>MCHC [Mass/volume] by Automated count</td><td>35.1</td><td>32 - 35.5</td><td></td><td>g/dL</td></tr></table></div>"
        },
        "status": "final",
        "subject": {
          "reference": "urn:uuid:678bc19c-9e97-4cf7-bc87-1331b497ac39",
          "display": "Lydia Ward"
        },
        "effectiveDateTime": "2018-01-26T23:08:09Z",
        "specimen": {
          "reference": "urn:uuid:698987dc-75ed-4670-a585-e8bc0cd5361f"
        }
      }
    },
    {
      "fullUrl": "urn:uuid:96acb745-6560-40e0-b512-13264607e889",
      "resource": {
        "resourceType": "Observation",
        "id": "96acb745-6560-40e0-b512-13264607e889",
        "meta": {
          "profile": [
            "http://hl7.eu/fhir/laboratory/StructureDefinition/Observation-resultslab-eu-lab"
          ]
        },
        "performer": [
          {
            "display": "The Central European Lab"
          }
        ],
        "category": [
          {
            "coding": [
              {
                "system": "http://terminology.hl7.org/CodeSystem/observation-category",
                "code": "laboratory"
              }
            ]
          }
        ],
        "code": {
          "coding": [
            {
              "code": "21000-5",
              "system": "http://loinc.org",
              "display": "Erythrocyte distribution width [Entitic volume] by Automated count"
            }
          ],
          "text": "Erythrocyte distribution width [Entitic volume] by Automated count"
        },
        "valueQuantity": {
          "system": "http://unitsofmeasure.org",
          "value": 40.6,
          "unit": "fL",
          "code": "fL"
        },
        "referenceRange": [
          {
            "low": {
              "value": 36,
              "code": "fL",
              "system": "http://unitsofmeasure.org"
            }
          },
          {
            "high": {
              "value": 56,
              "code": "fL",
              "system": "http://unitsofmeasure.org"
            }
          }
        ],
        "text": {
          "status": "generated",
          "div": "<div xmlns=\"http://www.w3.org/1999/xhtml\"><table class=\"hl7__eu__lab__report\"><tr><th>Test</th><th>27-Jan-2018</th><th>Reference&#xA0;Range</th><th>Unit</th></tr><tr><td>Erythrocyte distribution width [Entitic volume] by Automated count</td><td>40.6</td><td>36 - 56</td><td></td><td>fL</td></tr></table></div>"
        },
        "status": "final",
        "subject": {
          "reference": "urn:uuid:678bc19c-9e97-4cf7-bc87-1331b497ac39",
          "display": "Lydia Ward"
        },
        "effectiveDateTime": "2018-01-26T23:08:09Z",
        "specimen": {
          "reference": "urn:uuid:698987dc-75ed-4670-a585-e8bc0cd5361f"
        }
      }
    },
    {
      "fullUrl": "urn:uuid:dc1bf1ac-a057-4c87-8879-7b500b4e8a1a",
      "resource": {
        "resourceType": "Observation",
        "id": "dc1bf1ac-a057-4c87-8879-7b500b4e8a1a",
        "meta": {
          "profile": [
            "http://hl7.eu/fhir/laboratory/StructureDefinition/Observation-resultslab-eu-lab"
          ]
        },
        "performer": [
          {
            "display": "The Central European Lab"
          }
        ],
        "category": [
          {
            "coding": [
              {
                "system": "http://terminology.hl7.org/CodeSystem/observation-category",
                "code": "laboratory"
              }
            ]
          }
        ],
        "code": {
          "coding": [
            {
              "code": "777-3",
              "system": "http://loinc.org",
              "display": "Platelets [#/volume] in Blood by Automated count"
            }
          ],
          "text": "Platelets [#/volume] in Blood by Automated count"
        },
        "valueQuantity": {
          "system": "http://unitsofmeasure.org",
          "value": 400.4,
          "unit": "10*3/uL",
          "code": "10*3/uL"
        },
        "referenceRange": [
          {
            "low": {
              "value": 150,
              "code": "10*3/uL",
              "system": "http://unitsofmeasure.org"
            }
          },
          {
            "high": {
              "value": 450,
              "code": "10*3/uL",
              "system": "http://unitsofmeasure.org"
            }
          }
        ],
        "text": {
          "status": "generated",
          "div": "<div xmlns=\"http://www.w3.org/1999/xhtml\"><table class=\"hl7__eu__lab__report\"><tr><th>Test</th><th>27-Jan-2018</th><th>Reference&#xA0;Range</th><th>Unit</th></tr><tr><td>Platelets [#/volume] in Blood by Automated count</td><td>400.4</td><td>150 - 450</td><td></td><td>10*3/uL</td></tr></table></div>"
        },
        "status": "final",
        "subject": {
          "reference": "urn:uuid:678bc19c-9e97-4cf7-bc87-1331b497ac39",
          "display": "Lydia Ward"
        },
        "effectiveDateTime": "2018-01-26T23:08:09Z",
        "specimen": {
          "reference": "urn:uuid:698987dc-75ed-4670-a585-e8bc0cd5361f"
        }
      }
    },
    {
      "fullUrl": "urn:uuid:48fe1072-381f-479c-8369-962d332abeaf",
      "resource": {
        "resourceType": "Observation",
        "id": "48fe1072-381f-479c-8369-962d332abeaf",
        "meta": {
          "profile": [
            "http://hl7.eu/fhir/laboratory/StructureDefinition/Observation-resultslab-eu-lab"
          ]
        },
        "performer": [
          {
            "display": "The Central European Lab"
          }
        ],
        "category": [
          {
            "coding": [
              {
                "system": "http://terminology.hl7.org/CodeSystem/observation-category",
                "code": "laboratory"
              }
            ]
          }
        ],
        "code": {
          "coding": [
            {
              "code": "32207-3",
              "system": "http://loinc.org",
              "display": "Platelet distribution width [Entitic volume] in Blood by Automated count"
            }
          ],
          "text": "Platelet distribution width [Entitic volume] in Blood by Automated count"
        },
        "valueQuantity": {
          "system": "http://unitsofmeasure.org",
          "value": 165.3,
          "unit": "fL",
          "code": "fL"
        },
        "referenceRange": [
          {
            "low": {
              "value": 150,
              "code": "fL",
              "system": "http://unitsofmeasure.org"
            }
          },
          {
            "high": {
              "value": 450,
              "code": "fL",
              "system": "http://unitsofmeasure.org"
            }
          }
        ],
        "text": {
          "status": "generated",
          "div": "<div xmlns=\"http://www.w3.org/1999/xhtml\"><table class=\"hl7__eu__lab__report\"><tr><th>Test</th><th>27-Jan-2018</th><th>Reference&#xA0;Range</th><th>Unit</th></tr><tr><td>Platelet distribution width [Entitic volume] in Blood by Automated count</td><td>165.3</td><td>150 - 450</td><td></td><td>fL</td></tr></table></div>"
        },
        "status": "final",
        "subject": {
          "reference": "urn:uuid:678bc19c-9e97-4cf7-bc87-1331b497ac39",
          "display": "Lydia Ward"
        },
        "effectiveDateTime": "2018-01-26T23:08:09Z",
        "specimen": {
          "reference": "urn:uuid:698987dc-75ed-4670-a585-e8bc0cd5361f"
        }
      }
    },
    {
      "fullUrl": "urn:uuid:e8257530-2154-40b2-b92c-5bc486d2005a",
      "resource": {
        "resourceType": "Observation",
        "id": "e8257530-2154-40b2-b92c-5bc486d2005a",
        "meta": {
          "profile": [
            "http://hl7.eu/fhir/laboratory/StructureDefinition/Observation-resultslab-eu-lab"
          ]
        },
        "performer": [
          {
            "display": "The Central European Lab"
          }
        ],
        "category": [
          {
            "coding": [
              {
                "system": "http://terminology.hl7.org/CodeSystem/observation-category",
                "code": "laboratory"
              }
            ]
          }
        ],
        "code": {
          "coding": [
            {
              "code": "32623-1",
              "system": "http://loinc.org",
              "display": "Platelet mean volume [Entitic volume] in Blood by Automated count"
            }
          ],
          "text": "Platelet mean volume [Entitic volume] in Blood by Automated count"
        },
        "valueQuantity": {
          "system": "http://unitsofmeasure.org",
          "value": 11.4,
          "unit": "fL",
          "code": "fL"
        },
        "referenceRange": [
          {
            "low": {
              "value": 7.4,
              "code": "fL",
              "system": "http://unitsofmeasure.org"
            }
          },
          {
            "high": {
              "value": 13.8,
              "code": "fL",
              "system": "http://unitsofmeasure.org"
            }
          }
        ],
        "text": {
          "status": "generated",
          "div": "<div xmlns=\"http://www.w3.org/1999/xhtml\"><table class=\"hl7__eu__lab__report\"><tr><th>Test</th><th>27-Jan-2018</th><th>Reference&#xA0;Range</th><th>Unit</th></tr><tr><td>Platelet mean volume [Entitic volume] in Blood by Automated count</td><td>11.4</td><td>7.4 - 13.8</td><td></td><td>fL</td></tr></table></div>"
        },
        "status": "final",
        "subject": {
          "reference": "urn:uuid:678bc19c-9e97-4cf7-bc87-1331b497ac39",
          "display": "Lydia Ward"
        },
        "effectiveDateTime": "2018-01-26T23:08:09Z",
        "specimen": {
          "reference": "urn:uuid:698987dc-75ed-4670-a585-e8bc0cd5361f"
        }
      }
    },
    {
      "fullUrl": "urn:uuid:02981683-774e-4037-b50d-54ee364eaa51",
      "resource": {
        "resourceType": "Device",
        "id": "02981683-774e-4037-b50d-54ee364eaa51",
        "deviceName": [
          {
            "name": "SYNDERAI Synthetic Generator",
            "type": "manufacturer-name"
          }
        ],
        "version": [
          {
            "value": "5.0"
          }
        ],
        "text": {
          "status": "generated",
          "div": "<div xmlns=\"http://www.w3.org/1999/xhtml\">SYNDERAI Synthetic Generator v5.0</div>"
        },
        "status": "active\"",
        "distinctIdentifier": "synderai-generator-50",
        "manufacturer": "SYNDERAI Project"
      }
    },
    {
      "fullUrl": "urn:uuid:2a9f83ad-a993-4181-92c8-7ba878ada55b",
      "resource": {
        "resourceType": "Provenance",
        "id": "2a9f83ad-a993-4181-92c8-7ba878ada55b",
        "target": [
          {
            "reference": "Patient/678bc19c-9e97-4cf7-bc87-1331b497ac39"
          },
          {
            "reference": "Bundle/4a68b89e-2d4c-419a-a888-74994dd44480"
          },
          {
            "reference": "Composition/fe68ab08-558c-47de-ba8c-d62a3d4e88ed"
          },
          {
            "reference": "PractitionerRole/0e4be945-7084-48e9-8518-307e81a523f5"
          },
          {
            "reference": "Practitioner/5ae88981-46f9-492c-96e8-7733b03ac95a"
          },
          {
            "reference": "PractitionerRole/d9f0d306-addf-4922-ad6c-e9f00c369443"
          },
          {
            "reference": "Organization/98d884e3-472d-4a18-8e6e-7603eef36587"
          }
        ],
        "activity": {
          "text": "Synthetic Example Data Generation"
        },
        "policy": [
          "https://synderai.net/synderai-synthetic-data-policy"
        ],
        "agent": [
          {
            "type": {
              "text": "author"
            },
            "who": {
              "reference": "Device/02981683-774e-4037-b50d-54ee364eaa51"
            }
          }
        ],
        "reason": [
          {
            "text": "Interoperability Testing and Training (non-clinical use)"
          }
        ],
        "text": {
          "status": "generated",
          "div": "<div xmlns=\"http://www.w3.org/1999/xhtml\">Provenance for SYNDERAI Synthetic Example Data Resource</div>"
        },
        "recorded": "2018-01-27T00:08:09Z"
      }
    },
    {
      "fullUrl": "urn:uuid:0e4be945-7084-48e9-8518-307e81a523f5",
      "resource": {
        "resourceType": "PractitionerRole",
        "id": "0e4be945-7084-48e9-8518-307e81a523f5",
        "meta": {
          "profile": [
            "http://hl7.eu/fhir/base/StructureDefinition/practitionerRole-eu"
          ]
        },
        "text": {
          "status": "generated",
          "div": "<div xmlns=\"http://www.w3.org/1999/xhtml\">Laboratory Role Id: 0e4be945-7084-48e9-8518-307e81a523f5</div>"
        },
        "practitioner": {
          "reference": "urn:uuid:5ae88981-46f9-492c-96e8-7733b03ac95a"
        }
      }
    },
    {
      "fullUrl": "urn:uuid:5ae88981-46f9-492c-96e8-7733b03ac95a",
      "resource": {
        "resourceType": "Practitioner",
        "id": "5ae88981-46f9-492c-96e8-7733b03ac95a",
        "meta": {
          "profile": [
            "http://hl7.eu/fhir/base/StructureDefinition/practitioner-eu"
          ]
        },
        "identifier": [
          {
            "assigner": {
              "display": "HL7 Europe"
            },
            "system": "urn:oid:2.16.840.1.113883.2.51.999",
            "value": "73082ddc-1394-48bd-ae71-edb1349ead8c"
          }
        ],
        "name": [
          {
            "prefix": [
              "dr"
            ],
            "given": [
              "Ex"
            ],
            "family": "Ample"
          }
        ],
        "address": [
          {
            "line": [
              "Laboratoire Central Europenne",
              "Boulevard du Jardin Botanique 32"
            ],
            "postalCode": "1000",
            "city": "Brussels",
            "country": "Belgium"
          }
        ],
        "text": {
          "status": "generated",
          "div": "<div xmlns=\"http://www.w3.org/1999/xhtml\">Laboratory: Laboratoire Central Europenne, 1000 Brussels, Belgium</div>"
        }
      }
    }
  ],
  "type": "document",
  "timestamp": "2018-01-27T00:08:09Z"
}
