{
  "resourceType": "Bundle",
  "id": "cf761071-9d8a-4260-8637-c7440952dfd1",
  "meta": {
    "profile": [
      "http://hl7.eu/fhir/laboratory/StructureDefinition/Bundle-eu-lab"
    ]
  },
  "identifier": {
    "assigner": {
      "display": "HL7 Europe"
    },
    "system": "urn:oid:2.16.840.1.113883.2.51.999",
    "value": "4461dd56-0ef1-44cc-9436-2d67807ce05b"
  },
  "entry": [
    {
      "fullUrl": "urn:uuid:a698229c-6f4e-4b76-b391-4a688b18e2d9",
      "resource": {
        "resourceType": "Composition",
        "id": "a698229c-6f4e-4b76-b391-4a688b18e2d9",
        "meta": {
          "profile": [
            "http://hl7.eu/fhir/laboratory/StructureDefinition/Composition-eu-lab"
          ]
        },
        "identifier": {
          "assigner": {
            "display": "HL7 Europe"
          },
          "system": "urn:oid:2.16.840.1.113883.2.51.999",
          "value": "8faf7c8e-ab93-4bce-9d2d-91b8b223d818"
        },
        "author": [
          {
            "reference": "urn:uuid:8d5c217a-0897-4d05-b9ec-a66a0742f28a"
          }
        ],
        "category": [
          {
            "coding": [
              {
                "code": "26436-6",
                "system": "http://loinc.org",
                "display": "Laboratory studies (set)"
              }
            ]
          }
        ],
        "type": {
          "coding": [
            {
              "code": "11502-2",
              "system": "http://loinc.org",
              "display": "Laboratory report"
            }
          ],
          "text": "Laboratory Report"
        },
        "section": [
          {
            "code": {
              "coding": [
                {
                  "code": "26436-6",
                  "system": "http://loinc.org",
                  "display": "Laboratory studies (set)"
                }
              ],
              "text": "Laboratory studies"
            },
            "section": [
              {
                "code": {
                  "coding": [
                    {
                      "code": "$18719-5",
                      "system": "http://loinc.org",
                      "display": "Chemistry studies (set)"
                    }
                  ],
                  "text": "Chemistry"
                },
                "entry": [
                  {
                    "reference": "urn:uuid:7d91b063-9e20-4b89-b376-603941796067"
                  },
                  {
                    "reference": "urn:uuid:91e50807-34fd-4c14-b684-6d60b65ed0c3"
                  },
                  {
                    "reference": "urn:uuid:30b45d7d-b86a-407d-a0f1-8cd4252ce026"
                  },
                  {
                    "reference": "urn:uuid:a940aac9-0fbc-4e83-ac51-efe4a284b3a3"
                  },
                  {
                    "reference": "urn:uuid:dcc4e250-4c42-469a-8986-f70c02b2de48"
                  },
                  {
                    "reference": "urn:uuid:3a4ebbae-c1cd-4182-b1e0-ff01627d20d6"
                  },
                  {
                    "reference": "urn:uuid:228b7647-5ba6-48b7-a8e2-3955ebedad70"
                  },
                  {
                    "reference": "urn:uuid:a20f839a-2e3b-4d2f-b5d3-6cd4d0324c67"
                  },
                  {
                    "reference": "urn:uuid:bde89af9-4eec-4b15-9c48-89a92941ab8b"
                  }
                ],
                "text": {
                  "status": "generated",
                  "div": "<div xmlns=\"http://www.w3.org/1999/xhtml\"><h3>Chemistry</h3><table class=\"hl7__eu__lab__report\"><thead><tr><th>Test</th><th>11-NOV-2016</th><th>Reference&#xA0;Range</th><th>Unit</th></tr></thead><tbody><tr><td>Hemoglobin A1c/Hemoglobin.total in Blood</td><td><strong>6.2 H</strong></td><td>4.8 - 5.7</td><td>%</td></tr><tr><td>Glucose [Mass/volume] in Blood</td><td>93.9</td><td>70 - 140</td><td>mg/dL</td></tr><tr><td>Urea nitrogen [Mass/volume] in Blood</td><td>14.3</td><td>7 - 20</td><td>mg/dL</td></tr><tr><td>Creatinine [Mass/volume] in Blood</td><td>1.0</td><td>0.6 - 1.3</td><td>mg/dL</td></tr><tr><td>Calcium [Mass/volume] in Blood</td><td>10.0</td><td>8.5 - 10.5</td><td>mg/dL</td></tr><tr><td>Sodium [Moles/volume] in Blood</td><td>138.7</td><td>135 - 145</td><td>mmol/L</td></tr><tr><td>Potassium [Moles/volume] in Blood</td><td>3.9</td><td>3.5 - 5.1</td><td>mmol/L</td></tr><tr><td>Chloride [Moles/volume] in Blood</td><td>102.9</td><td>98 - 108</td><td>mmol/L</td></tr><tr><td>Carbon dioxide, total [Moles/volume] in Blood</td><td>25.5</td><td>22 - 32</td><td>mmol/L</td></tr></tbody></table></div>"
                },
                "title": "Chemistry"
              }
            ],
            "title": "Laboratory Report"
          },
          {
            "text": {
              "status": "generated",
              "div": "<div xmlns=\"http://www.w3.org/1999/xhtml\"><h3>Annotation</h3><table class=\"hl7__eu__lab__report\"><tr><th>Conclusion and Recommendations based on this report and previous findings known to us</th></tr><tr><td>All laboratory values are within normal limits except for a mildly elevated HbA1c (6.2%), indicating impaired glucose tolerance or possible early diabetes. Renal function, electrolytes, and calcium are normal. Recommend clinical correlation and consideration of lifestyle modification or further evaluation for glycemic control.</td></tr></table></div>"
            },
            "code": {
              "coding": [
                {
                  "system": "http://loinc.org",
                  "code": "48767-8",
                  "display": "Annotation comment"
                }
              ]
            },
            "title": "Annotation comment"
          }
        ],
        "status": "final",
        "subject": {
          "reference": "urn:uuid:64287ab4-775b-4caf-bc45-e74a400adf6d",
          "display": "Leonhard Köhler"
        },
        "date": "2016-11-11T03:48:23Z",
        "title": "Laboratory Report",
        "confidentiality": "N"
      }
    },
    {
      "fullUrl": "urn:uuid:d76d741b-e423-4b48-b571-d760f642b45f",
      "resource": {
        "resourceType": "DiagnosticReport",
        "id": "d76d741b-e423-4b48-b571-d760f642b45f",
        "meta": {
          "profile": [
            "http://hl7.eu/fhir/laboratory/StructureDefinition/DiagnosticReport-eu-lab"
          ]
        },
        "identifier": [
          {
            "assigner": {
              "display": "HL7 Europe"
            },
            "system": "urn:oid:2.16.840.1.113883.2.51.999",
            "value": "7b1b81ae-26eb-4636-9ec5-2a47f1f3a463"
          }
        ],
        "extension": [
          {
            "url": "http://hl7.org/fhir/5.0/StructureDefinition/extension-DiagnosticReport.composition",
            "valueReference": {
              "reference": "urn:uuid:8faf7c8e-ab93-4bce-9d2d-91b8b223d818"
            }
          }
        ],
        "category": [
          {
            "coding": [
              {
                "code": "26436-6",
                "system": "http://loinc.org",
                "display": "Laboratory studies (set)"
              }
            ]
          }
        ],
        "specimen": [
          {
            "reference": "urn:uuid:41f0b935-4079-49d3-8d73-56c5171b8848"
          }
        ],
        "result": [
          {
            "reference": "urn:uuid:7d91b063-9e20-4b89-b376-603941796067"
          },
          {
            "reference": "urn:uuid:91e50807-34fd-4c14-b684-6d60b65ed0c3"
          },
          {
            "reference": "urn:uuid:30b45d7d-b86a-407d-a0f1-8cd4252ce026"
          },
          {
            "reference": "urn:uuid:a940aac9-0fbc-4e83-ac51-efe4a284b3a3"
          },
          {
            "reference": "urn:uuid:dcc4e250-4c42-469a-8986-f70c02b2de48"
          },
          {
            "reference": "urn:uuid:3a4ebbae-c1cd-4182-b1e0-ff01627d20d6"
          },
          {
            "reference": "urn:uuid:228b7647-5ba6-48b7-a8e2-3955ebedad70"
          },
          {
            "reference": "urn:uuid:a20f839a-2e3b-4d2f-b5d3-6cd4d0324c67"
          },
          {
            "reference": "urn:uuid:bde89af9-4eec-4b15-9c48-89a92941ab8b"
          }
        ],
        "status": "registered",
        "code": {
          "coding": [
            {
              "code": "11502-2",
              "system": "http://loinc.org",
              "display": "Laboratory report"
            }
          ]
        },
        "subject": {
          "reference": "urn:uuid:64287ab4-775b-4caf-bc45-e74a400adf6d",
          "display": "Leonhard Köhler"
        }
      }
    },
    {
      "fullUrl": "urn:uuid:64287ab4-775b-4caf-bc45-e74a400adf6d",
      "resource": {
        "resourceType": "Patient",
        "id": "64287ab4-775b-4caf-bc45-e74a400adf6d",
        "meta": {
          "security": [
            {
              "system": "http://terminology.hl7.org/CodeSystem/v3-ActReason",
              "code": "HTEST"
            },
            {
              "system": "http://terminology.hl7.org/CodeSystem/v3-ActReason",
              "code": "TRAIN"
            }
          ],
          "tag": [
            {
              "system": "https://synderai.net/fhir/CodeSystem/tags",
              "code": "synthetic",
              "display": "SYNDERAI Synthetic data"
            }
          ],
          "profile": [
            "http://hl7.eu/fhir/base/StructureDefinition/patient-eu-core"
          ]
        },
        "identifier": [
          {
            "type": {
              "coding": [
                {
                  "code": "PT",
                  "system": "http://terminology.hl7.org/CodeSystem/v2-0203"
                }
              ]
            },
            "system": "http://ec.europa.eu/identifier/eci",
            "value": "5321-442678-4"
          },
          {
            "type": {
              "coding": [
                {
                  "code": "MR",
                  "system": "http://terminology.hl7.org/CodeSystem/v2-0203"
                }
              ]
            },
            "system": "http://local.setting.eu/identifier",
            "value": "ffa9f0d8-c016-d46c-e666-000f53715b47"
          }
        ],
        "name": [
          {
            "family": "Köhler"
          },
          {
            "given": [
              "Leonhard"
            ]
          },
          {
            "text": "Leonhard Köhler"
          }
        ],
        "address": [
          {
            "line": [
              "Henckweg 97/34"
            ],
            "use": "home",
            "type": "physical",
            "postalCode": "87629",
            "city": "Füssen",
            "country": "Germany"
          }
        ],
        "telecom": [
          {
            "system": "phone",
            "value": "00028839855"
          }
        ],
        "extension": [
          {
            "url": "http://hl7.org/fhir/StructureDefinition/patient-nationality",
            "valueCodeableConcept": {
              "coding": [
                {
                  "code": "DE",
                  "system": "http://hl7.org/fhir/ValueSet/country"
                }
              ]
            }
          }
        ],
        "text": {
          "status": "generated",
          "div": "<div xmlns=\"http://www.w3.org/1999/xhtml\"><table class=\"hl7__ips\"><tr><td>Leonhard Köhler</td><td>male</td><td>19-Dec-1949</td></tr></table></div>"
        },
        "gender": "male",
        "birthDate": "1949-12-19"
      }
    },
    {
      "fullUrl": "urn:uuid:e8d66b61-1ae9-42e8-b369-354a8845f3f6",
      "resource": {
        "resourceType": "ServiceRequest",
        "id": "e8d66b61-1ae9-42e8-b369-354a8845f3f6",
        "meta": {
          "profile": [
            "http://hl7.eu/fhir/laboratory/StructureDefinition/ServiceRequest-eu-lab"
          ]
        },
        "identifier": [
          {
            "system": "http://example.org",
            "value": "d25b0a05-a90e-4622-971d-db2e1f39207b"
          }
        ],
        "specimen": [
          {
            "reference": "urn:uuid:41f0b935-4079-49d3-8d73-56c5171b8848"
          }
        ],
        "reasonCode": [
          {
            "coding": [
              {
                "code": "55822004",
                "system": "http://snomed.info/sct",
                "display": "Hyperlipidemia"
              }
            ]
          },
          {
            "coding": [
              {
                "code": "414545008",
                "system": "http://snomed.info/sct",
                "display": "Ischemic heart disease"
              }
            ]
          },
          {
            "coding": [
              {
                "code": "59621000",
                "system": "http://snomed.info/sct",
                "display": "Essential hypertension"
              }
            ]
          },
          {
            "coding": [
              {
                "code": "239873007",
                "system": "http://snomed.info/sct",
                "display": "Osteoarthritis of knee"
              }
            ]
          },
          {
            "coding": [
              {
                "code": "271737000",
                "system": "http://snomed.info/sct",
                "display": "Anemia"
              }
            ]
          },
          {
            "coding": [
              {
                "code": "15777000",
                "system": "http://snomed.info/sct",
                "display": "Prediabetes"
              }
            ]
          }
        ],
        "status": "active",
        "intent": "order",
        "code": {
          "coding": [
            {
              "code": "108252007",
              "system": "http://snomed.info/sct",
              "display": "Laboratory procedure"
            }
          ]
        },
        "subject": {
          "reference": "urn:uuid:64287ab4-775b-4caf-bc45-e74a400adf6d",
          "display": "Leonhard Köhler"
        },
        "requester": {
          "reference": "urn:uuid:7668849b-78ac-4ded-bd4f-7c14b37b2ff4"
        }
      }
    },
    {
      "fullUrl": "urn:uuid:7668849b-78ac-4ded-bd4f-7c14b37b2ff4",
      "resource": {
        "resourceType": "PractitionerRole",
        "id": "7668849b-78ac-4ded-bd4f-7c14b37b2ff4",
        "meta": {
          "profile": [
            "http://hl7.eu/fhir/base/StructureDefinition/practitionerRole-eu"
          ]
        },
        "text": {
          "status": "generated",
          "div": "<div xmlns=\"http://www.w3.org/1999/xhtml\">Provider Role Id: 7668849b-78ac-4ded-bd4f-7c14b37b2ff4</div>"
        },
        "organization": {
          "reference": "urn:uuid:c9d27543-c975-45d6-9895-06312fc628e4"
        }
      }
    },
    {
      "fullUrl": "urn:uuid:c9d27543-c975-45d6-9895-06312fc628e4",
      "resource": {
        "resourceType": "Organization",
        "id": "c9d27543-c975-45d6-9895-06312fc628e4",
        "meta": {
          "profile": [
            "http://hl7.eu/fhir/base/StructureDefinition/organization-eu"
          ]
        },
        "identifier": [
          {
            "assigner": {
              "display": "HL7 Europe"
            },
            "system": "urn:oid:2.16.840.1.113883.2.51.999",
            "value": "7cb623ed-6ef8-4647-b3e1-ec9bd22d0bd7"
          }
        ],
        "address": [
          {
            "line": [
              "Feistlestraße 2"
            ],
            "city": "Füssen",
            "postalCode": "87629",
            "country": "Germany"
          }
        ],
        "text": {
          "status": "generated",
          "div": "<div xmlns=\"http://www.w3.org/1999/xhtml\">Provider Organization: hier ist kein Ärztehaus</div>"
        },
        "name": "hier ist kein Ärztehaus"
      }
    },
    {
      "fullUrl": "urn:uuid:41f0b935-4079-49d3-8d73-56c5171b8848",
      "resource": {
        "resourceType": "Specimen",
        "id": "41f0b935-4079-49d3-8d73-56c5171b8848",
        "meta": {
          "profile": [
            "http://hl7.eu/fhir/laboratory/StructureDefinition/Specimen-eu-lab"
          ]
        },
        "collection": {
          "collectedDateTime": "2016-11-11"
        },
        "text": {
          "status": "generated",
          "div": "<div xmlns=\"http://www.w3.org/1999/xhtml\"><table class=\"hl7__eu__lab__report\"><tr><th>Specimen</th><th>Collection Date</th></tr><tr><td>Whole blood specimen (specimen)</td><td><span class=\"nb\">11-Nov-2016</span></td></tr></table></div>"
        },
        "type": {
          "coding": [
            {
              "code": "258580003",
              "system": "http://snomed.info/sct",
              "display": "Whole blood specimen (specimen)"
            }
          ]
        }
      }
    },
    {
      "fullUrl": "urn:uuid:7d91b063-9e20-4b89-b376-603941796067",
      "resource": {
        "resourceType": "Observation",
        "id": "7d91b063-9e20-4b89-b376-603941796067",
        "meta": {
          "profile": [
            "http://hl7.eu/fhir/laboratory/StructureDefinition/Observation-resultslab-eu-lab"
          ]
        },
        "performer": [
          {
            "display": "The Central European Lab"
          }
        ],
        "category": [
          {
            "coding": [
              {
                "system": "http://terminology.hl7.org/CodeSystem/observation-category",
                "code": "laboratory"
              }
            ]
          }
        ],
        "code": {
          "coding": [
            {
              "code": "4548-4",
              "system": "http://loinc.org",
              "display": "Hemoglobin A1c/Hemoglobin.total in Blood"
            }
          ],
          "text": "Hemoglobin A1c/Hemoglobin.total in Blood"
        },
        "valueQuantity": {
          "system": "http://unitsofmeasure.org",
          "value": 6.2,
          "unit": "%",
          "code": "%"
        },
        "referenceRange": [
          {
            "low": {
              "value": 4.8,
              "code": "%",
              "system": "http://unitsofmeasure.org"
            }
          },
          {
            "high": {
              "value": 5.7,
              "code": "%",
              "system": "http://unitsofmeasure.org"
            }
          }
        ],
        "interpretation": [
          {
            "coding": [
              {
                "code": "H",
                "system": "http://terminology.hl7.org/CodeSystem/v3-ObservationInterpretation",
                "display": "High"
              }
            ]
          }
        ],
        "text": {
          "status": "generated",
          "div": "<div xmlns=\"http://www.w3.org/1999/xhtml\"><table class=\"hl7__eu__lab__report\"><tr><th>Test</th><th>11-Nov-2016</th><th>Reference&#xA0;Range</th><th>Unit</th></tr><tr><td>Hemoglobin A1c/Hemoglobin.total in Blood</td><td>6.2</td><td>4.8 - 5.7</td><td>H</td><td>%</td></tr></table></div>"
        },
        "status": "final",
        "subject": {
          "reference": "urn:uuid:64287ab4-775b-4caf-bc45-e74a400adf6d",
          "display": "Leonhard Köhler"
        },
        "effectiveDateTime": "2016-11-11T02:48:23Z",
        "specimen": {
          "reference": "urn:uuid:41f0b935-4079-49d3-8d73-56c5171b8848"
        }
      }
    },
    {
      "fullUrl": "urn:uuid:91e50807-34fd-4c14-b684-6d60b65ed0c3",
      "resource": {
        "resourceType": "Observation",
        "id": "91e50807-34fd-4c14-b684-6d60b65ed0c3",
        "meta": {
          "profile": [
            "http://hl7.eu/fhir/laboratory/StructureDefinition/Observation-resultslab-eu-lab"
          ]
        },
        "performer": [
          {
            "display": "The Central European Lab"
          }
        ],
        "category": [
          {
            "coding": [
              {
                "system": "http://terminology.hl7.org/CodeSystem/observation-category",
                "code": "laboratory"
              }
            ]
          }
        ],
        "code": {
          "coding": [
            {
              "code": "2339-0",
              "system": "http://loinc.org",
              "display": "Glucose [Mass/volume] in Blood"
            }
          ],
          "text": "Glucose [Mass/volume] in Blood"
        },
        "valueQuantity": {
          "system": "http://unitsofmeasure.org",
          "value": 93.9,
          "unit": "mg/dL",
          "code": "mg/dL"
        },
        "referenceRange": [
          {
            "low": {
              "value": 70,
              "code": "mg/dL",
              "system": "http://unitsofmeasure.org"
            }
          },
          {
            "high": {
              "value": 140,
              "code": "mg/dL",
              "system": "http://unitsofmeasure.org"
            }
          }
        ],
        "text": {
          "status": "generated",
          "div": "<div xmlns=\"http://www.w3.org/1999/xhtml\"><table class=\"hl7__eu__lab__report\"><tr><th>Test</th><th>11-Nov-2016</th><th>Reference&#xA0;Range</th><th>Unit</th></tr><tr><td>Glucose [Mass/volume] in Blood</td><td>93.9</td><td>70 - 140</td><td></td><td>mg/dL</td></tr></table></div>"
        },
        "status": "final",
        "subject": {
          "reference": "urn:uuid:64287ab4-775b-4caf-bc45-e74a400adf6d",
          "display": "Leonhard Köhler"
        },
        "effectiveDateTime": "2016-11-11T02:48:23Z",
        "specimen": {
          "reference": "urn:uuid:41f0b935-4079-49d3-8d73-56c5171b8848"
        }
      }
    },
    {
      "fullUrl": "urn:uuid:30b45d7d-b86a-407d-a0f1-8cd4252ce026",
      "resource": {
        "resourceType": "Observation",
        "id": "30b45d7d-b86a-407d-a0f1-8cd4252ce026",
        "meta": {
          "profile": [
            "http://hl7.eu/fhir/laboratory/StructureDefinition/Observation-resultslab-eu-lab"
          ]
        },
        "performer": [
          {
            "display": "The Central European Lab"
          }
        ],
        "category": [
          {
            "coding": [
              {
                "system": "http://terminology.hl7.org/CodeSystem/observation-category",
                "code": "laboratory"
              }
            ]
          }
        ],
        "code": {
          "coding": [
            {
              "code": "6299-2",
              "system": "http://loinc.org",
              "display": "Urea nitrogen [Mass/volume] in Blood"
            }
          ],
          "text": "Urea nitrogen [Mass/volume] in Blood"
        },
        "valueQuantity": {
          "system": "http://unitsofmeasure.org",
          "value": 14.3,
          "unit": "mg/dL",
          "code": "mg/dL"
        },
        "referenceRange": [
          {
            "low": {
              "value": 7,
              "code": "mg/dL",
              "system": "http://unitsofmeasure.org"
            }
          },
          {
            "high": {
              "value": 20,
              "code": "mg/dL",
              "system": "http://unitsofmeasure.org"
            }
          }
        ],
        "text": {
          "status": "generated",
          "div": "<div xmlns=\"http://www.w3.org/1999/xhtml\"><table class=\"hl7__eu__lab__report\"><tr><th>Test</th><th>11-Nov-2016</th><th>Reference&#xA0;Range</th><th>Unit</th></tr><tr><td>Urea nitrogen [Mass/volume] in Blood</td><td>14.3</td><td>7 - 20</td><td></td><td>mg/dL</td></tr></table></div>"
        },
        "status": "final",
        "subject": {
          "reference": "urn:uuid:64287ab4-775b-4caf-bc45-e74a400adf6d",
          "display": "Leonhard Köhler"
        },
        "effectiveDateTime": "2016-11-11T02:48:23Z",
        "specimen": {
          "reference": "urn:uuid:41f0b935-4079-49d3-8d73-56c5171b8848"
        }
      }
    },
    {
      "fullUrl": "urn:uuid:a940aac9-0fbc-4e83-ac51-efe4a284b3a3",
      "resource": {
        "resourceType": "Observation",
        "id": "a940aac9-0fbc-4e83-ac51-efe4a284b3a3",
        "meta": {
          "profile": [
            "http://hl7.eu/fhir/laboratory/StructureDefinition/Observation-resultslab-eu-lab"
          ]
        },
        "performer": [
          {
            "display": "The Central European Lab"
          }
        ],
        "category": [
          {
            "coding": [
              {
                "system": "http://terminology.hl7.org/CodeSystem/observation-category",
                "code": "laboratory"
              }
            ]
          }
        ],
        "code": {
          "coding": [
            {
              "code": "38483-4",
              "system": "http://loinc.org",
              "display": "Creatinine [Mass/volume] in Blood"
            }
          ],
          "text": "Creatinine [Mass/volume] in Blood"
        },
        "valueQuantity": {
          "system": "http://unitsofmeasure.org",
          "value": 1,
          "unit": "mg/dL",
          "code": "mg/dL"
        },
        "referenceRange": [
          {
            "low": {
              "value": 0.6,
              "code": "mg/dL",
              "system": "http://unitsofmeasure.org"
            }
          },
          {
            "high": {
              "value": 1.3,
              "code": "mg/dL",
              "system": "http://unitsofmeasure.org"
            }
          }
        ],
        "text": {
          "status": "generated",
          "div": "<div xmlns=\"http://www.w3.org/1999/xhtml\"><table class=\"hl7__eu__lab__report\"><tr><th>Test</th><th>11-Nov-2016</th><th>Reference&#xA0;Range</th><th>Unit</th></tr><tr><td>Creatinine [Mass/volume] in Blood</td><td>1.0</td><td>0.6 - 1.3</td><td></td><td>mg/dL</td></tr></table></div>"
        },
        "status": "final",
        "subject": {
          "reference": "urn:uuid:64287ab4-775b-4caf-bc45-e74a400adf6d",
          "display": "Leonhard Köhler"
        },
        "effectiveDateTime": "2016-11-11T02:48:23Z",
        "specimen": {
          "reference": "urn:uuid:41f0b935-4079-49d3-8d73-56c5171b8848"
        }
      }
    },
    {
      "fullUrl": "urn:uuid:dcc4e250-4c42-469a-8986-f70c02b2de48",
      "resource": {
        "resourceType": "Observation",
        "id": "dcc4e250-4c42-469a-8986-f70c02b2de48",
        "meta": {
          "profile": [
            "http://hl7.eu/fhir/laboratory/StructureDefinition/Observation-resultslab-eu-lab"
          ]
        },
        "performer": [
          {
            "display": "The Central European Lab"
          }
        ],
        "category": [
          {
            "coding": [
              {
                "system": "http://terminology.hl7.org/CodeSystem/observation-category",
                "code": "laboratory"
              }
            ]
          }
        ],
        "code": {
          "coding": [
            {
              "code": "49765-1",
              "system": "http://loinc.org",
              "display": "Calcium [Mass/volume] in Blood"
            }
          ],
          "text": "Calcium [Mass/volume] in Blood"
        },
        "valueQuantity": {
          "system": "http://unitsofmeasure.org",
          "value": 10,
          "unit": "mg/dL",
          "code": "mg/dL"
        },
        "referenceRange": [
          {
            "low": {
              "value": 8.5,
              "code": "mg/dL",
              "system": "http://unitsofmeasure.org"
            }
          },
          {
            "high": {
              "value": 10.5,
              "code": "mg/dL",
              "system": "http://unitsofmeasure.org"
            }
          }
        ],
        "text": {
          "status": "generated",
          "div": "<div xmlns=\"http://www.w3.org/1999/xhtml\"><table class=\"hl7__eu__lab__report\"><tr><th>Test</th><th>11-Nov-2016</th><th>Reference&#xA0;Range</th><th>Unit</th></tr><tr><td>Calcium [Mass/volume] in Blood</td><td>10.0</td><td>8.5 - 10.5</td><td></td><td>mg/dL</td></tr></table></div>"
        },
        "status": "final",
        "subject": {
          "reference": "urn:uuid:64287ab4-775b-4caf-bc45-e74a400adf6d",
          "display": "Leonhard Köhler"
        },
        "effectiveDateTime": "2016-11-11T02:48:23Z",
        "specimen": {
          "reference": "urn:uuid:41f0b935-4079-49d3-8d73-56c5171b8848"
        }
      }
    },
    {
      "fullUrl": "urn:uuid:3a4ebbae-c1cd-4182-b1e0-ff01627d20d6",
      "resource": {
        "resourceType": "Observation",
        "id": "3a4ebbae-c1cd-4182-b1e0-ff01627d20d6",
        "meta": {
          "profile": [
            "http://hl7.eu/fhir/laboratory/StructureDefinition/Observation-resultslab-eu-lab"
          ]
        },
        "performer": [
          {
            "display": "The Central European Lab"
          }
        ],
        "category": [
          {
            "coding": [
              {
                "system": "http://terminology.hl7.org/CodeSystem/observation-category",
                "code": "laboratory"
              }
            ]
          }
        ],
        "code": {
          "coding": [
            {
              "code": "2947-0",
              "system": "http://loinc.org",
              "display": "Sodium [Moles/volume] in Blood"
            }
          ],
          "text": "Sodium [Moles/volume] in Blood"
        },
        "valueQuantity": {
          "system": "http://unitsofmeasure.org",
          "value": 138.7,
          "unit": "mmol/L",
          "code": "mmol/L"
        },
        "referenceRange": [
          {
            "low": {
              "value": 135,
              "code": "mmol/L",
              "system": "http://unitsofmeasure.org"
            }
          },
          {
            "high": {
              "value": 145,
              "code": "mmol/L",
              "system": "http://unitsofmeasure.org"
            }
          }
        ],
        "text": {
          "status": "generated",
          "div": "<div xmlns=\"http://www.w3.org/1999/xhtml\"><table class=\"hl7__eu__lab__report\"><tr><th>Test</th><th>11-Nov-2016</th><th>Reference&#xA0;Range</th><th>Unit</th></tr><tr><td>Sodium [Moles/volume] in Blood</td><td>138.7</td><td>135 - 145</td><td></td><td>mmol/L</td></tr></table></div>"
        },
        "status": "final",
        "subject": {
          "reference": "urn:uuid:64287ab4-775b-4caf-bc45-e74a400adf6d",
          "display": "Leonhard Köhler"
        },
        "effectiveDateTime": "2016-11-11T02:48:23Z",
        "specimen": {
          "reference": "urn:uuid:41f0b935-4079-49d3-8d73-56c5171b8848"
        }
      }
    },
    {
      "fullUrl": "urn:uuid:228b7647-5ba6-48b7-a8e2-3955ebedad70",
      "resource": {
        "resourceType": "Observation",
        "id": "228b7647-5ba6-48b7-a8e2-3955ebedad70",
        "meta": {
          "profile": [
            "http://hl7.eu/fhir/laboratory/StructureDefinition/Observation-resultslab-eu-lab"
          ]
        },
        "performer": [
          {
            "display": "The Central European Lab"
          }
        ],
        "category": [
          {
            "coding": [
              {
                "system": "http://terminology.hl7.org/CodeSystem/observation-category",
                "code": "laboratory"
              }
            ]
          }
        ],
        "code": {
          "coding": [
            {
              "code": "6298-4",
              "system": "http://loinc.org",
              "display": "Potassium [Moles/volume] in Blood"
            }
          ],
          "text": "Potassium [Moles/volume] in Blood"
        },
        "valueQuantity": {
          "system": "http://unitsofmeasure.org",
          "value": 3.9,
          "unit": "mmol/L",
          "code": "mmol/L"
        },
        "referenceRange": [
          {
            "low": {
              "value": 3.5,
              "code": "mmol/L",
              "system": "http://unitsofmeasure.org"
            }
          },
          {
            "high": {
              "value": 5.1,
              "code": "mmol/L",
              "system": "http://unitsofmeasure.org"
            }
          }
        ],
        "text": {
          "status": "generated",
          "div": "<div xmlns=\"http://www.w3.org/1999/xhtml\"><table class=\"hl7__eu__lab__report\"><tr><th>Test</th><th>11-Nov-2016</th><th>Reference&#xA0;Range</th><th>Unit</th></tr><tr><td>Potassium [Moles/volume] in Blood</td><td>3.9</td><td>3.5 - 5.1</td><td></td><td>mmol/L</td></tr></table></div>"
        },
        "status": "final",
        "subject": {
          "reference": "urn:uuid:64287ab4-775b-4caf-bc45-e74a400adf6d",
          "display": "Leonhard Köhler"
        },
        "effectiveDateTime": "2016-11-11T02:48:23Z",
        "specimen": {
          "reference": "urn:uuid:41f0b935-4079-49d3-8d73-56c5171b8848"
        }
      }
    },
    {
      "fullUrl": "urn:uuid:a20f839a-2e3b-4d2f-b5d3-6cd4d0324c67",
      "resource": {
        "resourceType": "Observation",
        "id": "a20f839a-2e3b-4d2f-b5d3-6cd4d0324c67",
        "meta": {
          "profile": [
            "http://hl7.eu/fhir/laboratory/StructureDefinition/Observation-resultslab-eu-lab"
          ]
        },
        "performer": [
          {
            "display": "The Central European Lab"
          }
        ],
        "category": [
          {
            "coding": [
              {
                "system": "http://terminology.hl7.org/CodeSystem/observation-category",
                "code": "laboratory"
              }
            ]
          }
        ],
        "code": {
          "coding": [
            {
              "code": "2069-3",
              "system": "http://loinc.org",
              "display": "Chloride [Moles/volume] in Blood"
            }
          ],
          "text": "Chloride [Moles/volume] in Blood"
        },
        "valueQuantity": {
          "system": "http://unitsofmeasure.org",
          "value": 102.9,
          "unit": "mmol/L",
          "code": "mmol/L"
        },
        "referenceRange": [
          {
            "low": {
              "value": 98,
              "code": "mmol/L",
              "system": "http://unitsofmeasure.org"
            }
          },
          {
            "high": {
              "value": 108,
              "code": "mmol/L",
              "system": "http://unitsofmeasure.org"
            }
          }
        ],
        "text": {
          "status": "generated",
          "div": "<div xmlns=\"http://www.w3.org/1999/xhtml\"><table class=\"hl7__eu__lab__report\"><tr><th>Test</th><th>11-Nov-2016</th><th>Reference&#xA0;Range</th><th>Unit</th></tr><tr><td>Chloride [Moles/volume] in Blood</td><td>102.9</td><td>98 - 108</td><td></td><td>mmol/L</td></tr></table></div>"
        },
        "status": "final",
        "subject": {
          "reference": "urn:uuid:64287ab4-775b-4caf-bc45-e74a400adf6d",
          "display": "Leonhard Köhler"
        },
        "effectiveDateTime": "2016-11-11T02:48:23Z",
        "specimen": {
          "reference": "urn:uuid:41f0b935-4079-49d3-8d73-56c5171b8848"
        }
      }
    },
    {
      "fullUrl": "urn:uuid:bde89af9-4eec-4b15-9c48-89a92941ab8b",
      "resource": {
        "resourceType": "Observation",
        "id": "bde89af9-4eec-4b15-9c48-89a92941ab8b",
        "meta": {
          "profile": [
            "http://hl7.eu/fhir/laboratory/StructureDefinition/Observation-resultslab-eu-lab"
          ]
        },
        "performer": [
          {
            "display": "The Central European Lab"
          }
        ],
        "category": [
          {
            "coding": [
              {
                "system": "http://terminology.hl7.org/CodeSystem/observation-category",
                "code": "laboratory"
              }
            ]
          }
        ],
        "code": {
          "coding": [
            {
              "code": "20565-8",
              "system": "http://loinc.org",
              "display": "Carbon dioxide, total [Moles/volume] in Blood"
            }
          ],
          "text": "Carbon dioxide, total [Moles/volume] in Blood"
        },
        "valueQuantity": {
          "system": "http://unitsofmeasure.org",
          "value": 25.5,
          "unit": "mmol/L",
          "code": "mmol/L"
        },
        "referenceRange": [
          {
            "low": {
              "value": 22,
              "code": "mmol/L",
              "system": "http://unitsofmeasure.org"
            }
          },
          {
            "high": {
              "value": 32,
              "code": "mmol/L",
              "system": "http://unitsofmeasure.org"
            }
          }
        ],
        "text": {
          "status": "generated",
          "div": "<div xmlns=\"http://www.w3.org/1999/xhtml\"><table class=\"hl7__eu__lab__report\"><tr><th>Test</th><th>11-Nov-2016</th><th>Reference&#xA0;Range</th><th>Unit</th></tr><tr><td>Carbon dioxide, total [Moles/volume] in Blood</td><td>25.5</td><td>22 - 32</td><td></td><td>mmol/L</td></tr></table></div>"
        },
        "status": "final",
        "subject": {
          "reference": "urn:uuid:64287ab4-775b-4caf-bc45-e74a400adf6d",
          "display": "Leonhard Köhler"
        },
        "effectiveDateTime": "2016-11-11T02:48:23Z",
        "specimen": {
          "reference": "urn:uuid:41f0b935-4079-49d3-8d73-56c5171b8848"
        }
      }
    },
    {
      "fullUrl": "urn:uuid:2199332a-02a1-4ac2-b374-3c17a8d5d281",
      "resource": {
        "resourceType": "Device",
        "id": "2199332a-02a1-4ac2-b374-3c17a8d5d281",
        "deviceName": [
          {
            "name": "SYNDERAI Synthetic Generator",
            "type": "manufacturer-name"
          }
        ],
        "version": [
          {
            "value": "5.0"
          }
        ],
        "text": {
          "status": "generated",
          "div": "<div xmlns=\"http://www.w3.org/1999/xhtml\">SYNDERAI Synthetic Generator v5.0</div>"
        },
        "status": "active\"",
        "distinctIdentifier": "synderai-generator-50",
        "manufacturer": "SYNDERAI Project"
      }
    },
    {
      "fullUrl": "urn:uuid:a0d36ee5-018d-4d84-8a05-02aa171d79b4",
      "resource": {
        "resourceType": "Provenance",
        "id": "a0d36ee5-018d-4d84-8a05-02aa171d79b4",
        "target": [
          {
            "reference": "Patient/64287ab4-775b-4caf-bc45-e74a400adf6d"
          },
          {
            "reference": "Bundle/cf761071-9d8a-4260-8637-c7440952dfd1"
          },
          {
            "reference": "Composition/a698229c-6f4e-4b76-b391-4a688b18e2d9"
          },
          {
            "reference": "PractitionerRole/8d5c217a-0897-4d05-b9ec-a66a0742f28a"
          },
          {
            "reference": "Practitioner/5b34bc71-5f3a-4793-a906-b7b6c886ac56"
          },
          {
            "reference": "PractitionerRole/7668849b-78ac-4ded-bd4f-7c14b37b2ff4"
          },
          {
            "reference": "Organization/c9d27543-c975-45d6-9895-06312fc628e4"
          }
        ],
        "activity": {
          "text": "Synthetic Example Data Generation"
        },
        "policy": [
          "https://synderai.net/synderai-synthetic-data-policy"
        ],
        "agent": [
          {
            "type": {
              "text": "author"
            },
            "who": {
              "reference": "Device/2199332a-02a1-4ac2-b374-3c17a8d5d281"
            }
          }
        ],
        "reason": [
          {
            "text": "Interoperability Testing and Training (non-clinical use)"
          }
        ],
        "text": {
          "status": "generated",
          "div": "<div xmlns=\"http://www.w3.org/1999/xhtml\">Provenance for SYNDERAI Synthetic Example Data Resource</div>"
        },
        "recorded": "2016-11-11T03:48:23Z"
      }
    },
    {
      "fullUrl": "urn:uuid:8d5c217a-0897-4d05-b9ec-a66a0742f28a",
      "resource": {
        "resourceType": "PractitionerRole",
        "id": "8d5c217a-0897-4d05-b9ec-a66a0742f28a",
        "meta": {
          "profile": [
            "http://hl7.eu/fhir/base/StructureDefinition/practitionerRole-eu"
          ]
        },
        "text": {
          "status": "generated",
          "div": "<div xmlns=\"http://www.w3.org/1999/xhtml\">Laboratory Role Id: 8d5c217a-0897-4d05-b9ec-a66a0742f28a</div>"
        },
        "practitioner": {
          "reference": "urn:uuid:5b34bc71-5f3a-4793-a906-b7b6c886ac56"
        }
      }
    },
    {
      "fullUrl": "urn:uuid:5b34bc71-5f3a-4793-a906-b7b6c886ac56",
      "resource": {
        "resourceType": "Practitioner",
        "id": "5b34bc71-5f3a-4793-a906-b7b6c886ac56",
        "meta": {
          "profile": [
            "http://hl7.eu/fhir/base/StructureDefinition/practitioner-eu"
          ]
        },
        "identifier": [
          {
            "assigner": {
              "display": "HL7 Europe"
            },
            "system": "urn:oid:2.16.840.1.113883.2.51.999",
            "value": "e6a6004d-a7ae-49f0-bad9-84c2bb9bda61"
          }
        ],
        "name": [
          {
            "prefix": [
              "dr"
            ],
            "given": [
              "Ex"
            ],
            "family": "Ample"
          }
        ],
        "address": [
          {
            "line": [
              "Laboratoire Central Européenne",
              "Boulevard du Jardin Botanique 32"
            ],
            "postalCode": "1000",
            "city": "Brussels",
            "country": "Belgium"
          }
        ],
        "text": {
          "status": "generated",
          "div": "<div xmlns=\"http://www.w3.org/1999/xhtml\">Laboratory: Laboratoire Central Européenne, 1000 Brussels, Belgium</div>"
        }
      }
    }
  ],
  "type": "document",
  "timestamp": "2016-11-11T03:48:23Z"
}
