{
  "resourceType": "Bundle",
  "id": "c0b02a91-23f3-4317-b6bb-bbc0360705b6",
  "meta": {
    "profile": [
      "http://hl7.eu/fhir/laboratory/StructureDefinition/Bundle-eu-lab"
    ]
  },
  "identifier": {
    "assigner": {
      "display": "HL7 Europe"
    },
    "system": "urn:oid:2.16.840.1.113883.2.51.999",
    "value": "17c79ac2-6238-43b4-ba6f-4be1591e9843"
  },
  "entry": [
    {
      "fullUrl": "urn:uuid:7da76482-4433-488f-9775-6bd8c70fa523",
      "resource": {
        "resourceType": "Composition",
        "id": "7da76482-4433-488f-9775-6bd8c70fa523",
        "meta": {
          "profile": [
            "http://hl7.eu/fhir/laboratory/StructureDefinition/Composition-eu-lab"
          ]
        },
        "identifier": {
          "assigner": {
            "display": "HL7 Europe"
          },
          "system": "urn:oid:2.16.840.1.113883.2.51.999",
          "value": "0364e112-cd30-4629-a1a1-84a7a54f0f2a"
        },
        "author": [
          {
            "reference": "urn:uuid:ddf98c13-d4a3-4866-bc99-fcc3859f22cb"
          }
        ],
        "category": [
          {
            "coding": [
              {
                "code": "26436-6",
                "system": "http://loinc.org",
                "display": "Laboratory studies (set)"
              }
            ]
          }
        ],
        "type": {
          "coding": [
            {
              "code": "11502-2",
              "system": "http://loinc.org",
              "display": "Laboratory report"
            }
          ],
          "text": "Laboratory Report"
        },
        "section": [
          {
            "code": {
              "coding": [
                {
                  "code": "26436-6",
                  "system": "http://loinc.org",
                  "display": "Laboratory studies (set)"
                }
              ],
              "text": "Laboratory studies"
            },
            "section": [
              {
                "code": {
                  "coding": [
                    {
                      "code": "$18719-5",
                      "system": "http://loinc.org",
                      "display": "Chemistry studies (set)"
                    }
                  ],
                  "text": "Chemistry"
                },
                "entry": [
                  {
                    "reference": "urn:uuid:1fab2d0c-4c50-45e9-b4d8-9c6d9406ccec"
                  },
                  {
                    "reference": "urn:uuid:7d6a5544-ba2f-4bfc-b918-3ae638757585"
                  },
                  {
                    "reference": "urn:uuid:919eccde-34cd-4b6e-82d9-3d953d3199ec"
                  },
                  {
                    "reference": "urn:uuid:0a7ea0cc-4771-42c6-acb8-2d57ead5c3ea"
                  },
                  {
                    "reference": "urn:uuid:80d6b945-6f2f-422b-b202-c0a9e0e9572a"
                  },
                  {
                    "reference": "urn:uuid:3603bead-f74f-4d6e-8e29-0924ce45935b"
                  },
                  {
                    "reference": "urn:uuid:83369f67-c84a-4c9e-8345-28f4c71296a2"
                  },
                  {
                    "reference": "urn:uuid:7bed4eee-daf9-4791-a8ba-c195c9458901"
                  },
                  {
                    "reference": "urn:uuid:8dd845f4-b003-4c7e-9572-d0236ef800f9"
                  },
                  {
                    "reference": "urn:uuid:d4eaabba-9f07-469c-9224-19dffff91d5f"
                  },
                  {
                    "reference": "urn:uuid:5208c6ed-fc3a-46cf-b6c5-db618c6ac026"
                  },
                  {
                    "reference": "urn:uuid:d2fc9f5a-ab34-4070-8259-2ade197af614"
                  },
                  {
                    "reference": "urn:uuid:e5f40b47-215a-4169-97bf-afd6bc096013"
                  },
                  {
                    "reference": "urn:uuid:92e0ae49-ac91-4042-ae52-3dde103b2a47"
                  },
                  {
                    "reference": "urn:uuid:e4efc272-04b2-40cb-bc81-24ecf8518611"
                  },
                  {
                    "reference": "urn:uuid:ccfa7c1e-d080-44c0-8c5e-fae122464cd1"
                  },
                  {
                    "reference": "urn:uuid:65b44f26-4654-4ed7-968f-704f45a0eb2e"
                  },
                  {
                    "reference": "urn:uuid:6021b3de-bebb-4040-9d7c-110e6e2b856e"
                  }
                ],
                "text": {
                  "status": "generated",
                  "div": "<div xmlns=\"http://www.w3.org/1999/xhtml\"><h3>Chemistry</h3><table class=\"hl7__eu__lab__report\"><thead><tr><th>Test</th><th>17-MAY-2024</th><th>Reference&#xA0;Range</th><th>Unit</th></tr></thead><tbody><tr><td>Glucose [Mass/volume] in Serum or Plasma</td><td>92.3</td><td>70 - 140</td><td>mg/dL</td></tr><tr><td>Urea nitrogen [Mass/volume] in Serum or Plasma</td><td>8.0</td><td>7 - 20</td><td>mg/dL</td></tr><tr><td>Creatinine [Mass/volume] in Serum or Plasma</td><td><strong>1.9 H</strong></td><td>0.9 - 1.3</td><td>mg/dL</td></tr><tr><td>Calcium [Mass/volume] in Serum or Plasma</td><td>9.1</td><td>8.5 - 10.5</td><td>mg/dL</td></tr><tr><td>Sodium [Moles/volume] in Serum or Plasma</td><td>142.1</td><td>135 - 145</td><td>mmol/L</td></tr><tr><td>Potassium [Moles/volume] in Serum or Plasma</td><td>4.6</td><td>3.5 - 5.3</td><td>mmol/L</td></tr><tr><td>Chloride [Moles/volume] in Serum or Plasma</td><td><strong>109.6 H</strong></td><td>98 - 107</td><td>mmol/L</td></tr><tr><td>Carbon dioxide, total [Moles/volume] in Serum or Plasma</td><td>25.1</td><td>22 - 33</td><td>mmol/L</td></tr><tr><td>Ketones [Presence] in Urine by Test strip</td><td>Urine ketone test = ++</td><td></td><td></td></tr><tr><td>Hemoglobin A1c/Hemoglobin.total in Blood</td><td><strong>3.2 L</strong></td><td>4.3 - 6</td><td>%</td></tr><tr><td>Glucose [Mass/volume] in Blood</td><td>92.3</td><td>70 - 140</td><td>mg/dL</td></tr><tr><td>Urea nitrogen [Mass/volume] in Blood</td><td>8.0</td><td>7 - 20</td><td>mg/dL</td></tr><tr><td>Creatinine [Mass/volume] in Blood</td><td><strong>2.4 H</strong></td><td>0.9 - 1.3</td><td>mg/dL</td></tr><tr><td>Calcium [Mass/volume] in Blood</td><td>9.1</td><td>8.5 - 10.5</td><td>mg/dL</td></tr><tr><td>Sodium [Moles/volume] in Blood</td><td>142.1</td><td>135 - 145</td><td>mmol/L</td></tr><tr><td>Potassium [Moles/volume] in Blood</td><td>4.6</td><td>3.5 - 5.1</td><td>mmol/L</td></tr><tr><td>Chloride [Moles/volume] in Blood</td><td><strong>109.6 H</strong></td><td>98 - 108</td><td>mmol/L</td></tr><tr><td>Carbon dioxide, total [Moles/volume] in Blood</td><td>25.1</td><td>22 - 29</td><td>mmol/L</td></tr></tbody></table></div>"
                },
                "title": "Chemistry"
              },
              {
                "code": {
                  "coding": [
                    {
                      "code": "$18729-4",
                      "system": "http://loinc.org",
                      "display": "Urinalysis studies (set)"
                    }
                  ],
                  "text": "Urinalysis"
                },
                "entry": [
                  {
                    "reference": "urn:uuid:5f60d394-de55-49e7-ae8c-8dbc72503460"
                  },
                  {
                    "reference": "urn:uuid:3c8d648a-69d8-4223-a3d3-15ed6577dc56"
                  },
                  {
                    "reference": "urn:uuid:93c5a54b-5fa0-4e07-ac86-c9d942d57af5"
                  },
                  {
                    "reference": "urn:uuid:d212165a-7adc-43c9-825a-6b86e8ed06ac"
                  },
                  {
                    "reference": "urn:uuid:4a79072f-4feb-4765-9a12-e05adbf80dda"
                  },
                  {
                    "reference": "urn:uuid:323043d9-16e4-4022-8068-a4b98fe24b0e"
                  },
                  {
                    "reference": "urn:uuid:dcdb07e4-e065-4c44-99b2-4f8a9f425493"
                  },
                  {
                    "reference": "urn:uuid:e929d19b-9b14-4f5d-bb85-4c9e3fdd33df"
                  },
                  {
                    "reference": "urn:uuid:cf0f4c25-4bb4-4f10-8dca-85987e6edf3d"
                  },
                  {
                    "reference": "urn:uuid:0886b26a-be66-4d30-a328-4c5ebf043559"
                  },
                  {
                    "reference": "urn:uuid:30215d77-a8fe-4feb-aed4-f5c185ffce8d"
                  },
                  {
                    "reference": "urn:uuid:83fabc3f-482e-49f2-8845-bcff0615b44b"
                  }
                ],
                "text": {
                  "status": "generated",
                  "div": "<div xmlns=\"http://www.w3.org/1999/xhtml\"><h3>Urinalysis</h3><table class=\"hl7__eu__lab__report\"><thead><tr><th>Test</th><th>17-MAY-2024</th><th>Reference&#xA0;Range</th><th>Unit</th></tr></thead><tbody><tr><td>Glucose [Mass/volume] in Urine by Test strip</td><td><strong>1.7 H</strong></td><td>0 - 0.8</td><td>mg/dL</td></tr><tr><td>Glucose [Presence] in Urine by Test strip</td><td>++</td><td></td><td></td></tr><tr><td>Bilirubin.total [Mass/volume] in Urine by Test strip</td><td>0.6</td><td>0 - 1.9</td><td>mg/dL</td></tr><tr><td>Bilirubin.total [Presence] in Urine by Test strip</td><td>Finding of bilirubin in urine</td><td></td><td></td></tr><tr><td>Ketones [Mass/volume] in Urine by Test strip</td><td><strong>11.0 H</strong></td><td>0 - 3</td><td>mg/dL</td></tr><tr><td>Specific gravity of Urine by Test strip</td><td><strong>1.0 L</strong></td><td>1.01 - 1.03</td><td>{nominal}</td></tr><tr><td>pH of Urine by Test strip</td><td>5.1</td><td>4.5 - 7.5</td><td>pH</td></tr><tr><td>Protein [Mass/volume] in Urine by Test strip</td><td><strong>258.9 H</strong></td><td>0 - 149</td><td>mg/dL</td></tr><tr><td>Protein [Presence] in Urine by Test strip</td><td>Urine protein test = ++</td><td></td><td></td></tr><tr><td>Nitrite [Presence] in Urine by Test strip</td><td>Urine nitrite negative</td><td></td><td></td></tr><tr><td>Hemoglobin [Presence] in Urine by Test strip</td><td>Urine blood test = negative</td><td></td><td></td></tr><tr><td>Leukocyte esterase [Presence] in Urine by Test strip</td><td>Urine leukocyte test negative</td><td></td><td></td></tr></tbody></table></div>"
                },
                "title": "Urinalysis"
              },
              {
                "code": {
                  "coding": [
                    {
                      "code": "$LP7846-1",
                      "system": "http://loinc.org",
                      "display": "Specimen information"
                    }
                  ],
                  "text": "Specimen information"
                },
                "entry": [
                  {
                    "reference": "urn:uuid:a418bb27-345c-4030-9110-c31676369da5"
                  },
                  {
                    "reference": "urn:uuid:6dc06625-d9d0-46af-883a-db6cadb28075"
                  },
                  {
                    "reference": "urn:uuid:76ff13ae-aebe-4a2f-88e7-cbd1e6640ded"
                  },
                  {
                    "reference": "urn:uuid:c335655c-2857-4cfc-a312-411c3fb92faf"
                  }
                ],
                "text": {
                  "status": "generated",
                  "div": "<div xmlns=\"http://www.w3.org/1999/xhtml\"><h3>Specimen information</h3><table class=\"hl7__eu__lab__report\"><thead><tr><th>Test</th><th>17-MAY-2024</th><th>Specimen</th><th></th></tr></thead><tbody><tr><td>Appearance of Urine</td><td>Cloudy urine</td><td>Urine</td><td></td></tr><tr><td>Odor of Urine</td><td>Urine smell ammoniacal</td><td>Urine</td><td></td></tr><tr><td>Clarity of Urine</td><td>Translucent</td><td>Urine</td><td></td></tr><tr><td>Color of Urine</td><td>Brown color</td><td>Urine</td><td></td></tr></tbody></table></div>"
                },
                "title": "Specimen information"
              }
            ],
            "title": "Laboratory Report"
          },
          {
            "text": {
              "status": "generated",
              "div": "<div xmlns=\"http://www.w3.org/1999/xhtml\"><h3>Annotation</h3><table class=\"hl7__eu__lab__report\"><tr><th>Conclusion and Recommendations based on this report and previous findings known to us</th></tr><tr><td>The patient shows elevated creatinine, suggesting impaired renal function, and high chloride. Urinalysis reveals proteinuria, glycosuria, ketonuria, low specific gravity, and abnormal urine appearance (cloudy, brown, ammoniacal), but no evidence of infection. HbA1c is unexpectedly low despite glycosuria, possibly due to anemia or recent changes in glucose control. Findings are consistent with renal dysfunction, possible tubular damage, and metabolic derangements; further nephrological and diabetic evaluation is recommended.</td></tr></table></div>"
            },
            "code": {
              "coding": [
                {
                  "system": "http://loinc.org",
                  "code": "48767-8",
                  "display": "Annotation comment"
                }
              ]
            },
            "title": "Annotation comment"
          }
        ],
        "status": "final",
        "subject": {
          "reference": "urn:uuid:246bec30-2d7f-4d42-a365-b951b3bce412",
          "display": "Victor Lagarde"
        },
        "date": "2024-05-17T06:48:18Z",
        "title": "Laboratory Report",
        "confidentiality": "N"
      }
    },
    {
      "fullUrl": "urn:uuid:1c0ef9c7-20a6-4e8b-b357-4f93f12d53b2",
      "resource": {
        "resourceType": "DiagnosticReport",
        "id": "1c0ef9c7-20a6-4e8b-b357-4f93f12d53b2",
        "meta": {
          "profile": [
            "http://hl7.eu/fhir/laboratory/StructureDefinition/DiagnosticReport-eu-lab"
          ]
        },
        "identifier": [
          {
            "assigner": {
              "display": "HL7 Europe"
            },
            "system": "urn:oid:2.16.840.1.113883.2.51.999",
            "value": "b4c60dc6-abec-446a-a0ff-6f1481748bc6"
          }
        ],
        "extension": [
          {
            "url": "http://hl7.org/fhir/5.0/StructureDefinition/extension-DiagnosticReport.composition",
            "valueReference": {
              "reference": "urn:uuid:0364e112-cd30-4629-a1a1-84a7a54f0f2a"
            }
          }
        ],
        "category": [
          {
            "coding": [
              {
                "code": "26436-6",
                "system": "http://loinc.org",
                "display": "Laboratory studies (set)"
              }
            ]
          }
        ],
        "specimen": [
          {
            "reference": "urn:uuid:655f5d92-8a0a-4441-b131-47af0fca9853"
          },
          {
            "reference": "urn:uuid:0969d64d-6317-44bd-a94d-836b9acb214b"
          },
          {
            "reference": "urn:uuid:1fb0f244-8981-4660-8a87-f0d021fbfb7e"
          }
        ],
        "result": [
          {
            "reference": "urn:uuid:1fab2d0c-4c50-45e9-b4d8-9c6d9406ccec"
          },
          {
            "reference": "urn:uuid:7d6a5544-ba2f-4bfc-b918-3ae638757585"
          },
          {
            "reference": "urn:uuid:919eccde-34cd-4b6e-82d9-3d953d3199ec"
          },
          {
            "reference": "urn:uuid:0a7ea0cc-4771-42c6-acb8-2d57ead5c3ea"
          },
          {
            "reference": "urn:uuid:80d6b945-6f2f-422b-b202-c0a9e0e9572a"
          },
          {
            "reference": "urn:uuid:3603bead-f74f-4d6e-8e29-0924ce45935b"
          },
          {
            "reference": "urn:uuid:83369f67-c84a-4c9e-8345-28f4c71296a2"
          },
          {
            "reference": "urn:uuid:7bed4eee-daf9-4791-a8ba-c195c9458901"
          },
          {
            "reference": "urn:uuid:a418bb27-345c-4030-9110-c31676369da5"
          },
          {
            "reference": "urn:uuid:6dc06625-d9d0-46af-883a-db6cadb28075"
          },
          {
            "reference": "urn:uuid:76ff13ae-aebe-4a2f-88e7-cbd1e6640ded"
          },
          {
            "reference": "urn:uuid:c335655c-2857-4cfc-a312-411c3fb92faf"
          },
          {
            "reference": "urn:uuid:5f60d394-de55-49e7-ae8c-8dbc72503460"
          },
          {
            "reference": "urn:uuid:3c8d648a-69d8-4223-a3d3-15ed6577dc56"
          },
          {
            "reference": "urn:uuid:93c5a54b-5fa0-4e07-ac86-c9d942d57af5"
          },
          {
            "reference": "urn:uuid:d212165a-7adc-43c9-825a-6b86e8ed06ac"
          },
          {
            "reference": "urn:uuid:4a79072f-4feb-4765-9a12-e05adbf80dda"
          },
          {
            "reference": "urn:uuid:8dd845f4-b003-4c7e-9572-d0236ef800f9"
          },
          {
            "reference": "urn:uuid:323043d9-16e4-4022-8068-a4b98fe24b0e"
          },
          {
            "reference": "urn:uuid:dcdb07e4-e065-4c44-99b2-4f8a9f425493"
          },
          {
            "reference": "urn:uuid:e929d19b-9b14-4f5d-bb85-4c9e3fdd33df"
          },
          {
            "reference": "urn:uuid:cf0f4c25-4bb4-4f10-8dca-85987e6edf3d"
          },
          {
            "reference": "urn:uuid:0886b26a-be66-4d30-a328-4c5ebf043559"
          },
          {
            "reference": "urn:uuid:30215d77-a8fe-4feb-aed4-f5c185ffce8d"
          },
          {
            "reference": "urn:uuid:83fabc3f-482e-49f2-8845-bcff0615b44b"
          },
          {
            "reference": "urn:uuid:d4eaabba-9f07-469c-9224-19dffff91d5f"
          },
          {
            "reference": "urn:uuid:5208c6ed-fc3a-46cf-b6c5-db618c6ac026"
          },
          {
            "reference": "urn:uuid:d2fc9f5a-ab34-4070-8259-2ade197af614"
          },
          {
            "reference": "urn:uuid:e5f40b47-215a-4169-97bf-afd6bc096013"
          },
          {
            "reference": "urn:uuid:92e0ae49-ac91-4042-ae52-3dde103b2a47"
          },
          {
            "reference": "urn:uuid:e4efc272-04b2-40cb-bc81-24ecf8518611"
          },
          {
            "reference": "urn:uuid:ccfa7c1e-d080-44c0-8c5e-fae122464cd1"
          },
          {
            "reference": "urn:uuid:65b44f26-4654-4ed7-968f-704f45a0eb2e"
          },
          {
            "reference": "urn:uuid:6021b3de-bebb-4040-9d7c-110e6e2b856e"
          }
        ],
        "status": "registered",
        "code": {
          "coding": [
            {
              "code": "11502-2",
              "system": "http://loinc.org",
              "display": "Laboratory report"
            }
          ]
        },
        "subject": {
          "reference": "urn:uuid:246bec30-2d7f-4d42-a365-b951b3bce412",
          "display": "Victor Lagarde"
        }
      }
    },
    {
      "fullUrl": "urn:uuid:246bec30-2d7f-4d42-a365-b951b3bce412",
      "resource": {
        "resourceType": "Patient",
        "id": "246bec30-2d7f-4d42-a365-b951b3bce412",
        "meta": {
          "security": [
            {
              "system": "http://terminology.hl7.org/CodeSystem/v3-ActReason",
              "code": "HTEST"
            },
            {
              "system": "http://terminology.hl7.org/CodeSystem/v3-ActReason",
              "code": "TRAIN"
            }
          ],
          "tag": [
            {
              "system": "https://synderai.net/fhir/CodeSystem/tags",
              "code": "synthetic",
              "display": "SYNDERAI Synthetic data"
            }
          ],
          "profile": [
            "http://hl7.eu/fhir/base/StructureDefinition/patient-eu-core"
          ]
        },
        "identifier": [
          {
            "type": {
              "coding": [
                {
                  "code": "PT",
                  "system": "http://terminology.hl7.org/CodeSystem/v2-0203"
                }
              ]
            },
            "system": "http://ec.europa.eu/identifier/eci",
            "value": "9925-001801-9"
          },
          {
            "type": {
              "coding": [
                {
                  "code": "MR",
                  "system": "http://terminology.hl7.org/CodeSystem/v2-0203"
                }
              ]
            },
            "system": "http://local.setting.eu/identifier",
            "value": "22c2dfd0-ac57-8833-2532-848f180896a4"
          }
        ],
        "name": [
          {
            "family": "Lagarde"
          },
          {
            "given": [
              "Victor"
            ]
          },
          {
            "text": "Victor Lagarde"
          }
        ],
        "address": [
          {
            "line": [
              "avenue Robert"
            ],
            "use": "home",
            "type": "physical",
            "postalCode": "80300",
            "city": "Albert",
            "country": "France"
          }
        ],
        "telecom": [
          {
            "system": "phone",
            "value": "0177941801"
          }
        ],
        "extension": [
          {
            "url": "http://hl7.org/fhir/StructureDefinition/patient-nationality",
            "valueCodeableConcept": {
              "coding": [
                {
                  "code": "FR",
                  "system": "http://hl7.org/fhir/ValueSet/country"
                }
              ]
            }
          }
        ],
        "text": {
          "status": "generated",
          "div": "<div xmlns=\"http://www.w3.org/1999/xhtml\"><table class=\"hl7__ips\"><tr><td>Victor Lagarde</td><td>male</td><td>31-Aug-1939</td></tr></table></div>"
        },
        "gender": "male",
        "birthDate": "1939-08-31"
      }
    },
    {
      "fullUrl": "urn:uuid:1363861b-72f4-42ca-a60c-88273eb79ac8",
      "resource": {
        "resourceType": "ServiceRequest",
        "id": "1363861b-72f4-42ca-a60c-88273eb79ac8",
        "meta": {
          "profile": [
            "http://hl7.eu/fhir/laboratory/StructureDefinition/ServiceRequest-eu-lab"
          ]
        },
        "identifier": [
          {
            "system": "http://example.org",
            "value": "30e82778-788f-4d9f-891f-c7d9fc8d0fa2"
          }
        ],
        "specimen": [
          {
            "reference": "urn:uuid:655f5d92-8a0a-4441-b131-47af0fca9853"
          },
          {
            "reference": "urn:uuid:0969d64d-6317-44bd-a94d-836b9acb214b"
          },
          {
            "reference": "urn:uuid:1fb0f244-8981-4660-8a87-f0d021fbfb7e"
          }
        ],
        "reasonCode": [
          {
            "coding": [
              {
                "code": "433144002",
                "system": "http://snomed.info/sct",
                "display": "Chronic kidney disease stage 3"
              }
            ]
          },
          {
            "coding": [
              {
                "code": "157141000119108",
                "system": "http://snomed.info/sct",
                "display": "Proteinuria due to type 2 diabetes mellitus"
              }
            ]
          },
          {
            "coding": [
              {
                "code": "431856006",
                "system": "http://snomed.info/sct",
                "display": "Chronic kidney disease stage 2"
              }
            ]
          },
          {
            "coding": [
              {
                "code": "90781000119102",
                "system": "http://snomed.info/sct",
                "display": "Microalbuminuria due to type 2 diabetes mellitus"
              }
            ]
          },
          {
            "coding": [
              {
                "code": "127013003",
                "system": "http://snomed.info/sct",
                "display": "Disorder of kidney due to diabetes mellitus"
              }
            ]
          },
          {
            "coding": [
              {
                "code": "431855005",
                "system": "http://snomed.info/sct",
                "display": "Chronic kidney disease stage 1"
              }
            ]
          },
          {
            "coding": [
              {
                "code": "55822004",
                "system": "http://snomed.info/sct",
                "display": "Hyperlipidemia"
              }
            ]
          },
          {
            "coding": [
              {
                "code": "59621000",
                "system": "http://snomed.info/sct",
                "display": "Essential hypertension"
              }
            ]
          },
          {
            "coding": [
              {
                "code": "237602007",
                "system": "http://snomed.info/sct",
                "display": "Metabolic syndrome X"
              }
            ]
          },
          {
            "coding": [
              {
                "code": "414545008",
                "system": "http://snomed.info/sct",
                "display": "Ischemic heart disease"
              }
            ]
          },
          {
            "coding": [
              {
                "code": "40055000",
                "system": "http://snomed.info/sct",
                "display": "Chronic sinusitis"
              }
            ]
          },
          {
            "coding": [
              {
                "code": "15777000",
                "system": "http://snomed.info/sct",
                "display": "Prediabetes"
              }
            ]
          },
          {
            "coding": [
              {
                "code": "271737000",
                "system": "http://snomed.info/sct",
                "display": "Anemia"
              }
            ]
          }
        ],
        "status": "active",
        "intent": "order",
        "code": {
          "coding": [
            {
              "code": "108252007",
              "system": "http://snomed.info/sct",
              "display": "Laboratory procedure"
            }
          ]
        },
        "subject": {
          "reference": "urn:uuid:246bec30-2d7f-4d42-a365-b951b3bce412",
          "display": "Victor Lagarde"
        },
        "requester": {
          "reference": "urn:uuid:5448089d-e7ee-4e3d-875b-a0d00af8b627"
        }
      }
    },
    {
      "fullUrl": "urn:uuid:5448089d-e7ee-4e3d-875b-a0d00af8b627",
      "resource": {
        "resourceType": "PractitionerRole",
        "id": "5448089d-e7ee-4e3d-875b-a0d00af8b627",
        "meta": {
          "profile": [
            "http://hl7.eu/fhir/base/StructureDefinition/practitionerRole-eu"
          ]
        },
        "text": {
          "status": "generated",
          "div": "<div xmlns=\"http://www.w3.org/1999/xhtml\">Provider Role Id: 5448089d-e7ee-4e3d-875b-a0d00af8b627</div>"
        },
        "organization": {
          "reference": "urn:uuid:cb73d61a-4af0-4d0f-b6dd-459796479e6c"
        }
      }
    },
    {
      "fullUrl": "urn:uuid:cb73d61a-4af0-4d0f-b6dd-459796479e6c",
      "resource": {
        "resourceType": "Organization",
        "id": "cb73d61a-4af0-4d0f-b6dd-459796479e6c",
        "meta": {
          "profile": [
            "http://hl7.eu/fhir/base/StructureDefinition/organization-eu"
          ]
        },
        "identifier": [
          {
            "assigner": {
              "display": "HL7 Europe"
            },
            "system": "urn:oid:2.16.840.1.113883.2.51.999",
            "value": "76c840f6-3594-495b-9b37-ecb7800fc163"
          }
        ],
        "address": [
          {
            "city": "Auxerre",
            "postalCode": "89000",
            "country": "France"
          }
        ],
        "text": {
          "status": "generated",
          "div": "<div xmlns=\"http://www.w3.org/1999/xhtml\">Provider Organization: Thiriot Didier (Cardiologie)</div>"
        },
        "name": "Thiriot Didier (Cardiologie)"
      }
    },
    {
      "fullUrl": "urn:uuid:655f5d92-8a0a-4441-b131-47af0fca9853",
      "resource": {
        "resourceType": "Specimen",
        "id": "655f5d92-8a0a-4441-b131-47af0fca9853",
        "meta": {
          "profile": [
            "http://hl7.eu/fhir/laboratory/StructureDefinition/Specimen-eu-lab"
          ]
        },
        "collection": {
          "collectedDateTime": "2024-05-17"
        },
        "text": {
          "status": "generated",
          "div": "<div xmlns=\"http://www.w3.org/1999/xhtml\"><table class=\"hl7__eu__lab__report\"><tr><th>Specimen</th><th>Collection Date</th></tr><tr><td>Acellular blood (serum or plasma) specimen</td><td><span class=\"nb\">17-May-2024</span></td></tr></table></div>"
        },
        "type": {
          "coding": [
            {
              "code": "122592007",
              "system": "http://snomed.info/sct",
              "display": "Acellular blood (serum or plasma) specimen"
            }
          ]
        }
      }
    },
    {
      "fullUrl": "urn:uuid:0969d64d-6317-44bd-a94d-836b9acb214b",
      "resource": {
        "resourceType": "Specimen",
        "id": "0969d64d-6317-44bd-a94d-836b9acb214b",
        "meta": {
          "profile": [
            "http://hl7.eu/fhir/laboratory/StructureDefinition/Specimen-eu-lab"
          ]
        },
        "collection": {
          "collectedDateTime": "2024-05-17"
        },
        "text": {
          "status": "generated",
          "div": "<div xmlns=\"http://www.w3.org/1999/xhtml\"><table class=\"hl7__eu__lab__report\"><tr><th>Specimen</th><th>Collection Date</th></tr><tr><td>Urine specimen</td><td><span class=\"nb\">17-May-2024</span></td></tr></table></div>"
        },
        "type": {
          "coding": [
            {
              "code": "122575003",
              "system": "http://snomed.info/sct",
              "display": "Urine specimen"
            }
          ]
        }
      }
    },
    {
      "fullUrl": "urn:uuid:1fb0f244-8981-4660-8a87-f0d021fbfb7e",
      "resource": {
        "resourceType": "Specimen",
        "id": "1fb0f244-8981-4660-8a87-f0d021fbfb7e",
        "meta": {
          "profile": [
            "http://hl7.eu/fhir/laboratory/StructureDefinition/Specimen-eu-lab"
          ]
        },
        "collection": {
          "collectedDateTime": "2024-05-17"
        },
        "text": {
          "status": "generated",
          "div": "<div xmlns=\"http://www.w3.org/1999/xhtml\"><table class=\"hl7__eu__lab__report\"><tr><th>Specimen</th><th>Collection Date</th></tr><tr><td>Whole blood specimen (specimen)</td><td><span class=\"nb\">17-May-2024</span></td></tr></table></div>"
        },
        "type": {
          "coding": [
            {
              "code": "258580003",
              "system": "http://snomed.info/sct",
              "display": "Whole blood specimen (specimen)"
            }
          ]
        }
      }
    },
    {
      "fullUrl": "urn:uuid:1fab2d0c-4c50-45e9-b4d8-9c6d9406ccec",
      "resource": {
        "resourceType": "Observation",
        "id": "1fab2d0c-4c50-45e9-b4d8-9c6d9406ccec",
        "meta": {
          "profile": [
            "http://hl7.eu/fhir/laboratory/StructureDefinition/Observation-resultslab-eu-lab"
          ]
        },
        "performer": [
          {
            "display": "The Central European Lab"
          }
        ],
        "category": [
          {
            "coding": [
              {
                "system": "http://terminology.hl7.org/CodeSystem/observation-category",
                "code": "laboratory"
              }
            ]
          }
        ],
        "code": {
          "coding": [
            {
              "code": "2345-7",
              "system": "http://loinc.org",
              "display": "Glucose [Mass/volume] in Serum or Plasma"
            }
          ],
          "text": "Glucose [Mass/volume] in Serum or Plasma"
        },
        "valueQuantity": {
          "system": "http://unitsofmeasure.org",
          "value": 92.3,
          "unit": "mg/dL",
          "code": "mg/dL"
        },
        "referenceRange": [
          {
            "low": {
              "value": 70,
              "code": "mg/dL",
              "system": "http://unitsofmeasure.org"
            }
          },
          {
            "high": {
              "value": 140,
              "code": "mg/dL",
              "system": "http://unitsofmeasure.org"
            }
          }
        ],
        "text": {
          "status": "generated",
          "div": "<div xmlns=\"http://www.w3.org/1999/xhtml\"><table class=\"hl7__eu__lab__report\"><tr><th>Test</th><th>17-May-2024</th><th>Reference&#xA0;Range</th><th>Unit</th></tr><tr><td>Glucose [Mass/volume] in Serum or Plasma</td><td>92.3</td><td>70 - 140</td><td></td><td>mg/dL</td></tr></table></div>"
        },
        "status": "final",
        "subject": {
          "reference": "urn:uuid:246bec30-2d7f-4d42-a365-b951b3bce412",
          "display": "Victor Lagarde"
        },
        "effectiveDateTime": "2024-05-17T04:48:18Z",
        "specimen": {
          "reference": "urn:uuid:655f5d92-8a0a-4441-b131-47af0fca9853"
        }
      }
    },
    {
      "fullUrl": "urn:uuid:7d6a5544-ba2f-4bfc-b918-3ae638757585",
      "resource": {
        "resourceType": "Observation",
        "id": "7d6a5544-ba2f-4bfc-b918-3ae638757585",
        "meta": {
          "profile": [
            "http://hl7.eu/fhir/laboratory/StructureDefinition/Observation-resultslab-eu-lab"
          ]
        },
        "performer": [
          {
            "display": "The Central European Lab"
          }
        ],
        "category": [
          {
            "coding": [
              {
                "system": "http://terminology.hl7.org/CodeSystem/observation-category",
                "code": "laboratory"
              }
            ]
          }
        ],
        "code": {
          "coding": [
            {
              "code": "3094-0",
              "system": "http://loinc.org",
              "display": "Urea nitrogen [Mass/volume] in Serum or Plasma"
            }
          ],
          "text": "Urea nitrogen [Mass/volume] in Serum or Plasma"
        },
        "valueQuantity": {
          "system": "http://unitsofmeasure.org",
          "value": 8,
          "unit": "mg/dL",
          "code": "mg/dL"
        },
        "referenceRange": [
          {
            "low": {
              "value": 7,
              "code": "mg/dL",
              "system": "http://unitsofmeasure.org"
            }
          },
          {
            "high": {
              "value": 20,
              "code": "mg/dL",
              "system": "http://unitsofmeasure.org"
            }
          }
        ],
        "text": {
          "status": "generated",
          "div": "<div xmlns=\"http://www.w3.org/1999/xhtml\"><table class=\"hl7__eu__lab__report\"><tr><th>Test</th><th>17-May-2024</th><th>Reference&#xA0;Range</th><th>Unit</th></tr><tr><td>Urea nitrogen [Mass/volume] in Serum or Plasma</td><td>8.0</td><td>7 - 20</td><td></td><td>mg/dL</td></tr></table></div>"
        },
        "status": "final",
        "subject": {
          "reference": "urn:uuid:246bec30-2d7f-4d42-a365-b951b3bce412",
          "display": "Victor Lagarde"
        },
        "effectiveDateTime": "2024-05-17T04:48:18Z",
        "specimen": {
          "reference": "urn:uuid:655f5d92-8a0a-4441-b131-47af0fca9853"
        }
      }
    },
    {
      "fullUrl": "urn:uuid:919eccde-34cd-4b6e-82d9-3d953d3199ec",
      "resource": {
        "resourceType": "Observation",
        "id": "919eccde-34cd-4b6e-82d9-3d953d3199ec",
        "meta": {
          "profile": [
            "http://hl7.eu/fhir/laboratory/StructureDefinition/Observation-resultslab-eu-lab"
          ]
        },
        "performer": [
          {
            "display": "The Central European Lab"
          }
        ],
        "category": [
          {
            "coding": [
              {
                "system": "http://terminology.hl7.org/CodeSystem/observation-category",
                "code": "laboratory"
              }
            ]
          }
        ],
        "code": {
          "coding": [
            {
              "code": "2160-0",
              "system": "http://loinc.org",
              "display": "Creatinine [Mass/volume] in Serum or Plasma"
            }
          ],
          "text": "Creatinine [Mass/volume] in Serum or Plasma"
        },
        "valueQuantity": {
          "system": "http://unitsofmeasure.org",
          "value": 1.9,
          "unit": "mg/dL",
          "code": "mg/dL"
        },
        "referenceRange": [
          {
            "low": {
              "value": 0.9,
              "code": "mg/dL",
              "system": "http://unitsofmeasure.org"
            }
          },
          {
            "high": {
              "value": 1.3,
              "code": "mg/dL",
              "system": "http://unitsofmeasure.org"
            }
          }
        ],
        "interpretation": [
          {
            "coding": [
              {
                "code": "H",
                "system": "http://terminology.hl7.org/CodeSystem/v3-ObservationInterpretation",
                "display": "High"
              }
            ]
          }
        ],
        "text": {
          "status": "generated",
          "div": "<div xmlns=\"http://www.w3.org/1999/xhtml\"><table class=\"hl7__eu__lab__report\"><tr><th>Test</th><th>17-May-2024</th><th>Reference&#xA0;Range</th><th>Unit</th></tr><tr><td>Creatinine [Mass/volume] in Serum or Plasma</td><td>1.9</td><td>0.9 - 1.3</td><td>H</td><td>mg/dL</td></tr></table></div>"
        },
        "status": "final",
        "subject": {
          "reference": "urn:uuid:246bec30-2d7f-4d42-a365-b951b3bce412",
          "display": "Victor Lagarde"
        },
        "effectiveDateTime": "2024-05-17T04:48:18Z",
        "specimen": {
          "reference": "urn:uuid:655f5d92-8a0a-4441-b131-47af0fca9853"
        }
      }
    },
    {
      "fullUrl": "urn:uuid:0a7ea0cc-4771-42c6-acb8-2d57ead5c3ea",
      "resource": {
        "resourceType": "Observation",
        "id": "0a7ea0cc-4771-42c6-acb8-2d57ead5c3ea",
        "meta": {
          "profile": [
            "http://hl7.eu/fhir/laboratory/StructureDefinition/Observation-resultslab-eu-lab"
          ]
        },
        "performer": [
          {
            "display": "The Central European Lab"
          }
        ],
        "category": [
          {
            "coding": [
              {
                "system": "http://terminology.hl7.org/CodeSystem/observation-category",
                "code": "laboratory"
              }
            ]
          }
        ],
        "code": {
          "coding": [
            {
              "code": "17861-6",
              "system": "http://loinc.org",
              "display": "Calcium [Mass/volume] in Serum or Plasma"
            }
          ],
          "text": "Calcium [Mass/volume] in Serum or Plasma"
        },
        "valueQuantity": {
          "system": "http://unitsofmeasure.org",
          "value": 9.1,
          "unit": "mg/dL",
          "code": "mg/dL"
        },
        "referenceRange": [
          {
            "low": {
              "value": 8.5,
              "code": "mg/dL",
              "system": "http://unitsofmeasure.org"
            }
          },
          {
            "high": {
              "value": 10.5,
              "code": "mg/dL",
              "system": "http://unitsofmeasure.org"
            }
          }
        ],
        "text": {
          "status": "generated",
          "div": "<div xmlns=\"http://www.w3.org/1999/xhtml\"><table class=\"hl7__eu__lab__report\"><tr><th>Test</th><th>17-May-2024</th><th>Reference&#xA0;Range</th><th>Unit</th></tr><tr><td>Calcium [Mass/volume] in Serum or Plasma</td><td>9.1</td><td>8.5 - 10.5</td><td></td><td>mg/dL</td></tr></table></div>"
        },
        "status": "final",
        "subject": {
          "reference": "urn:uuid:246bec30-2d7f-4d42-a365-b951b3bce412",
          "display": "Victor Lagarde"
        },
        "effectiveDateTime": "2024-05-17T04:48:18Z",
        "specimen": {
          "reference": "urn:uuid:655f5d92-8a0a-4441-b131-47af0fca9853"
        }
      }
    },
    {
      "fullUrl": "urn:uuid:80d6b945-6f2f-422b-b202-c0a9e0e9572a",
      "resource": {
        "resourceType": "Observation",
        "id": "80d6b945-6f2f-422b-b202-c0a9e0e9572a",
        "meta": {
          "profile": [
            "http://hl7.eu/fhir/laboratory/StructureDefinition/Observation-resultslab-eu-lab"
          ]
        },
        "performer": [
          {
            "display": "The Central European Lab"
          }
        ],
        "category": [
          {
            "coding": [
              {
                "system": "http://terminology.hl7.org/CodeSystem/observation-category",
                "code": "laboratory"
              }
            ]
          }
        ],
        "code": {
          "coding": [
            {
              "code": "2951-2",
              "system": "http://loinc.org",
              "display": "Sodium [Moles/volume] in Serum or Plasma"
            }
          ],
          "text": "Sodium [Moles/volume] in Serum or Plasma"
        },
        "valueQuantity": {
          "system": "http://unitsofmeasure.org",
          "value": 142.1,
          "unit": "mmol/L",
          "code": "mmol/L"
        },
        "referenceRange": [
          {
            "low": {
              "value": 135,
              "code": "mmol/L",
              "system": "http://unitsofmeasure.org"
            }
          },
          {
            "high": {
              "value": 145,
              "code": "mmol/L",
              "system": "http://unitsofmeasure.org"
            }
          }
        ],
        "text": {
          "status": "generated",
          "div": "<div xmlns=\"http://www.w3.org/1999/xhtml\"><table class=\"hl7__eu__lab__report\"><tr><th>Test</th><th>17-May-2024</th><th>Reference&#xA0;Range</th><th>Unit</th></tr><tr><td>Sodium [Moles/volume] in Serum or Plasma</td><td>142.1</td><td>135 - 145</td><td></td><td>mmol/L</td></tr></table></div>"
        },
        "status": "final",
        "subject": {
          "reference": "urn:uuid:246bec30-2d7f-4d42-a365-b951b3bce412",
          "display": "Victor Lagarde"
        },
        "effectiveDateTime": "2024-05-17T04:48:18Z",
        "specimen": {
          "reference": "urn:uuid:655f5d92-8a0a-4441-b131-47af0fca9853"
        }
      }
    },
    {
      "fullUrl": "urn:uuid:3603bead-f74f-4d6e-8e29-0924ce45935b",
      "resource": {
        "resourceType": "Observation",
        "id": "3603bead-f74f-4d6e-8e29-0924ce45935b",
        "meta": {
          "profile": [
            "http://hl7.eu/fhir/laboratory/StructureDefinition/Observation-resultslab-eu-lab"
          ]
        },
        "performer": [
          {
            "display": "The Central European Lab"
          }
        ],
        "category": [
          {
            "coding": [
              {
                "system": "http://terminology.hl7.org/CodeSystem/observation-category",
                "code": "laboratory"
              }
            ]
          }
        ],
        "code": {
          "coding": [
            {
              "code": "2823-3",
              "system": "http://loinc.org",
              "display": "Potassium [Moles/volume] in Serum or Plasma"
            }
          ],
          "text": "Potassium [Moles/volume] in Serum or Plasma"
        },
        "valueQuantity": {
          "system": "http://unitsofmeasure.org",
          "value": 4.6,
          "unit": "mmol/L",
          "code": "mmol/L"
        },
        "referenceRange": [
          {
            "low": {
              "value": 3.5,
              "code": "mmol/L",
              "system": "http://unitsofmeasure.org"
            }
          },
          {
            "high": {
              "value": 5.3,
              "code": "mmol/L",
              "system": "http://unitsofmeasure.org"
            }
          }
        ],
        "text": {
          "status": "generated",
          "div": "<div xmlns=\"http://www.w3.org/1999/xhtml\"><table class=\"hl7__eu__lab__report\"><tr><th>Test</th><th>17-May-2024</th><th>Reference&#xA0;Range</th><th>Unit</th></tr><tr><td>Potassium [Moles/volume] in Serum or Plasma</td><td>4.6</td><td>3.5 - 5.3</td><td></td><td>mmol/L</td></tr></table></div>"
        },
        "status": "final",
        "subject": {
          "reference": "urn:uuid:246bec30-2d7f-4d42-a365-b951b3bce412",
          "display": "Victor Lagarde"
        },
        "effectiveDateTime": "2024-05-17T04:48:18Z",
        "specimen": {
          "reference": "urn:uuid:655f5d92-8a0a-4441-b131-47af0fca9853"
        }
      }
    },
    {
      "fullUrl": "urn:uuid:83369f67-c84a-4c9e-8345-28f4c71296a2",
      "resource": {
        "resourceType": "Observation",
        "id": "83369f67-c84a-4c9e-8345-28f4c71296a2",
        "meta": {
          "profile": [
            "http://hl7.eu/fhir/laboratory/StructureDefinition/Observation-resultslab-eu-lab"
          ]
        },
        "performer": [
          {
            "display": "The Central European Lab"
          }
        ],
        "category": [
          {
            "coding": [
              {
                "system": "http://terminology.hl7.org/CodeSystem/observation-category",
                "code": "laboratory"
              }
            ]
          }
        ],
        "code": {
          "coding": [
            {
              "code": "2075-0",
              "system": "http://loinc.org",
              "display": "Chloride [Moles/volume] in Serum or Plasma"
            }
          ],
          "text": "Chloride [Moles/volume] in Serum or Plasma"
        },
        "valueQuantity": {
          "system": "http://unitsofmeasure.org",
          "value": 109.6,
          "unit": "mmol/L",
          "code": "mmol/L"
        },
        "referenceRange": [
          {
            "low": {
              "value": 98,
              "code": "mmol/L",
              "system": "http://unitsofmeasure.org"
            }
          },
          {
            "high": {
              "value": 107,
              "code": "mmol/L",
              "system": "http://unitsofmeasure.org"
            }
          }
        ],
        "interpretation": [
          {
            "coding": [
              {
                "code": "H",
                "system": "http://terminology.hl7.org/CodeSystem/v3-ObservationInterpretation",
                "display": "High"
              }
            ]
          }
        ],
        "text": {
          "status": "generated",
          "div": "<div xmlns=\"http://www.w3.org/1999/xhtml\"><table class=\"hl7__eu__lab__report\"><tr><th>Test</th><th>17-May-2024</th><th>Reference&#xA0;Range</th><th>Unit</th></tr><tr><td>Chloride [Moles/volume] in Serum or Plasma</td><td>109.6</td><td>98 - 107</td><td>H</td><td>mmol/L</td></tr></table></div>"
        },
        "status": "final",
        "subject": {
          "reference": "urn:uuid:246bec30-2d7f-4d42-a365-b951b3bce412",
          "display": "Victor Lagarde"
        },
        "effectiveDateTime": "2024-05-17T04:48:18Z",
        "specimen": {
          "reference": "urn:uuid:655f5d92-8a0a-4441-b131-47af0fca9853"
        }
      }
    },
    {
      "fullUrl": "urn:uuid:7bed4eee-daf9-4791-a8ba-c195c9458901",
      "resource": {
        "resourceType": "Observation",
        "id": "7bed4eee-daf9-4791-a8ba-c195c9458901",
        "meta": {
          "profile": [
            "http://hl7.eu/fhir/laboratory/StructureDefinition/Observation-resultslab-eu-lab"
          ]
        },
        "performer": [
          {
            "display": "The Central European Lab"
          }
        ],
        "category": [
          {
            "coding": [
              {
                "system": "http://terminology.hl7.org/CodeSystem/observation-category",
                "code": "laboratory"
              }
            ]
          }
        ],
        "code": {
          "coding": [
            {
              "code": "2028-9",
              "system": "http://loinc.org",
              "display": "Carbon dioxide, total [Moles/volume] in Serum or Plasma"
            }
          ],
          "text": "Carbon dioxide, total [Moles/volume] in Serum or Plasma"
        },
        "valueQuantity": {
          "system": "http://unitsofmeasure.org",
          "value": 25.1,
          "unit": "mmol/L",
          "code": "mmol/L"
        },
        "referenceRange": [
          {
            "low": {
              "value": 22,
              "code": "mmol/L",
              "system": "http://unitsofmeasure.org"
            }
          },
          {
            "high": {
              "value": 33,
              "code": "mmol/L",
              "system": "http://unitsofmeasure.org"
            }
          }
        ],
        "text": {
          "status": "generated",
          "div": "<div xmlns=\"http://www.w3.org/1999/xhtml\"><table class=\"hl7__eu__lab__report\"><tr><th>Test</th><th>17-May-2024</th><th>Reference&#xA0;Range</th><th>Unit</th></tr><tr><td>Carbon dioxide, total [Moles/volume] in Serum or Plasma</td><td>25.1</td><td>22 - 33</td><td></td><td>mmol/L</td></tr></table></div>"
        },
        "status": "final",
        "subject": {
          "reference": "urn:uuid:246bec30-2d7f-4d42-a365-b951b3bce412",
          "display": "Victor Lagarde"
        },
        "effectiveDateTime": "2024-05-17T04:48:18Z",
        "specimen": {
          "reference": "urn:uuid:655f5d92-8a0a-4441-b131-47af0fca9853"
        }
      }
    },
    {
      "fullUrl": "urn:uuid:a418bb27-345c-4030-9110-c31676369da5",
      "resource": {
        "resourceType": "Observation",
        "id": "a418bb27-345c-4030-9110-c31676369da5",
        "meta": {
          "profile": [
            "http://hl7.eu/fhir/laboratory/StructureDefinition/Observation-resultslab-eu-lab"
          ]
        },
        "performer": [
          {
            "display": "The Central European Lab"
          }
        ],
        "category": [
          {
            "coding": [
              {
                "system": "http://terminology.hl7.org/CodeSystem/observation-category",
                "code": "laboratory"
              }
            ]
          }
        ],
        "code": {
          "coding": [
            {
              "code": "5767-9",
              "system": "http://loinc.org",
              "display": "Appearance of Urine"
            }
          ],
          "text": "Appearance of Urine"
        },
        "text": {
          "status": "generated",
          "div": "<div xmlns=\"http://www.w3.org/1999/xhtml\"><table class=\"hl7__eu__lab__report\"><tr><th>Test</th><th>17-May-2024</th><th>Reference&#xA0;Range</th><th>Unit</th></tr><tr><td>Appearance of Urine</td></tr></table></div>"
        },
        "status": "final",
        "subject": {
          "reference": "urn:uuid:246bec30-2d7f-4d42-a365-b951b3bce412",
          "display": "Victor Lagarde"
        },
        "effectiveDateTime": "2024-05-17T04:48:18Z",
        "specimen": {
          "reference": "urn:uuid:0969d64d-6317-44bd-a94d-836b9acb214b"
        }
      }
    },
    {
      "fullUrl": "urn:uuid:6dc06625-d9d0-46af-883a-db6cadb28075",
      "resource": {
        "resourceType": "Observation",
        "id": "6dc06625-d9d0-46af-883a-db6cadb28075",
        "meta": {
          "profile": [
            "http://hl7.eu/fhir/laboratory/StructureDefinition/Observation-resultslab-eu-lab"
          ]
        },
        "performer": [
          {
            "display": "The Central European Lab"
          }
        ],
        "category": [
          {
            "coding": [
              {
                "system": "http://terminology.hl7.org/CodeSystem/observation-category",
                "code": "laboratory"
              }
            ]
          }
        ],
        "code": {
          "coding": [
            {
              "code": "34533-0",
              "system": "http://loinc.org",
              "display": "Odor of Urine"
            }
          ],
          "text": "Odor of Urine"
        },
        "text": {
          "status": "generated",
          "div": "<div xmlns=\"http://www.w3.org/1999/xhtml\"><table class=\"hl7__eu__lab__report\"><tr><th>Test</th><th>17-May-2024</th><th>Reference&#xA0;Range</th><th>Unit</th></tr><tr><td>Odor of Urine</td></tr></table></div>"
        },
        "status": "final",
        "subject": {
          "reference": "urn:uuid:246bec30-2d7f-4d42-a365-b951b3bce412",
          "display": "Victor Lagarde"
        },
        "effectiveDateTime": "2024-05-17T04:48:18Z",
        "specimen": {
          "reference": "urn:uuid:0969d64d-6317-44bd-a94d-836b9acb214b"
        }
      }
    },
    {
      "fullUrl": "urn:uuid:76ff13ae-aebe-4a2f-88e7-cbd1e6640ded",
      "resource": {
        "resourceType": "Observation",
        "id": "76ff13ae-aebe-4a2f-88e7-cbd1e6640ded",
        "meta": {
          "profile": [
            "http://hl7.eu/fhir/laboratory/StructureDefinition/Observation-resultslab-eu-lab"
          ]
        },
        "performer": [
          {
            "display": "The Central European Lab"
          }
        ],
        "category": [
          {
            "coding": [
              {
                "system": "http://terminology.hl7.org/CodeSystem/observation-category",
                "code": "laboratory"
              }
            ]
          }
        ],
        "code": {
          "coding": [
            {
              "code": "32167-9",
              "system": "http://loinc.org",
              "display": "Clarity of Urine"
            }
          ],
          "text": "Clarity of Urine"
        },
        "text": {
          "status": "generated",
          "div": "<div xmlns=\"http://www.w3.org/1999/xhtml\"><table class=\"hl7__eu__lab__report\"><tr><th>Test</th><th>17-May-2024</th><th>Reference&#xA0;Range</th><th>Unit</th></tr><tr><td>Clarity of Urine</td></tr></table></div>"
        },
        "status": "final",
        "subject": {
          "reference": "urn:uuid:246bec30-2d7f-4d42-a365-b951b3bce412",
          "display": "Victor Lagarde"
        },
        "effectiveDateTime": "2024-05-17T04:48:18Z",
        "specimen": {
          "reference": "urn:uuid:0969d64d-6317-44bd-a94d-836b9acb214b"
        }
      }
    },
    {
      "fullUrl": "urn:uuid:c335655c-2857-4cfc-a312-411c3fb92faf",
      "resource": {
        "resourceType": "Observation",
        "id": "c335655c-2857-4cfc-a312-411c3fb92faf",
        "meta": {
          "profile": [
            "http://hl7.eu/fhir/laboratory/StructureDefinition/Observation-resultslab-eu-lab"
          ]
        },
        "performer": [
          {
            "display": "The Central European Lab"
          }
        ],
        "category": [
          {
            "coding": [
              {
                "system": "http://terminology.hl7.org/CodeSystem/observation-category",
                "code": "laboratory"
              }
            ]
          }
        ],
        "code": {
          "coding": [
            {
              "code": "5778-6",
              "system": "http://loinc.org",
              "display": "Color of Urine"
            }
          ],
          "text": "Color of Urine"
        },
        "text": {
          "status": "generated",
          "div": "<div xmlns=\"http://www.w3.org/1999/xhtml\"><table class=\"hl7__eu__lab__report\"><tr><th>Test</th><th>17-May-2024</th><th>Reference&#xA0;Range</th><th>Unit</th></tr><tr><td>Color of Urine</td></tr></table></div>"
        },
        "status": "final",
        "subject": {
          "reference": "urn:uuid:246bec30-2d7f-4d42-a365-b951b3bce412",
          "display": "Victor Lagarde"
        },
        "effectiveDateTime": "2024-05-17T04:48:18Z",
        "specimen": {
          "reference": "urn:uuid:0969d64d-6317-44bd-a94d-836b9acb214b"
        }
      }
    },
    {
      "fullUrl": "urn:uuid:5f60d394-de55-49e7-ae8c-8dbc72503460",
      "resource": {
        "resourceType": "Observation",
        "id": "5f60d394-de55-49e7-ae8c-8dbc72503460",
        "meta": {
          "profile": [
            "http://hl7.eu/fhir/laboratory/StructureDefinition/Observation-resultslab-eu-lab"
          ]
        },
        "performer": [
          {
            "display": "The Central European Lab"
          }
        ],
        "category": [
          {
            "coding": [
              {
                "system": "http://terminology.hl7.org/CodeSystem/observation-category",
                "code": "laboratory"
              }
            ]
          }
        ],
        "code": {
          "coding": [
            {
              "code": "5792-7",
              "system": "http://loinc.org",
              "display": "Glucose [Mass/volume] in Urine by Test strip"
            }
          ],
          "text": "Glucose [Mass/volume] in Urine by Test strip"
        },
        "valueQuantity": {
          "system": "http://unitsofmeasure.org",
          "value": 1.7,
          "unit": "mg/dL",
          "code": "mg/dL"
        },
        "referenceRange": [
          {
            "low": {
              "value": 0,
              "code": "mg/dL",
              "system": "http://unitsofmeasure.org"
            }
          },
          {
            "high": {
              "value": 0.8,
              "code": "mg/dL",
              "system": "http://unitsofmeasure.org"
            }
          }
        ],
        "interpretation": [
          {
            "coding": [
              {
                "code": "H",
                "system": "http://terminology.hl7.org/CodeSystem/v3-ObservationInterpretation",
                "display": "High"
              }
            ]
          }
        ],
        "text": {
          "status": "generated",
          "div": "<div xmlns=\"http://www.w3.org/1999/xhtml\"><table class=\"hl7__eu__lab__report\"><tr><th>Test</th><th>17-May-2024</th><th>Reference&#xA0;Range</th><th>Unit</th></tr><tr><td>Glucose [Mass/volume] in Urine by Test strip</td><td>1.7</td><td>0 - 0.8</td><td>H</td><td>mg/dL</td></tr></table></div>"
        },
        "status": "final",
        "subject": {
          "reference": "urn:uuid:246bec30-2d7f-4d42-a365-b951b3bce412",
          "display": "Victor Lagarde"
        },
        "effectiveDateTime": "2024-05-17T04:48:18Z",
        "specimen": {
          "reference": "urn:uuid:0969d64d-6317-44bd-a94d-836b9acb214b"
        }
      }
    },
    {
      "fullUrl": "urn:uuid:3c8d648a-69d8-4223-a3d3-15ed6577dc56",
      "resource": {
        "resourceType": "Observation",
        "id": "3c8d648a-69d8-4223-a3d3-15ed6577dc56",
        "meta": {
          "profile": [
            "http://hl7.eu/fhir/laboratory/StructureDefinition/Observation-resultslab-eu-lab"
          ]
        },
        "performer": [
          {
            "display": "The Central European Lab"
          }
        ],
        "category": [
          {
            "coding": [
              {
                "system": "http://terminology.hl7.org/CodeSystem/observation-category",
                "code": "laboratory"
              }
            ]
          }
        ],
        "code": {
          "coding": [
            {
              "code": "25428-4",
              "system": "http://loinc.org",
              "display": "Glucose [Presence] in Urine by Test strip"
            }
          ],
          "text": "Glucose [Presence] in Urine by Test strip"
        },
        "text": {
          "status": "generated",
          "div": "<div xmlns=\"http://www.w3.org/1999/xhtml\"><table class=\"hl7__eu__lab__report\"><tr><th>Test</th><th>17-May-2024</th><th>Reference&#xA0;Range</th><th>Unit</th></tr><tr><td>Glucose [Presence] in Urine by Test strip</td></tr></table></div>"
        },
        "status": "final",
        "subject": {
          "reference": "urn:uuid:246bec30-2d7f-4d42-a365-b951b3bce412",
          "display": "Victor Lagarde"
        },
        "effectiveDateTime": "2024-05-17T04:48:18Z",
        "specimen": {
          "reference": "urn:uuid:0969d64d-6317-44bd-a94d-836b9acb214b"
        }
      }
    },
    {
      "fullUrl": "urn:uuid:93c5a54b-5fa0-4e07-ac86-c9d942d57af5",
      "resource": {
        "resourceType": "Observation",
        "id": "93c5a54b-5fa0-4e07-ac86-c9d942d57af5",
        "meta": {
          "profile": [
            "http://hl7.eu/fhir/laboratory/StructureDefinition/Observation-resultslab-eu-lab"
          ]
        },
        "performer": [
          {
            "display": "The Central European Lab"
          }
        ],
        "category": [
          {
            "coding": [
              {
                "system": "http://terminology.hl7.org/CodeSystem/observation-category",
                "code": "laboratory"
              }
            ]
          }
        ],
        "code": {
          "coding": [
            {
              "code": "20505-4",
              "system": "http://loinc.org",
              "display": "Bilirubin.total [Mass/volume] in Urine by Test strip"
            }
          ],
          "text": "Bilirubin.total [Mass/volume] in Urine by Test strip"
        },
        "valueQuantity": {
          "system": "http://unitsofmeasure.org",
          "value": 0.6,
          "unit": "mg/dL",
          "code": "mg/dL"
        },
        "referenceRange": [
          {
            "low": {
              "value": 0,
              "code": "mg/dL",
              "system": "http://unitsofmeasure.org"
            }
          },
          {
            "high": {
              "value": 1.9,
              "code": "mg/dL",
              "system": "http://unitsofmeasure.org"
            }
          }
        ],
        "text": {
          "status": "generated",
          "div": "<div xmlns=\"http://www.w3.org/1999/xhtml\"><table class=\"hl7__eu__lab__report\"><tr><th>Test</th><th>17-May-2024</th><th>Reference&#xA0;Range</th><th>Unit</th></tr><tr><td>Bilirubin.total [Mass/volume] in Urine by Test strip</td><td>0.6</td><td>0 - 1.9</td><td></td><td>mg/dL</td></tr></table></div>"
        },
        "status": "final",
        "subject": {
          "reference": "urn:uuid:246bec30-2d7f-4d42-a365-b951b3bce412",
          "display": "Victor Lagarde"
        },
        "effectiveDateTime": "2024-05-17T04:48:18Z",
        "specimen": {
          "reference": "urn:uuid:0969d64d-6317-44bd-a94d-836b9acb214b"
        }
      }
    },
    {
      "fullUrl": "urn:uuid:d212165a-7adc-43c9-825a-6b86e8ed06ac",
      "resource": {
        "resourceType": "Observation",
        "id": "d212165a-7adc-43c9-825a-6b86e8ed06ac",
        "meta": {
          "profile": [
            "http://hl7.eu/fhir/laboratory/StructureDefinition/Observation-resultslab-eu-lab"
          ]
        },
        "performer": [
          {
            "display": "The Central European Lab"
          }
        ],
        "category": [
          {
            "coding": [
              {
                "system": "http://terminology.hl7.org/CodeSystem/observation-category",
                "code": "laboratory"
              }
            ]
          }
        ],
        "code": {
          "coding": [
            {
              "code": "5770-3",
              "system": "http://loinc.org",
              "display": "Bilirubin.total [Presence] in Urine by Test strip"
            }
          ],
          "text": "Bilirubin.total [Presence] in Urine by Test strip"
        },
        "text": {
          "status": "generated",
          "div": "<div xmlns=\"http://www.w3.org/1999/xhtml\"><table class=\"hl7__eu__lab__report\"><tr><th>Test</th><th>17-May-2024</th><th>Reference&#xA0;Range</th><th>Unit</th></tr><tr><td>Bilirubin.total [Presence] in Urine by Test strip</td></tr></table></div>"
        },
        "status": "final",
        "subject": {
          "reference": "urn:uuid:246bec30-2d7f-4d42-a365-b951b3bce412",
          "display": "Victor Lagarde"
        },
        "effectiveDateTime": "2024-05-17T04:48:18Z",
        "specimen": {
          "reference": "urn:uuid:0969d64d-6317-44bd-a94d-836b9acb214b"
        }
      }
    },
    {
      "fullUrl": "urn:uuid:4a79072f-4feb-4765-9a12-e05adbf80dda",
      "resource": {
        "resourceType": "Observation",
        "id": "4a79072f-4feb-4765-9a12-e05adbf80dda",
        "meta": {
          "profile": [
            "http://hl7.eu/fhir/laboratory/StructureDefinition/Observation-resultslab-eu-lab"
          ]
        },
        "performer": [
          {
            "display": "The Central European Lab"
          }
        ],
        "category": [
          {
            "coding": [
              {
                "system": "http://terminology.hl7.org/CodeSystem/observation-category",
                "code": "laboratory"
              }
            ]
          }
        ],
        "code": {
          "coding": [
            {
              "code": "5797-6",
              "system": "http://loinc.org",
              "display": "Ketones [Mass/volume] in Urine by Test strip"
            }
          ],
          "text": "Ketones [Mass/volume] in Urine by Test strip"
        },
        "valueQuantity": {
          "system": "http://unitsofmeasure.org",
          "value": 11,
          "unit": "mg/dL",
          "code": "mg/dL"
        },
        "referenceRange": [
          {
            "low": {
              "value": 0,
              "code": "mg/dL",
              "system": "http://unitsofmeasure.org"
            }
          },
          {
            "high": {
              "value": 3,
              "code": "mg/dL",
              "system": "http://unitsofmeasure.org"
            }
          }
        ],
        "interpretation": [
          {
            "coding": [
              {
                "code": "H",
                "system": "http://terminology.hl7.org/CodeSystem/v3-ObservationInterpretation",
                "display": "High"
              }
            ]
          }
        ],
        "text": {
          "status": "generated",
          "div": "<div xmlns=\"http://www.w3.org/1999/xhtml\"><table class=\"hl7__eu__lab__report\"><tr><th>Test</th><th>17-May-2024</th><th>Reference&#xA0;Range</th><th>Unit</th></tr><tr><td>Ketones [Mass/volume] in Urine by Test strip</td><td>11.0</td><td>0 - 3</td><td>H</td><td>mg/dL</td></tr></table></div>"
        },
        "status": "final",
        "subject": {
          "reference": "urn:uuid:246bec30-2d7f-4d42-a365-b951b3bce412",
          "display": "Victor Lagarde"
        },
        "effectiveDateTime": "2024-05-17T04:48:18Z",
        "specimen": {
          "reference": "urn:uuid:0969d64d-6317-44bd-a94d-836b9acb214b"
        }
      }
    },
    {
      "fullUrl": "urn:uuid:8dd845f4-b003-4c7e-9572-d0236ef800f9",
      "resource": {
        "resourceType": "Observation",
        "id": "8dd845f4-b003-4c7e-9572-d0236ef800f9",
        "meta": {
          "profile": [
            "http://hl7.eu/fhir/laboratory/StructureDefinition/Observation-resultslab-eu-lab"
          ]
        },
        "performer": [
          {
            "display": "The Central European Lab"
          }
        ],
        "category": [
          {
            "coding": [
              {
                "system": "http://terminology.hl7.org/CodeSystem/observation-category",
                "code": "laboratory"
              }
            ]
          }
        ],
        "code": {
          "coding": [
            {
              "code": "2514-8",
              "system": "http://loinc.org",
              "display": "Ketones [Presence] in Urine by Test strip"
            }
          ],
          "text": "Ketones [Presence] in Urine by Test strip"
        },
        "text": {
          "status": "generated",
          "div": "<div xmlns=\"http://www.w3.org/1999/xhtml\"><table class=\"hl7__eu__lab__report\"><tr><th>Test</th><th>17-May-2024</th><th>Reference&#xA0;Range</th><th>Unit</th></tr><tr><td>Ketones [Presence] in Urine by Test strip</td></tr></table></div>"
        },
        "status": "final",
        "subject": {
          "reference": "urn:uuid:246bec30-2d7f-4d42-a365-b951b3bce412",
          "display": "Victor Lagarde"
        },
        "effectiveDateTime": "2024-05-17T04:48:18Z",
        "specimen": {
          "reference": "urn:uuid:0969d64d-6317-44bd-a94d-836b9acb214b"
        }
      }
    },
    {
      "fullUrl": "urn:uuid:323043d9-16e4-4022-8068-a4b98fe24b0e",
      "resource": {
        "resourceType": "Observation",
        "id": "323043d9-16e4-4022-8068-a4b98fe24b0e",
        "meta": {
          "profile": [
            "http://hl7.eu/fhir/laboratory/StructureDefinition/Observation-resultslab-eu-lab"
          ]
        },
        "performer": [
          {
            "display": "The Central European Lab"
          }
        ],
        "category": [
          {
            "coding": [
              {
                "system": "http://terminology.hl7.org/CodeSystem/observation-category",
                "code": "laboratory"
              }
            ]
          }
        ],
        "code": {
          "coding": [
            {
              "code": "5811-5",
              "system": "http://loinc.org",
              "display": "Specific gravity of Urine by Test strip"
            }
          ],
          "text": "Specific gravity of Urine by Test strip"
        },
        "valueQuantity": {
          "system": "http://unitsofmeasure.org",
          "value": 1,
          "unit": "{nominal}",
          "code": "{nominal}"
        },
        "referenceRange": [
          {
            "low": {
              "value": 1.01,
              "code": "g/mL",
              "system": "http://unitsofmeasure.org"
            }
          },
          {
            "high": {
              "value": 1.03,
              "code": "g/mL",
              "system": "http://unitsofmeasure.org"
            }
          }
        ],
        "interpretation": [
          {
            "coding": [
              {
                "code": "L",
                "system": "http://terminology.hl7.org/CodeSystem/v3-ObservationInterpretation",
                "display": "Low"
              }
            ]
          }
        ],
        "text": {
          "status": "generated",
          "div": "<div xmlns=\"http://www.w3.org/1999/xhtml\"><table class=\"hl7__eu__lab__report\"><tr><th>Test</th><th>17-May-2024</th><th>Reference&#xA0;Range</th><th>Unit</th></tr><tr><td>Specific gravity of Urine by Test strip</td><td>1.0</td><td>1.01 - 1.03</td><td>L</td><td>{nominal}</td></tr></table></div>"
        },
        "status": "final",
        "subject": {
          "reference": "urn:uuid:246bec30-2d7f-4d42-a365-b951b3bce412",
          "display": "Victor Lagarde"
        },
        "effectiveDateTime": "2024-05-17T04:48:18Z",
        "specimen": {
          "reference": "urn:uuid:0969d64d-6317-44bd-a94d-836b9acb214b"
        }
      }
    },
    {
      "fullUrl": "urn:uuid:dcdb07e4-e065-4c44-99b2-4f8a9f425493",
      "resource": {
        "resourceType": "Observation",
        "id": "dcdb07e4-e065-4c44-99b2-4f8a9f425493",
        "meta": {
          "profile": [
            "http://hl7.eu/fhir/laboratory/StructureDefinition/Observation-resultslab-eu-lab"
          ]
        },
        "performer": [
          {
            "display": "The Central European Lab"
          }
        ],
        "category": [
          {
            "coding": [
              {
                "system": "http://terminology.hl7.org/CodeSystem/observation-category",
                "code": "laboratory"
              }
            ]
          }
        ],
        "code": {
          "coding": [
            {
              "code": "5803-2",
              "system": "http://loinc.org",
              "display": "pH of Urine by Test strip"
            }
          ],
          "text": "pH of Urine by Test strip"
        },
        "valueQuantity": {
          "system": "http://unitsofmeasure.org",
          "value": 5.1,
          "unit": "pH",
          "code": "pH"
        },
        "referenceRange": [
          {
            "low": {
              "value": 4.5,
              "code": "pH",
              "system": "http://unitsofmeasure.org"
            }
          },
          {
            "high": {
              "value": 7.5,
              "code": "pH",
              "system": "http://unitsofmeasure.org"
            }
          }
        ],
        "text": {
          "status": "generated",
          "div": "<div xmlns=\"http://www.w3.org/1999/xhtml\"><table class=\"hl7__eu__lab__report\"><tr><th>Test</th><th>17-May-2024</th><th>Reference&#xA0;Range</th><th>Unit</th></tr><tr><td>pH of Urine by Test strip</td><td>5.1</td><td>4.5 - 7.5</td><td></td><td>pH</td></tr></table></div>"
        },
        "status": "final",
        "subject": {
          "reference": "urn:uuid:246bec30-2d7f-4d42-a365-b951b3bce412",
          "display": "Victor Lagarde"
        },
        "effectiveDateTime": "2024-05-17T04:48:18Z",
        "specimen": {
          "reference": "urn:uuid:0969d64d-6317-44bd-a94d-836b9acb214b"
        }
      }
    },
    {
      "fullUrl": "urn:uuid:e929d19b-9b14-4f5d-bb85-4c9e3fdd33df",
      "resource": {
        "resourceType": "Observation",
        "id": "e929d19b-9b14-4f5d-bb85-4c9e3fdd33df",
        "meta": {
          "profile": [
            "http://hl7.eu/fhir/laboratory/StructureDefinition/Observation-resultslab-eu-lab"
          ]
        },
        "performer": [
          {
            "display": "The Central European Lab"
          }
        ],
        "category": [
          {
            "coding": [
              {
                "system": "http://terminology.hl7.org/CodeSystem/observation-category",
                "code": "laboratory"
              }
            ]
          }
        ],
        "code": {
          "coding": [
            {
              "code": "5804-0",
              "system": "http://loinc.org",
              "display": "Protein [Mass/volume] in Urine by Test strip"
            }
          ],
          "text": "Protein [Mass/volume] in Urine by Test strip"
        },
        "valueQuantity": {
          "system": "http://unitsofmeasure.org",
          "value": 258.9,
          "unit": "mg/dL",
          "code": "mg/dL"
        },
        "referenceRange": [
          {
            "low": {
              "value": 0,
              "code": "mg/dL",
              "system": "http://unitsofmeasure.org"
            }
          },
          {
            "high": {
              "value": 149,
              "code": "mg/dL",
              "system": "http://unitsofmeasure.org"
            }
          }
        ],
        "interpretation": [
          {
            "coding": [
              {
                "code": "H",
                "system": "http://terminology.hl7.org/CodeSystem/v3-ObservationInterpretation",
                "display": "High"
              }
            ]
          }
        ],
        "text": {
          "status": "generated",
          "div": "<div xmlns=\"http://www.w3.org/1999/xhtml\"><table class=\"hl7__eu__lab__report\"><tr><th>Test</th><th>17-May-2024</th><th>Reference&#xA0;Range</th><th>Unit</th></tr><tr><td>Protein [Mass/volume] in Urine by Test strip</td><td>258.9</td><td>0 - 149</td><td>H</td><td>mg/dL</td></tr></table></div>"
        },
        "status": "final",
        "subject": {
          "reference": "urn:uuid:246bec30-2d7f-4d42-a365-b951b3bce412",
          "display": "Victor Lagarde"
        },
        "effectiveDateTime": "2024-05-17T04:48:18Z",
        "specimen": {
          "reference": "urn:uuid:0969d64d-6317-44bd-a94d-836b9acb214b"
        }
      }
    },
    {
      "fullUrl": "urn:uuid:cf0f4c25-4bb4-4f10-8dca-85987e6edf3d",
      "resource": {
        "resourceType": "Observation",
        "id": "cf0f4c25-4bb4-4f10-8dca-85987e6edf3d",
        "meta": {
          "profile": [
            "http://hl7.eu/fhir/laboratory/StructureDefinition/Observation-resultslab-eu-lab"
          ]
        },
        "performer": [
          {
            "display": "The Central European Lab"
          }
        ],
        "category": [
          {
            "coding": [
              {
                "system": "http://terminology.hl7.org/CodeSystem/observation-category",
                "code": "laboratory"
              }
            ]
          }
        ],
        "code": {
          "coding": [
            {
              "code": "20454-5",
              "system": "http://loinc.org",
              "display": "Protein [Presence] in Urine by Test strip"
            }
          ],
          "text": "Protein [Presence] in Urine by Test strip"
        },
        "text": {
          "status": "generated",
          "div": "<div xmlns=\"http://www.w3.org/1999/xhtml\"><table class=\"hl7__eu__lab__report\"><tr><th>Test</th><th>17-May-2024</th><th>Reference&#xA0;Range</th><th>Unit</th></tr><tr><td>Protein [Presence] in Urine by Test strip</td></tr></table></div>"
        },
        "status": "final",
        "subject": {
          "reference": "urn:uuid:246bec30-2d7f-4d42-a365-b951b3bce412",
          "display": "Victor Lagarde"
        },
        "effectiveDateTime": "2024-05-17T04:48:18Z",
        "specimen": {
          "reference": "urn:uuid:0969d64d-6317-44bd-a94d-836b9acb214b"
        }
      }
    },
    {
      "fullUrl": "urn:uuid:0886b26a-be66-4d30-a328-4c5ebf043559",
      "resource": {
        "resourceType": "Observation",
        "id": "0886b26a-be66-4d30-a328-4c5ebf043559",
        "meta": {
          "profile": [
            "http://hl7.eu/fhir/laboratory/StructureDefinition/Observation-resultslab-eu-lab"
          ]
        },
        "performer": [
          {
            "display": "The Central European Lab"
          }
        ],
        "category": [
          {
            "coding": [
              {
                "system": "http://terminology.hl7.org/CodeSystem/observation-category",
                "code": "laboratory"
              }
            ]
          }
        ],
        "code": {
          "coding": [
            {
              "code": "5802-4",
              "system": "http://loinc.org",
              "display": "Nitrite [Presence] in Urine by Test strip"
            }
          ],
          "text": "Nitrite [Presence] in Urine by Test strip"
        },
        "text": {
          "status": "generated",
          "div": "<div xmlns=\"http://www.w3.org/1999/xhtml\"><table class=\"hl7__eu__lab__report\"><tr><th>Test</th><th>17-May-2024</th><th>Reference&#xA0;Range</th><th>Unit</th></tr><tr><td>Nitrite [Presence] in Urine by Test strip</td></tr></table></div>"
        },
        "status": "final",
        "subject": {
          "reference": "urn:uuid:246bec30-2d7f-4d42-a365-b951b3bce412",
          "display": "Victor Lagarde"
        },
        "effectiveDateTime": "2024-05-17T04:48:18Z",
        "specimen": {
          "reference": "urn:uuid:0969d64d-6317-44bd-a94d-836b9acb214b"
        }
      }
    },
    {
      "fullUrl": "urn:uuid:30215d77-a8fe-4feb-aed4-f5c185ffce8d",
      "resource": {
        "resourceType": "Observation",
        "id": "30215d77-a8fe-4feb-aed4-f5c185ffce8d",
        "meta": {
          "profile": [
            "http://hl7.eu/fhir/laboratory/StructureDefinition/Observation-resultslab-eu-lab"
          ]
        },
        "performer": [
          {
            "display": "The Central European Lab"
          }
        ],
        "category": [
          {
            "coding": [
              {
                "system": "http://terminology.hl7.org/CodeSystem/observation-category",
                "code": "laboratory"
              }
            ]
          }
        ],
        "code": {
          "coding": [
            {
              "code": "5794-3",
              "system": "http://loinc.org",
              "display": "Hemoglobin [Presence] in Urine by Test strip"
            }
          ],
          "text": "Hemoglobin [Presence] in Urine by Test strip"
        },
        "text": {
          "status": "generated",
          "div": "<div xmlns=\"http://www.w3.org/1999/xhtml\"><table class=\"hl7__eu__lab__report\"><tr><th>Test</th><th>17-May-2024</th><th>Reference&#xA0;Range</th><th>Unit</th></tr><tr><td>Hemoglobin [Presence] in Urine by Test strip</td></tr></table></div>"
        },
        "status": "final",
        "subject": {
          "reference": "urn:uuid:246bec30-2d7f-4d42-a365-b951b3bce412",
          "display": "Victor Lagarde"
        },
        "effectiveDateTime": "2024-05-17T04:48:18Z",
        "specimen": {
          "reference": "urn:uuid:0969d64d-6317-44bd-a94d-836b9acb214b"
        }
      }
    },
    {
      "fullUrl": "urn:uuid:83fabc3f-482e-49f2-8845-bcff0615b44b",
      "resource": {
        "resourceType": "Observation",
        "id": "83fabc3f-482e-49f2-8845-bcff0615b44b",
        "meta": {
          "profile": [
            "http://hl7.eu/fhir/laboratory/StructureDefinition/Observation-resultslab-eu-lab"
          ]
        },
        "performer": [
          {
            "display": "The Central European Lab"
          }
        ],
        "category": [
          {
            "coding": [
              {
                "system": "http://terminology.hl7.org/CodeSystem/observation-category",
                "code": "laboratory"
              }
            ]
          }
        ],
        "code": {
          "coding": [
            {
              "code": "5799-2",
              "system": "http://loinc.org",
              "display": "Leukocyte esterase [Presence] in Urine by Test strip"
            }
          ],
          "text": "Leukocyte esterase [Presence] in Urine by Test strip"
        },
        "text": {
          "status": "generated",
          "div": "<div xmlns=\"http://www.w3.org/1999/xhtml\"><table class=\"hl7__eu__lab__report\"><tr><th>Test</th><th>17-May-2024</th><th>Reference&#xA0;Range</th><th>Unit</th></tr><tr><td>Leukocyte esterase [Presence] in Urine by Test strip</td></tr></table></div>"
        },
        "status": "final",
        "subject": {
          "reference": "urn:uuid:246bec30-2d7f-4d42-a365-b951b3bce412",
          "display": "Victor Lagarde"
        },
        "effectiveDateTime": "2024-05-17T04:48:18Z",
        "specimen": {
          "reference": "urn:uuid:0969d64d-6317-44bd-a94d-836b9acb214b"
        }
      }
    },
    {
      "fullUrl": "urn:uuid:d4eaabba-9f07-469c-9224-19dffff91d5f",
      "resource": {
        "resourceType": "Observation",
        "id": "d4eaabba-9f07-469c-9224-19dffff91d5f",
        "meta": {
          "profile": [
            "http://hl7.eu/fhir/laboratory/StructureDefinition/Observation-resultslab-eu-lab"
          ]
        },
        "performer": [
          {
            "display": "The Central European Lab"
          }
        ],
        "category": [
          {
            "coding": [
              {
                "system": "http://terminology.hl7.org/CodeSystem/observation-category",
                "code": "laboratory"
              }
            ]
          }
        ],
        "code": {
          "coding": [
            {
              "code": "4548-4",
              "system": "http://loinc.org",
              "display": "Hemoglobin A1c/Hemoglobin.total in Blood"
            }
          ],
          "text": "Hemoglobin A1c/Hemoglobin.total in Blood"
        },
        "valueQuantity": {
          "system": "http://unitsofmeasure.org",
          "value": 3.2,
          "unit": "%",
          "code": "%"
        },
        "referenceRange": [
          {
            "low": {
              "value": 4.3,
              "code": "%",
              "system": "http://unitsofmeasure.org"
            }
          },
          {
            "high": {
              "value": 6,
              "code": "%",
              "system": "http://unitsofmeasure.org"
            }
          }
        ],
        "interpretation": [
          {
            "coding": [
              {
                "code": "L",
                "system": "http://terminology.hl7.org/CodeSystem/v3-ObservationInterpretation",
                "display": "Low"
              }
            ]
          }
        ],
        "text": {
          "status": "generated",
          "div": "<div xmlns=\"http://www.w3.org/1999/xhtml\"><table class=\"hl7__eu__lab__report\"><tr><th>Test</th><th>17-May-2024</th><th>Reference&#xA0;Range</th><th>Unit</th></tr><tr><td>Hemoglobin A1c/Hemoglobin.total in Blood</td><td>3.2</td><td>4.3 - 6</td><td>L</td><td>%</td></tr></table></div>"
        },
        "status": "final",
        "subject": {
          "reference": "urn:uuid:246bec30-2d7f-4d42-a365-b951b3bce412",
          "display": "Victor Lagarde"
        },
        "effectiveDateTime": "2024-05-17T04:48:18Z",
        "specimen": {
          "reference": "urn:uuid:1fb0f244-8981-4660-8a87-f0d021fbfb7e"
        }
      }
    },
    {
      "fullUrl": "urn:uuid:5208c6ed-fc3a-46cf-b6c5-db618c6ac026",
      "resource": {
        "resourceType": "Observation",
        "id": "5208c6ed-fc3a-46cf-b6c5-db618c6ac026",
        "meta": {
          "profile": [
            "http://hl7.eu/fhir/laboratory/StructureDefinition/Observation-resultslab-eu-lab"
          ]
        },
        "performer": [
          {
            "display": "The Central European Lab"
          }
        ],
        "category": [
          {
            "coding": [
              {
                "system": "http://terminology.hl7.org/CodeSystem/observation-category",
                "code": "laboratory"
              }
            ]
          }
        ],
        "code": {
          "coding": [
            {
              "code": "2339-0",
              "system": "http://loinc.org",
              "display": "Glucose [Mass/volume] in Blood"
            }
          ],
          "text": "Glucose [Mass/volume] in Blood"
        },
        "valueQuantity": {
          "system": "http://unitsofmeasure.org",
          "value": 92.3,
          "unit": "mg/dL",
          "code": "mg/dL"
        },
        "referenceRange": [
          {
            "low": {
              "value": 70,
              "code": "mg/dL",
              "system": "http://unitsofmeasure.org"
            }
          },
          {
            "high": {
              "value": 140,
              "code": "mg/dL",
              "system": "http://unitsofmeasure.org"
            }
          }
        ],
        "text": {
          "status": "generated",
          "div": "<div xmlns=\"http://www.w3.org/1999/xhtml\"><table class=\"hl7__eu__lab__report\"><tr><th>Test</th><th>17-May-2024</th><th>Reference&#xA0;Range</th><th>Unit</th></tr><tr><td>Glucose [Mass/volume] in Blood</td><td>92.3</td><td>70 - 140</td><td></td><td>mg/dL</td></tr></table></div>"
        },
        "status": "final",
        "subject": {
          "reference": "urn:uuid:246bec30-2d7f-4d42-a365-b951b3bce412",
          "display": "Victor Lagarde"
        },
        "effectiveDateTime": "2024-05-17T04:48:18Z",
        "specimen": {
          "reference": "urn:uuid:1fb0f244-8981-4660-8a87-f0d021fbfb7e"
        }
      }
    },
    {
      "fullUrl": "urn:uuid:d2fc9f5a-ab34-4070-8259-2ade197af614",
      "resource": {
        "resourceType": "Observation",
        "id": "d2fc9f5a-ab34-4070-8259-2ade197af614",
        "meta": {
          "profile": [
            "http://hl7.eu/fhir/laboratory/StructureDefinition/Observation-resultslab-eu-lab"
          ]
        },
        "performer": [
          {
            "display": "The Central European Lab"
          }
        ],
        "category": [
          {
            "coding": [
              {
                "system": "http://terminology.hl7.org/CodeSystem/observation-category",
                "code": "laboratory"
              }
            ]
          }
        ],
        "code": {
          "coding": [
            {
              "code": "6299-2",
              "system": "http://loinc.org",
              "display": "Urea nitrogen [Mass/volume] in Blood"
            }
          ],
          "text": "Urea nitrogen [Mass/volume] in Blood"
        },
        "valueQuantity": {
          "system": "http://unitsofmeasure.org",
          "value": 8,
          "unit": "mg/dL",
          "code": "mg/dL"
        },
        "referenceRange": [
          {
            "low": {
              "value": 7,
              "code": "mg/dL",
              "system": "http://unitsofmeasure.org"
            }
          },
          {
            "high": {
              "value": 20,
              "code": "mg/dL",
              "system": "http://unitsofmeasure.org"
            }
          }
        ],
        "text": {
          "status": "generated",
          "div": "<div xmlns=\"http://www.w3.org/1999/xhtml\"><table class=\"hl7__eu__lab__report\"><tr><th>Test</th><th>17-May-2024</th><th>Reference&#xA0;Range</th><th>Unit</th></tr><tr><td>Urea nitrogen [Mass/volume] in Blood</td><td>8.0</td><td>7 - 20</td><td></td><td>mg/dL</td></tr></table></div>"
        },
        "status": "final",
        "subject": {
          "reference": "urn:uuid:246bec30-2d7f-4d42-a365-b951b3bce412",
          "display": "Victor Lagarde"
        },
        "effectiveDateTime": "2024-05-17T04:48:18Z",
        "specimen": {
          "reference": "urn:uuid:1fb0f244-8981-4660-8a87-f0d021fbfb7e"
        }
      }
    },
    {
      "fullUrl": "urn:uuid:e5f40b47-215a-4169-97bf-afd6bc096013",
      "resource": {
        "resourceType": "Observation",
        "id": "e5f40b47-215a-4169-97bf-afd6bc096013",
        "meta": {
          "profile": [
            "http://hl7.eu/fhir/laboratory/StructureDefinition/Observation-resultslab-eu-lab"
          ]
        },
        "performer": [
          {
            "display": "The Central European Lab"
          }
        ],
        "category": [
          {
            "coding": [
              {
                "system": "http://terminology.hl7.org/CodeSystem/observation-category",
                "code": "laboratory"
              }
            ]
          }
        ],
        "code": {
          "coding": [
            {
              "code": "38483-4",
              "system": "http://loinc.org",
              "display": "Creatinine [Mass/volume] in Blood"
            }
          ],
          "text": "Creatinine [Mass/volume] in Blood"
        },
        "valueQuantity": {
          "system": "http://unitsofmeasure.org",
          "value": 2.4,
          "unit": "mg/dL",
          "code": "mg/dL"
        },
        "referenceRange": [
          {
            "low": {
              "value": 0.9,
              "code": "mg/dL",
              "system": "http://unitsofmeasure.org"
            }
          },
          {
            "high": {
              "value": 1.3,
              "code": "mg/dL",
              "system": "http://unitsofmeasure.org"
            }
          }
        ],
        "interpretation": [
          {
            "coding": [
              {
                "code": "H",
                "system": "http://terminology.hl7.org/CodeSystem/v3-ObservationInterpretation",
                "display": "High"
              }
            ]
          }
        ],
        "text": {
          "status": "generated",
          "div": "<div xmlns=\"http://www.w3.org/1999/xhtml\"><table class=\"hl7__eu__lab__report\"><tr><th>Test</th><th>17-May-2024</th><th>Reference&#xA0;Range</th><th>Unit</th></tr><tr><td>Creatinine [Mass/volume] in Blood</td><td>2.4</td><td>0.9 - 1.3</td><td>H</td><td>mg/dL</td></tr></table></div>"
        },
        "status": "final",
        "subject": {
          "reference": "urn:uuid:246bec30-2d7f-4d42-a365-b951b3bce412",
          "display": "Victor Lagarde"
        },
        "effectiveDateTime": "2024-05-17T04:48:18Z",
        "specimen": {
          "reference": "urn:uuid:1fb0f244-8981-4660-8a87-f0d021fbfb7e"
        }
      }
    },
    {
      "fullUrl": "urn:uuid:92e0ae49-ac91-4042-ae52-3dde103b2a47",
      "resource": {
        "resourceType": "Observation",
        "id": "92e0ae49-ac91-4042-ae52-3dde103b2a47",
        "meta": {
          "profile": [
            "http://hl7.eu/fhir/laboratory/StructureDefinition/Observation-resultslab-eu-lab"
          ]
        },
        "performer": [
          {
            "display": "The Central European Lab"
          }
        ],
        "category": [
          {
            "coding": [
              {
                "system": "http://terminology.hl7.org/CodeSystem/observation-category",
                "code": "laboratory"
              }
            ]
          }
        ],
        "code": {
          "coding": [
            {
              "code": "49765-1",
              "system": "http://loinc.org",
              "display": "Calcium [Mass/volume] in Blood"
            }
          ],
          "text": "Calcium [Mass/volume] in Blood"
        },
        "valueQuantity": {
          "system": "http://unitsofmeasure.org",
          "value": 9.1,
          "unit": "mg/dL",
          "code": "mg/dL"
        },
        "referenceRange": [
          {
            "low": {
              "value": 8.5,
              "code": "mg/dL",
              "system": "http://unitsofmeasure.org"
            }
          },
          {
            "high": {
              "value": 10.5,
              "code": "mg/dL",
              "system": "http://unitsofmeasure.org"
            }
          }
        ],
        "text": {
          "status": "generated",
          "div": "<div xmlns=\"http://www.w3.org/1999/xhtml\"><table class=\"hl7__eu__lab__report\"><tr><th>Test</th><th>17-May-2024</th><th>Reference&#xA0;Range</th><th>Unit</th></tr><tr><td>Calcium [Mass/volume] in Blood</td><td>9.1</td><td>8.5 - 10.5</td><td></td><td>mg/dL</td></tr></table></div>"
        },
        "status": "final",
        "subject": {
          "reference": "urn:uuid:246bec30-2d7f-4d42-a365-b951b3bce412",
          "display": "Victor Lagarde"
        },
        "effectiveDateTime": "2024-05-17T04:48:18Z",
        "specimen": {
          "reference": "urn:uuid:1fb0f244-8981-4660-8a87-f0d021fbfb7e"
        }
      }
    },
    {
      "fullUrl": "urn:uuid:e4efc272-04b2-40cb-bc81-24ecf8518611",
      "resource": {
        "resourceType": "Observation",
        "id": "e4efc272-04b2-40cb-bc81-24ecf8518611",
        "meta": {
          "profile": [
            "http://hl7.eu/fhir/laboratory/StructureDefinition/Observation-resultslab-eu-lab"
          ]
        },
        "performer": [
          {
            "display": "The Central European Lab"
          }
        ],
        "category": [
          {
            "coding": [
              {
                "system": "http://terminology.hl7.org/CodeSystem/observation-category",
                "code": "laboratory"
              }
            ]
          }
        ],
        "code": {
          "coding": [
            {
              "code": "2947-0",
              "system": "http://loinc.org",
              "display": "Sodium [Moles/volume] in Blood"
            }
          ],
          "text": "Sodium [Moles/volume] in Blood"
        },
        "valueQuantity": {
          "system": "http://unitsofmeasure.org",
          "value": 142.1,
          "unit": "mmol/L",
          "code": "mmol/L"
        },
        "referenceRange": [
          {
            "low": {
              "value": 135,
              "code": "mmol/L",
              "system": "http://unitsofmeasure.org"
            }
          },
          {
            "high": {
              "value": 145,
              "code": "mmol/L",
              "system": "http://unitsofmeasure.org"
            }
          }
        ],
        "text": {
          "status": "generated",
          "div": "<div xmlns=\"http://www.w3.org/1999/xhtml\"><table class=\"hl7__eu__lab__report\"><tr><th>Test</th><th>17-May-2024</th><th>Reference&#xA0;Range</th><th>Unit</th></tr><tr><td>Sodium [Moles/volume] in Blood</td><td>142.1</td><td>135 - 145</td><td></td><td>mmol/L</td></tr></table></div>"
        },
        "status": "final",
        "subject": {
          "reference": "urn:uuid:246bec30-2d7f-4d42-a365-b951b3bce412",
          "display": "Victor Lagarde"
        },
        "effectiveDateTime": "2024-05-17T04:48:18Z",
        "specimen": {
          "reference": "urn:uuid:1fb0f244-8981-4660-8a87-f0d021fbfb7e"
        }
      }
    },
    {
      "fullUrl": "urn:uuid:ccfa7c1e-d080-44c0-8c5e-fae122464cd1",
      "resource": {
        "resourceType": "Observation",
        "id": "ccfa7c1e-d080-44c0-8c5e-fae122464cd1",
        "meta": {
          "profile": [
            "http://hl7.eu/fhir/laboratory/StructureDefinition/Observation-resultslab-eu-lab"
          ]
        },
        "performer": [
          {
            "display": "The Central European Lab"
          }
        ],
        "category": [
          {
            "coding": [
              {
                "system": "http://terminology.hl7.org/CodeSystem/observation-category",
                "code": "laboratory"
              }
            ]
          }
        ],
        "code": {
          "coding": [
            {
              "code": "6298-4",
              "system": "http://loinc.org",
              "display": "Potassium [Moles/volume] in Blood"
            }
          ],
          "text": "Potassium [Moles/volume] in Blood"
        },
        "valueQuantity": {
          "system": "http://unitsofmeasure.org",
          "value": 4.6,
          "unit": "mmol/L",
          "code": "mmol/L"
        },
        "referenceRange": [
          {
            "low": {
              "value": 3.5,
              "code": "mmol/L",
              "system": "http://unitsofmeasure.org"
            }
          },
          {
            "high": {
              "value": 5.1,
              "code": "mmol/L",
              "system": "http://unitsofmeasure.org"
            }
          }
        ],
        "text": {
          "status": "generated",
          "div": "<div xmlns=\"http://www.w3.org/1999/xhtml\"><table class=\"hl7__eu__lab__report\"><tr><th>Test</th><th>17-May-2024</th><th>Reference&#xA0;Range</th><th>Unit</th></tr><tr><td>Potassium [Moles/volume] in Blood</td><td>4.6</td><td>3.5 - 5.1</td><td></td><td>mmol/L</td></tr></table></div>"
        },
        "status": "final",
        "subject": {
          "reference": "urn:uuid:246bec30-2d7f-4d42-a365-b951b3bce412",
          "display": "Victor Lagarde"
        },
        "effectiveDateTime": "2024-05-17T04:48:18Z",
        "specimen": {
          "reference": "urn:uuid:1fb0f244-8981-4660-8a87-f0d021fbfb7e"
        }
      }
    },
    {
      "fullUrl": "urn:uuid:65b44f26-4654-4ed7-968f-704f45a0eb2e",
      "resource": {
        "resourceType": "Observation",
        "id": "65b44f26-4654-4ed7-968f-704f45a0eb2e",
        "meta": {
          "profile": [
            "http://hl7.eu/fhir/laboratory/StructureDefinition/Observation-resultslab-eu-lab"
          ]
        },
        "performer": [
          {
            "display": "The Central European Lab"
          }
        ],
        "category": [
          {
            "coding": [
              {
                "system": "http://terminology.hl7.org/CodeSystem/observation-category",
                "code": "laboratory"
              }
            ]
          }
        ],
        "code": {
          "coding": [
            {
              "code": "2069-3",
              "system": "http://loinc.org",
              "display": "Chloride [Moles/volume] in Blood"
            }
          ],
          "text": "Chloride [Moles/volume] in Blood"
        },
        "valueQuantity": {
          "system": "http://unitsofmeasure.org",
          "value": 109.6,
          "unit": "mmol/L",
          "code": "mmol/L"
        },
        "referenceRange": [
          {
            "low": {
              "value": 98,
              "code": "mmol/L",
              "system": "http://unitsofmeasure.org"
            }
          },
          {
            "high": {
              "value": 108,
              "code": "mmol/L",
              "system": "http://unitsofmeasure.org"
            }
          }
        ],
        "interpretation": [
          {
            "coding": [
              {
                "code": "H",
                "system": "http://terminology.hl7.org/CodeSystem/v3-ObservationInterpretation",
                "display": "High"
              }
            ]
          }
        ],
        "text": {
          "status": "generated",
          "div": "<div xmlns=\"http://www.w3.org/1999/xhtml\"><table class=\"hl7__eu__lab__report\"><tr><th>Test</th><th>17-May-2024</th><th>Reference&#xA0;Range</th><th>Unit</th></tr><tr><td>Chloride [Moles/volume] in Blood</td><td>109.6</td><td>98 - 108</td><td>H</td><td>mmol/L</td></tr></table></div>"
        },
        "status": "final",
        "subject": {
          "reference": "urn:uuid:246bec30-2d7f-4d42-a365-b951b3bce412",
          "display": "Victor Lagarde"
        },
        "effectiveDateTime": "2024-05-17T04:48:18Z",
        "specimen": {
          "reference": "urn:uuid:1fb0f244-8981-4660-8a87-f0d021fbfb7e"
        }
      }
    },
    {
      "fullUrl": "urn:uuid:6021b3de-bebb-4040-9d7c-110e6e2b856e",
      "resource": {
        "resourceType": "Observation",
        "id": "6021b3de-bebb-4040-9d7c-110e6e2b856e",
        "meta": {
          "profile": [
            "http://hl7.eu/fhir/laboratory/StructureDefinition/Observation-resultslab-eu-lab"
          ]
        },
        "performer": [
          {
            "display": "The Central European Lab"
          }
        ],
        "category": [
          {
            "coding": [
              {
                "system": "http://terminology.hl7.org/CodeSystem/observation-category",
                "code": "laboratory"
              }
            ]
          }
        ],
        "code": {
          "coding": [
            {
              "code": "20565-8",
              "system": "http://loinc.org",
              "display": "Carbon dioxide, total [Moles/volume] in Blood"
            }
          ],
          "text": "Carbon dioxide, total [Moles/volume] in Blood"
        },
        "valueQuantity": {
          "system": "http://unitsofmeasure.org",
          "value": 25.1,
          "unit": "mmol/L",
          "code": "mmol/L"
        },
        "referenceRange": [
          {
            "low": {
              "value": 22,
              "code": "mmol/L",
              "system": "http://unitsofmeasure.org"
            }
          },
          {
            "high": {
              "value": 29,
              "code": "mmol/L",
              "system": "http://unitsofmeasure.org"
            }
          }
        ],
        "text": {
          "status": "generated",
          "div": "<div xmlns=\"http://www.w3.org/1999/xhtml\"><table class=\"hl7__eu__lab__report\"><tr><th>Test</th><th>17-May-2024</th><th>Reference&#xA0;Range</th><th>Unit</th></tr><tr><td>Carbon dioxide, total [Moles/volume] in Blood</td><td>25.1</td><td>22 - 29</td><td></td><td>mmol/L</td></tr></table></div>"
        },
        "status": "final",
        "subject": {
          "reference": "urn:uuid:246bec30-2d7f-4d42-a365-b951b3bce412",
          "display": "Victor Lagarde"
        },
        "effectiveDateTime": "2024-05-17T04:48:18Z",
        "specimen": {
          "reference": "urn:uuid:1fb0f244-8981-4660-8a87-f0d021fbfb7e"
        }
      }
    },
    {
      "fullUrl": "urn:uuid:b7f41d18-dbc3-4c96-b0ff-44fd139452f0",
      "resource": {
        "resourceType": "Device",
        "id": "b7f41d18-dbc3-4c96-b0ff-44fd139452f0",
        "deviceName": [
          {
            "name": "SYNDERAI Synthetic Generator",
            "type": "manufacturer-name"
          }
        ],
        "version": [
          {
            "value": "5.0"
          }
        ],
        "text": {
          "status": "generated",
          "div": "<div xmlns=\"http://www.w3.org/1999/xhtml\">SYNDERAI Synthetic Generator v5.0</div>"
        },
        "status": "active\"",
        "distinctIdentifier": "synderai-generator-50",
        "manufacturer": "SYNDERAI Project"
      }
    },
    {
      "fullUrl": "urn:uuid:290cfaa9-ba9e-4299-96f0-9716b9b158d4",
      "resource": {
        "resourceType": "Provenance",
        "id": "290cfaa9-ba9e-4299-96f0-9716b9b158d4",
        "target": [
          {
            "reference": "Patient/246bec30-2d7f-4d42-a365-b951b3bce412"
          },
          {
            "reference": "Bundle/c0b02a91-23f3-4317-b6bb-bbc0360705b6"
          },
          {
            "reference": "Composition/7da76482-4433-488f-9775-6bd8c70fa523"
          },
          {
            "reference": "PractitionerRole/ddf98c13-d4a3-4866-bc99-fcc3859f22cb"
          },
          {
            "reference": "Practitioner/d52cb7df-de10-4d81-bda2-68372681ca8a"
          },
          {
            "reference": "PractitionerRole/5448089d-e7ee-4e3d-875b-a0d00af8b627"
          },
          {
            "reference": "Organization/cb73d61a-4af0-4d0f-b6dd-459796479e6c"
          }
        ],
        "activity": {
          "text": "Synthetic Example Data Generation"
        },
        "policy": [
          "https://synderai.net/synderai-synthetic-data-policy"
        ],
        "agent": [
          {
            "type": {
              "text": "author"
            },
            "who": {
              "reference": "Device/b7f41d18-dbc3-4c96-b0ff-44fd139452f0"
            }
          }
        ],
        "reason": [
          {
            "text": "Interoperability Testing and Training (non-clinical use)"
          }
        ],
        "text": {
          "status": "generated",
          "div": "<div xmlns=\"http://www.w3.org/1999/xhtml\">Provenance for SYNDERAI Synthetic Example Data Resource</div>"
        },
        "recorded": "2024-05-17T06:48:18Z"
      }
    },
    {
      "fullUrl": "urn:uuid:ddf98c13-d4a3-4866-bc99-fcc3859f22cb",
      "resource": {
        "resourceType": "PractitionerRole",
        "id": "ddf98c13-d4a3-4866-bc99-fcc3859f22cb",
        "meta": {
          "profile": [
            "http://hl7.eu/fhir/base/StructureDefinition/practitionerRole-eu"
          ]
        },
        "text": {
          "status": "generated",
          "div": "<div xmlns=\"http://www.w3.org/1999/xhtml\">Laboratory Role Id: ddf98c13-d4a3-4866-bc99-fcc3859f22cb</div>"
        },
        "practitioner": {
          "reference": "urn:uuid:d52cb7df-de10-4d81-bda2-68372681ca8a"
        }
      }
    },
    {
      "fullUrl": "urn:uuid:d52cb7df-de10-4d81-bda2-68372681ca8a",
      "resource": {
        "resourceType": "Practitioner",
        "id": "d52cb7df-de10-4d81-bda2-68372681ca8a",
        "meta": {
          "profile": [
            "http://hl7.eu/fhir/base/StructureDefinition/practitioner-eu"
          ]
        },
        "identifier": [
          {
            "assigner": {
              "display": "HL7 Europe"
            },
            "system": "urn:oid:2.16.840.1.113883.2.51.999",
            "value": "d80125a3-50d1-4359-9502-055d1dd312c4"
          }
        ],
        "name": [
          {
            "prefix": [
              "dr"
            ],
            "given": [
              "Ex"
            ],
            "family": "Ample"
          }
        ],
        "address": [
          {
            "line": [
              "Laboratoire Central Europenne",
              "Boulevard du Jardin Botanique 32"
            ],
            "postalCode": "1000",
            "city": "Brussels",
            "country": "Belgium"
          }
        ],
        "text": {
          "status": "generated",
          "div": "<div xmlns=\"http://www.w3.org/1999/xhtml\">Laboratory: Laboratoire Central Europenne, 1000 Brussels, Belgium</div>"
        }
      }
    }
  ],
  "type": "document",
  "timestamp": "2024-05-17T06:48:18Z"
}
