{
  "resourceType": "Bundle",
  "id": "fbd8a853-a6fa-4332-9c39-f9897237f085",
  "meta": {
    "profile": [
      "http://hl7.eu/fhir/laboratory/StructureDefinition/Bundle-eu-lab"
    ]
  },
  "identifier": {
    "assigner": {
      "display": "HL7 Europe"
    },
    "system": "urn:oid:2.16.840.1.113883.2.51.999",
    "value": "5d3fd4c8-a4b6-44c6-8eca-2e1dc51ea7c6"
  },
  "entry": [
    {
      "fullUrl": "urn:uuid:2dc4f493-e794-44a9-a58b-0fc6938498ce",
      "resource": {
        "resourceType": "Composition",
        "id": "2dc4f493-e794-44a9-a58b-0fc6938498ce",
        "meta": {
          "profile": [
            "http://hl7.eu/fhir/laboratory/StructureDefinition/Composition-eu-lab"
          ]
        },
        "identifier": {
          "assigner": {
            "display": "HL7 Europe"
          },
          "system": "urn:oid:2.16.840.1.113883.2.51.999",
          "value": "7f7304f1-51b9-4a7a-8446-ef286c554b98"
        },
        "author": [
          {
            "reference": "urn:uuid:9459b30b-7d76-4f07-a61a-4a16b3572449"
          }
        ],
        "category": [
          {
            "coding": [
              {
                "code": "26436-6",
                "system": "http://loinc.org",
                "display": "Laboratory studies (set)"
              }
            ]
          }
        ],
        "type": {
          "coding": [
            {
              "code": "11502-2",
              "system": "http://loinc.org",
              "display": "Laboratory report"
            }
          ],
          "text": "Laboratory Report"
        },
        "section": [
          {
            "code": {
              "coding": [
                {
                  "code": "26436-6",
                  "system": "http://loinc.org",
                  "display": "Laboratory studies (set)"
                }
              ],
              "text": "Laboratory studies"
            },
            "section": [
              {
                "code": {
                  "coding": [
                    {
                      "code": "$18719-5",
                      "system": "http://loinc.org",
                      "display": "Chemistry studies (set)"
                    }
                  ],
                  "text": "Chemistry"
                },
                "entry": [
                  {
                    "reference": "urn:uuid:09693617-fb63-46c0-a1a1-04a84b5e3836"
                  },
                  {
                    "reference": "urn:uuid:b52ccec6-1dfd-4e29-a93a-85b42d912ad8"
                  },
                  {
                    "reference": "urn:uuid:7943dcc5-7654-4697-98a1-d6dc134797c2"
                  },
                  {
                    "reference": "urn:uuid:2716b180-2a37-4fdb-b578-ad32255050ea"
                  },
                  {
                    "reference": "urn:uuid:a981b99c-de31-4f9d-8c6d-a9ba5780a946"
                  },
                  {
                    "reference": "urn:uuid:db882130-6ecc-4900-b4f9-b4e648e257fd"
                  },
                  {
                    "reference": "urn:uuid:8684d3ce-79d2-48d1-802d-9f255195cdbe"
                  },
                  {
                    "reference": "urn:uuid:a101c076-9bb2-48ae-bb27-c4f29a2fe98e"
                  },
                  {
                    "reference": "urn:uuid:9a8509de-9959-4a1a-a13f-7f0c58bb4f9b"
                  },
                  {
                    "reference": "urn:uuid:b63c1029-2f30-4dba-8172-e5d9ba5a212d"
                  },
                  {
                    "reference": "urn:uuid:a3bc29d3-c77e-4dcf-aeef-f96008dc425e"
                  },
                  {
                    "reference": "urn:uuid:c73e5fcf-705d-4428-819e-a0e7ed2a4c6f"
                  },
                  {
                    "reference": "urn:uuid:9c84a7cb-5abb-4b89-bd61-11008a0163d4"
                  },
                  {
                    "reference": "urn:uuid:643eeeac-fdb1-4285-ad01-f788b45e7ebf"
                  },
                  {
                    "reference": "urn:uuid:2fb3a047-eae6-4881-97a9-0ecee67cfae3"
                  },
                  {
                    "reference": "urn:uuid:444757ea-d85a-4bc1-929a-22d49d1f7352"
                  },
                  {
                    "reference": "urn:uuid:01ccb499-b32b-41d6-9781-e2bd189be9b3"
                  },
                  {
                    "reference": "urn:uuid:b03266f1-4013-4856-83bd-344ca62fa990"
                  }
                ],
                "text": {
                  "status": "generated",
                  "div": "<div xmlns=\"http://www.w3.org/1999/xhtml\"><h3>Chemistry</h3><table class=\"hl7__eu__lab__report\"><thead><tr><th>Test</th><th>07-JAN-2021</th><th>Reference&#xA0;Range</th><th>Unit</th></tr></thead><tbody><tr><td>Glucose [Mass/volume] in Serum or Plasma</td><td>98.1</td><td>70 - 140</td><td>mg/dL</td></tr><tr><td>Urea nitrogen [Mass/volume] in Serum or Plasma</td><td>14.6</td><td>7 - 25</td><td>mg/dL</td></tr><tr><td>Creatinine [Mass/volume] in Serum or Plasma</td><td><strong>2.0 H</strong></td><td>0.9 - 1.3</td><td>mg/dL</td></tr><tr><td>Calcium [Mass/volume] in Serum or Plasma</td><td>9.7</td><td>8.5 - 10.5</td><td>mg/dL</td></tr><tr><td>Sodium [Moles/volume] in Serum or Plasma</td><td>142.7</td><td>135 - 145</td><td>mmol/L</td></tr><tr><td>Potassium [Moles/volume] in Serum or Plasma</td><td>5.2</td><td>3.5 - 5.3</td><td>mmol/L</td></tr><tr><td>Chloride [Moles/volume] in Serum or Plasma</td><td>104.1</td><td>98 - 107</td><td>mmol/L</td></tr><tr><td>Carbon dioxide, total [Moles/volume] in Serum or Plasma</td><td>26.0</td><td>22 - 29</td><td>mmol/L</td></tr><tr><td>Ketones [Presence] in Urine by Test strip</td><td>Urine ketone test = +</td><td></td><td></td></tr><tr><td>Hemoglobin A1c/Hemoglobin.total in Blood</td><td><strong>2.9 L</strong></td><td>4.5 - 6.4</td><td>%</td></tr><tr><td>Glucose [Mass/volume] in Blood</td><td>98.1</td><td>70 - 140</td><td>mg/dL</td></tr><tr><td>Urea nitrogen [Mass/volume] in Blood</td><td>14.6</td><td>7 - 25</td><td>mg/dL</td></tr><tr><td>Creatinine [Mass/volume] in Blood</td><td><strong>1.6 H</strong></td><td>0.9 - 1.3</td><td>mg/dL</td></tr><tr><td>Calcium [Mass/volume] in Blood</td><td>9.7</td><td>8.6 - 10.2</td><td>mg/dL</td></tr><tr><td>Sodium [Moles/volume] in Blood</td><td>142.7</td><td>135 - 145</td><td>mmol/L</td></tr><tr><td>Potassium [Moles/volume] in Blood</td><td><strong>5.2 H</strong></td><td>3.5 - 5.1</td><td>mmol/L</td></tr><tr><td>Chloride [Moles/volume] in Blood</td><td>104.1</td><td>98 - 108</td><td>mmol/L</td></tr><tr><td>Carbon dioxide, total [Moles/volume] in Blood</td><td>26.0</td><td>22 - 32</td><td>mmol/L</td></tr></tbody></table></div>"
                },
                "title": "Chemistry"
              },
              {
                "code": {
                  "coding": [
                    {
                      "code": "$18729-4",
                      "system": "http://loinc.org",
                      "display": "Urinalysis studies (set)"
                    }
                  ],
                  "text": "Urinalysis"
                },
                "entry": [
                  {
                    "reference": "urn:uuid:11034b2f-f558-4b98-9c20-432add0e9da1"
                  },
                  {
                    "reference": "urn:uuid:8bf34f0a-47a4-40cc-8741-316b69b5f0ba"
                  },
                  {
                    "reference": "urn:uuid:29011b05-2d65-4412-808b-fccbc5411f17"
                  },
                  {
                    "reference": "urn:uuid:1e39cc50-6de8-48b6-a800-ecc46646b730"
                  },
                  {
                    "reference": "urn:uuid:1c9d9a42-349c-467f-aaa5-3a8f6442b6dd"
                  },
                  {
                    "reference": "urn:uuid:0516be05-e129-4d5a-a2a0-32ccf980cbc8"
                  },
                  {
                    "reference": "urn:uuid:1ceefa85-672c-4378-b78a-8329d30ecb5c"
                  },
                  {
                    "reference": "urn:uuid:ce9d4841-851c-43b8-a2e2-af275e169d89"
                  },
                  {
                    "reference": "urn:uuid:0581fc66-51d6-4e1c-b050-80f0923eed47"
                  },
                  {
                    "reference": "urn:uuid:904ce2c1-dbdf-4e81-a3f5-c71ac3f996ae"
                  },
                  {
                    "reference": "urn:uuid:ded13f6c-fcf7-4a78-bdf1-6a3bd6d2be3e"
                  },
                  {
                    "reference": "urn:uuid:b6331a9c-f0cf-4509-a7bd-f9dc1a02cefa"
                  }
                ],
                "text": {
                  "status": "generated",
                  "div": "<div xmlns=\"http://www.w3.org/1999/xhtml\"><h3>Urinalysis</h3><table class=\"hl7__eu__lab__report\"><thead><tr><th>Test</th><th>07-JAN-2021</th><th>Reference&#xA0;Range</th><th>Unit</th></tr></thead><tbody><tr><td>Glucose [Mass/volume] in Urine by Test strip</td><td><strong>1.4 H</strong></td><td>0.8 - 0</td><td>mg/dL</td></tr><tr><td>Glucose [Presence] in Urine by Test strip</td><td>++</td><td></td><td></td></tr><tr><td>Bilirubin.total [Mass/volume] in Urine by Test strip</td><td>1.0</td><td>0.2 - 1.5</td><td>mg/dL</td></tr><tr><td>Bilirubin.total [Presence] in Urine by Test strip</td><td>Finding of bilirubin in urine</td><td></td><td></td></tr><tr><td>Ketones [Mass/volume] in Urine by Test strip</td><td>3.9</td><td>0 - 4</td><td>mg/dL</td></tr><tr><td>Specific gravity of Urine by Test strip</td><td><strong>1.0 L</strong></td><td>1.01 - 1.03</td><td>{nominal}</td></tr><tr><td>pH of Urine by Test strip</td><td>5.8</td><td>4.5 - 7.5</td><td>pH</td></tr><tr><td>Protein [Mass/volume] in Urine by Test strip</td><td><strong>176.1 H</strong></td><td>0 - 150</td><td>mg/dL</td></tr><tr><td>Protein [Presence] in Urine by Test strip</td><td>Urine protein test = ++</td><td></td><td></td></tr><tr><td>Nitrite [Presence] in Urine by Test strip</td><td>Urine nitrite negative</td><td></td><td></td></tr><tr><td>Hemoglobin [Presence] in Urine by Test strip</td><td>Urine blood test = negative</td><td></td><td></td></tr><tr><td>Leukocyte esterase [Presence] in Urine by Test strip</td><td>Urine leukocyte test negative</td><td></td><td></td></tr></tbody></table></div>"
                },
                "title": "Urinalysis"
              },
              {
                "code": {
                  "coding": [
                    {
                      "code": "$LP7846-1",
                      "system": "http://loinc.org",
                      "display": "Specimen information"
                    }
                  ],
                  "text": "Specimen information"
                },
                "entry": [
                  {
                    "reference": "urn:uuid:dc29e8ea-13f8-4067-9c24-cf1c865b607b"
                  },
                  {
                    "reference": "urn:uuid:31d29b9c-d4f8-4a32-b0c4-58fef0313312"
                  },
                  {
                    "reference": "urn:uuid:f5a34300-128e-46f3-83bd-1e009a027b51"
                  },
                  {
                    "reference": "urn:uuid:d5e06748-b9a9-496a-9f52-bca8d1dbc4bf"
                  }
                ],
                "text": {
                  "status": "generated",
                  "div": "<div xmlns=\"http://www.w3.org/1999/xhtml\"><h3>Specimen information</h3><table class=\"hl7__eu__lab__report\"><thead><tr><th>Test</th><th>07-JAN-2021</th><th>Specimen</th><th></th></tr></thead><tbody><tr><td>Appearance of Urine</td><td>Cloudy urine</td><td>Urine</td><td></td></tr><tr><td>Odor of Urine</td><td>Urine smell ammoniacal</td><td>Urine</td><td></td></tr><tr><td>Clarity of Urine</td><td>Translucent</td><td>Urine</td><td></td></tr><tr><td>Color of Urine</td><td>Brown color</td><td>Urine</td><td></td></tr></tbody></table></div>"
                },
                "title": "Specimen information"
              }
            ],
            "title": "Laboratory Report"
          },
          {
            "text": {
              "status": "generated",
              "div": "<div xmlns=\"http://www.w3.org/1999/xhtml\"><h3>Annotation</h3><table class=\"hl7__eu__lab__report\"><tr><th>Conclusion and Recommendations based on this report and previous findings known to us</th></tr><tr><td>The patient shows mildly elevated creatinine, suggesting possible renal impairment, and proteinuria, which may indicate glomerular involvement. Urine is dilute (low specific gravity) and abnormal in appearance, with glucosuria and ketonuria, but HbA1c is low, making diabetes unlikely. Mild hyperkalemia is present. No evidence of urinary infection. Recommend further evaluation of renal function and possible causes of proteinuria and glucosuria.</td></tr></table></div>"
            },
            "code": {
              "coding": [
                {
                  "system": "http://loinc.org",
                  "code": "48767-8",
                  "display": "Annotation comment"
                }
              ]
            },
            "title": "Annotation comment"
          }
        ],
        "status": "final",
        "subject": {
          "reference": "urn:uuid:ad41f5d8-588f-4761-b94f-e30883615046",
          "display": "Pelayo Casal"
        },
        "date": "2021-01-07T06:38:59Z",
        "title": "Laboratory Report",
        "confidentiality": "N"
      }
    },
    {
      "fullUrl": "urn:uuid:706c813f-489e-4e11-8b95-0cb846c9af8c",
      "resource": {
        "resourceType": "DiagnosticReport",
        "id": "706c813f-489e-4e11-8b95-0cb846c9af8c",
        "meta": {
          "profile": [
            "http://hl7.eu/fhir/laboratory/StructureDefinition/DiagnosticReport-eu-lab"
          ]
        },
        "identifier": [
          {
            "assigner": {
              "display": "HL7 Europe"
            },
            "system": "urn:oid:2.16.840.1.113883.2.51.999",
            "value": "226cc7b3-1231-4f8b-b7a4-939d072b3e1d"
          }
        ],
        "extension": [
          {
            "url": "http://hl7.org/fhir/5.0/StructureDefinition/extension-DiagnosticReport.composition",
            "valueReference": {
              "reference": "urn:uuid:7f7304f1-51b9-4a7a-8446-ef286c554b98"
            }
          }
        ],
        "category": [
          {
            "coding": [
              {
                "code": "26436-6",
                "system": "http://loinc.org",
                "display": "Laboratory studies (set)"
              }
            ]
          }
        ],
        "specimen": [
          {
            "reference": "urn:uuid:d126f381-658a-4ece-bc8b-495020e5d427"
          },
          {
            "reference": "urn:uuid:b8096fe0-47a1-4047-8bf1-6b6cf951c604"
          },
          {
            "reference": "urn:uuid:7ea77f8c-832b-43fc-b1e4-ea40195c4fbe"
          }
        ],
        "result": [
          {
            "reference": "urn:uuid:09693617-fb63-46c0-a1a1-04a84b5e3836"
          },
          {
            "reference": "urn:uuid:b52ccec6-1dfd-4e29-a93a-85b42d912ad8"
          },
          {
            "reference": "urn:uuid:7943dcc5-7654-4697-98a1-d6dc134797c2"
          },
          {
            "reference": "urn:uuid:2716b180-2a37-4fdb-b578-ad32255050ea"
          },
          {
            "reference": "urn:uuid:a981b99c-de31-4f9d-8c6d-a9ba5780a946"
          },
          {
            "reference": "urn:uuid:db882130-6ecc-4900-b4f9-b4e648e257fd"
          },
          {
            "reference": "urn:uuid:8684d3ce-79d2-48d1-802d-9f255195cdbe"
          },
          {
            "reference": "urn:uuid:a101c076-9bb2-48ae-bb27-c4f29a2fe98e"
          },
          {
            "reference": "urn:uuid:dc29e8ea-13f8-4067-9c24-cf1c865b607b"
          },
          {
            "reference": "urn:uuid:31d29b9c-d4f8-4a32-b0c4-58fef0313312"
          },
          {
            "reference": "urn:uuid:f5a34300-128e-46f3-83bd-1e009a027b51"
          },
          {
            "reference": "urn:uuid:d5e06748-b9a9-496a-9f52-bca8d1dbc4bf"
          },
          {
            "reference": "urn:uuid:11034b2f-f558-4b98-9c20-432add0e9da1"
          },
          {
            "reference": "urn:uuid:8bf34f0a-47a4-40cc-8741-316b69b5f0ba"
          },
          {
            "reference": "urn:uuid:29011b05-2d65-4412-808b-fccbc5411f17"
          },
          {
            "reference": "urn:uuid:1e39cc50-6de8-48b6-a800-ecc46646b730"
          },
          {
            "reference": "urn:uuid:1c9d9a42-349c-467f-aaa5-3a8f6442b6dd"
          },
          {
            "reference": "urn:uuid:9a8509de-9959-4a1a-a13f-7f0c58bb4f9b"
          },
          {
            "reference": "urn:uuid:0516be05-e129-4d5a-a2a0-32ccf980cbc8"
          },
          {
            "reference": "urn:uuid:1ceefa85-672c-4378-b78a-8329d30ecb5c"
          },
          {
            "reference": "urn:uuid:ce9d4841-851c-43b8-a2e2-af275e169d89"
          },
          {
            "reference": "urn:uuid:0581fc66-51d6-4e1c-b050-80f0923eed47"
          },
          {
            "reference": "urn:uuid:904ce2c1-dbdf-4e81-a3f5-c71ac3f996ae"
          },
          {
            "reference": "urn:uuid:ded13f6c-fcf7-4a78-bdf1-6a3bd6d2be3e"
          },
          {
            "reference": "urn:uuid:b6331a9c-f0cf-4509-a7bd-f9dc1a02cefa"
          },
          {
            "reference": "urn:uuid:b63c1029-2f30-4dba-8172-e5d9ba5a212d"
          },
          {
            "reference": "urn:uuid:a3bc29d3-c77e-4dcf-aeef-f96008dc425e"
          },
          {
            "reference": "urn:uuid:c73e5fcf-705d-4428-819e-a0e7ed2a4c6f"
          },
          {
            "reference": "urn:uuid:9c84a7cb-5abb-4b89-bd61-11008a0163d4"
          },
          {
            "reference": "urn:uuid:643eeeac-fdb1-4285-ad01-f788b45e7ebf"
          },
          {
            "reference": "urn:uuid:2fb3a047-eae6-4881-97a9-0ecee67cfae3"
          },
          {
            "reference": "urn:uuid:444757ea-d85a-4bc1-929a-22d49d1f7352"
          },
          {
            "reference": "urn:uuid:01ccb499-b32b-41d6-9781-e2bd189be9b3"
          },
          {
            "reference": "urn:uuid:b03266f1-4013-4856-83bd-344ca62fa990"
          }
        ],
        "status": "registered",
        "code": {
          "coding": [
            {
              "code": "11502-2",
              "system": "http://loinc.org",
              "display": "Laboratory report"
            }
          ]
        },
        "subject": {
          "reference": "urn:uuid:ad41f5d8-588f-4761-b94f-e30883615046",
          "display": "Pelayo Casal"
        }
      }
    },
    {
      "fullUrl": "urn:uuid:ad41f5d8-588f-4761-b94f-e30883615046",
      "resource": {
        "resourceType": "Patient",
        "id": "ad41f5d8-588f-4761-b94f-e30883615046",
        "meta": {
          "security": [
            {
              "system": "http://terminology.hl7.org/CodeSystem/v3-ActReason",
              "code": "HTEST"
            },
            {
              "system": "http://terminology.hl7.org/CodeSystem/v3-ActReason",
              "code": "TRAIN"
            }
          ],
          "tag": [
            {
              "system": "https://synderai.net/fhir/CodeSystem/tags",
              "code": "synthetic",
              "display": "SYNDERAI Synthetic data"
            }
          ],
          "profile": [
            "http://hl7.eu/fhir/base/StructureDefinition/patient-eu-core"
          ]
        },
        "identifier": [
          {
            "type": {
              "coding": [
                {
                  "code": "PT",
                  "system": "http://terminology.hl7.org/CodeSystem/v2-0203"
                }
              ]
            },
            "system": "http://ec.europa.eu/identifier/eci",
            "value": "7707-510028-7"
          },
          {
            "type": {
              "coding": [
                {
                  "code": "MR",
                  "system": "http://terminology.hl7.org/CodeSystem/v2-0203"
                }
              ]
            },
            "system": "http://local.setting.eu/identifier",
            "value": "d88e82c6-df33-82d2-8538-f8b57da06491"
          }
        ],
        "name": [
          {
            "family": "Casal"
          },
          {
            "given": [
              "Pelayo"
            ]
          },
          {
            "text": "Pelayo Casal"
          }
        ],
        "address": [
          {
            "line": [
              "Callejón de Ignacio Pedrosa 67 Apt. 68 "
            ],
            "use": "home",
            "type": "physical",
            "postalCode": "35001",
            "city": "Las Palmas",
            "country": "Spain"
          }
        ],
        "telecom": [
          {
            "system": "phone",
            "value": "+34 875724898"
          }
        ],
        "extension": [
          {
            "url": "http://hl7.org/fhir/StructureDefinition/patient-nationality",
            "valueCodeableConcept": {
              "coding": [
                {
                  "code": "ES",
                  "system": "http://hl7.org/fhir/ValueSet/country"
                }
              ]
            }
          }
        ],
        "text": {
          "status": "generated",
          "div": "<div xmlns=\"http://www.w3.org/1999/xhtml\"><table class=\"hl7__ips\"><tr><td>Pelayo Casal</td><td>male</td><td>19-Apr-1940</td></tr></table></div>"
        },
        "gender": "male",
        "birthDate": "1940-04-19"
      }
    },
    {
      "fullUrl": "urn:uuid:791f77b7-e48e-46dd-bcd6-618f2ecc9b39",
      "resource": {
        "resourceType": "ServiceRequest",
        "id": "791f77b7-e48e-46dd-bcd6-618f2ecc9b39",
        "meta": {
          "profile": [
            "http://hl7.eu/fhir/laboratory/StructureDefinition/ServiceRequest-eu-lab"
          ]
        },
        "identifier": [
          {
            "system": "http://example.org",
            "value": "8d4f737f-4d60-46a2-8425-0cef287ae2a3"
          }
        ],
        "specimen": [
          {
            "reference": "urn:uuid:d126f381-658a-4ece-bc8b-495020e5d427"
          },
          {
            "reference": "urn:uuid:b8096fe0-47a1-4047-8bf1-6b6cf951c604"
          },
          {
            "reference": "urn:uuid:7ea77f8c-832b-43fc-b1e4-ea40195c4fbe"
          }
        ],
        "reasonCode": [
          {
            "coding": [
              {
                "code": "431856006",
                "system": "http://snomed.info/sct",
                "display": "Chronic kidney disease stage 2"
              }
            ]
          },
          {
            "coding": [
              {
                "code": "90781000119102",
                "system": "http://snomed.info/sct",
                "display": "Microalbuminuria due to type 2 diabetes mellitus"
              }
            ]
          },
          {
            "coding": [
              {
                "code": "127013003",
                "system": "http://snomed.info/sct",
                "display": "Disorder of kidney due to diabetes mellitus"
              }
            ]
          },
          {
            "coding": [
              {
                "code": "431855005",
                "system": "http://snomed.info/sct",
                "display": "Chronic kidney disease stage 1"
              }
            ]
          },
          {
            "coding": [
              {
                "code": "64859006",
                "system": "http://snomed.info/sct",
                "display": "Osteoporosis"
              }
            ]
          },
          {
            "coding": [
              {
                "code": "414545008",
                "system": "http://snomed.info/sct",
                "display": "Ischemic heart disease"
              }
            ]
          },
          {
            "coding": [
              {
                "code": "237602007",
                "system": "http://snomed.info/sct",
                "display": "Metabolic syndrome X"
              }
            ]
          },
          {
            "coding": [
              {
                "code": "59621000",
                "system": "http://snomed.info/sct",
                "display": "Essential hypertension"
              }
            ]
          },
          {
            "coding": [
              {
                "code": "271737000",
                "system": "http://snomed.info/sct",
                "display": "Anemia"
              }
            ]
          },
          {
            "coding": [
              {
                "code": "15777000",
                "system": "http://snomed.info/sct",
                "display": "Prediabetes"
              }
            ]
          }
        ],
        "status": "active",
        "intent": "order",
        "code": {
          "coding": [
            {
              "code": "108252007",
              "system": "http://snomed.info/sct",
              "display": "Laboratory procedure"
            }
          ]
        },
        "subject": {
          "reference": "urn:uuid:ad41f5d8-588f-4761-b94f-e30883615046",
          "display": "Pelayo Casal"
        },
        "requester": {
          "reference": "urn:uuid:a753cc4c-9e47-4b52-9e1c-93be418520fb"
        }
      }
    },
    {
      "fullUrl": "urn:uuid:a753cc4c-9e47-4b52-9e1c-93be418520fb",
      "resource": {
        "resourceType": "PractitionerRole",
        "id": "a753cc4c-9e47-4b52-9e1c-93be418520fb",
        "meta": {
          "profile": [
            "http://hl7.eu/fhir/base/StructureDefinition/practitionerRole-eu"
          ]
        },
        "text": {
          "status": "generated",
          "div": "<div xmlns=\"http://www.w3.org/1999/xhtml\">Provider Role Id: a753cc4c-9e47-4b52-9e1c-93be418520fb</div>"
        },
        "organization": {
          "reference": "urn:uuid:c866afb3-7b4a-46cd-b1cb-c595d26bad38"
        }
      }
    },
    {
      "fullUrl": "urn:uuid:c866afb3-7b4a-46cd-b1cb-c595d26bad38",
      "resource": {
        "resourceType": "Organization",
        "id": "c866afb3-7b4a-46cd-b1cb-c595d26bad38",
        "meta": {
          "profile": [
            "http://hl7.eu/fhir/base/StructureDefinition/organization-eu"
          ]
        },
        "identifier": [
          {
            "assigner": {
              "display": "HL7 Europe"
            },
            "system": "urn:oid:2.16.840.1.113883.2.51.999",
            "value": "24a2414f-2ec8-4aed-87f7-272f893efd90"
          }
        ],
        "address": [
          {
            "country": "Spain"
          }
        ],
        "text": {
          "status": "generated",
          "div": "<div xmlns=\"http://www.w3.org/1999/xhtml\">Provider Organization: Centro de Salud de Guanarteme</div>"
        },
        "name": "Centro de Salud de Guanarteme"
      }
    },
    {
      "fullUrl": "urn:uuid:d126f381-658a-4ece-bc8b-495020e5d427",
      "resource": {
        "resourceType": "Specimen",
        "id": "d126f381-658a-4ece-bc8b-495020e5d427",
        "meta": {
          "profile": [
            "http://hl7.eu/fhir/laboratory/StructureDefinition/Specimen-eu-lab"
          ]
        },
        "collection": {
          "collectedDateTime": "2021-01-07"
        },
        "text": {
          "status": "generated",
          "div": "<div xmlns=\"http://www.w3.org/1999/xhtml\"><table class=\"hl7__eu__lab__report\"><tr><th>Specimen</th><th>Collection Date</th></tr><tr><td>Acellular blood (serum or plasma) specimen</td><td><span class=\"nb\">07-Jan-2021</span></td></tr></table></div>"
        },
        "type": {
          "coding": [
            {
              "code": "122592007",
              "system": "http://snomed.info/sct",
              "display": "Acellular blood (serum or plasma) specimen"
            }
          ]
        }
      }
    },
    {
      "fullUrl": "urn:uuid:b8096fe0-47a1-4047-8bf1-6b6cf951c604",
      "resource": {
        "resourceType": "Specimen",
        "id": "b8096fe0-47a1-4047-8bf1-6b6cf951c604",
        "meta": {
          "profile": [
            "http://hl7.eu/fhir/laboratory/StructureDefinition/Specimen-eu-lab"
          ]
        },
        "collection": {
          "collectedDateTime": "2021-01-07"
        },
        "text": {
          "status": "generated",
          "div": "<div xmlns=\"http://www.w3.org/1999/xhtml\"><table class=\"hl7__eu__lab__report\"><tr><th>Specimen</th><th>Collection Date</th></tr><tr><td>Urine specimen</td><td><span class=\"nb\">07-Jan-2021</span></td></tr></table></div>"
        },
        "type": {
          "coding": [
            {
              "code": "122575003",
              "system": "http://snomed.info/sct",
              "display": "Urine specimen"
            }
          ]
        }
      }
    },
    {
      "fullUrl": "urn:uuid:7ea77f8c-832b-43fc-b1e4-ea40195c4fbe",
      "resource": {
        "resourceType": "Specimen",
        "id": "7ea77f8c-832b-43fc-b1e4-ea40195c4fbe",
        "meta": {
          "profile": [
            "http://hl7.eu/fhir/laboratory/StructureDefinition/Specimen-eu-lab"
          ]
        },
        "collection": {
          "collectedDateTime": "2021-01-07"
        },
        "text": {
          "status": "generated",
          "div": "<div xmlns=\"http://www.w3.org/1999/xhtml\"><table class=\"hl7__eu__lab__report\"><tr><th>Specimen</th><th>Collection Date</th></tr><tr><td>Whole blood specimen (specimen)</td><td><span class=\"nb\">07-Jan-2021</span></td></tr></table></div>"
        },
        "type": {
          "coding": [
            {
              "code": "258580003",
              "system": "http://snomed.info/sct",
              "display": "Whole blood specimen (specimen)"
            }
          ]
        }
      }
    },
    {
      "fullUrl": "urn:uuid:09693617-fb63-46c0-a1a1-04a84b5e3836",
      "resource": {
        "resourceType": "Observation",
        "id": "09693617-fb63-46c0-a1a1-04a84b5e3836",
        "meta": {
          "profile": [
            "http://hl7.eu/fhir/laboratory/StructureDefinition/Observation-resultslab-eu-lab"
          ]
        },
        "performer": [
          {
            "display": "The Central European Lab"
          }
        ],
        "category": [
          {
            "coding": [
              {
                "system": "http://terminology.hl7.org/CodeSystem/observation-category",
                "code": "laboratory"
              }
            ]
          }
        ],
        "code": {
          "coding": [
            {
              "code": "2345-7",
              "system": "http://loinc.org",
              "display": "Glucose [Mass/volume] in Serum or Plasma"
            }
          ],
          "text": "Glucose [Mass/volume] in Serum or Plasma"
        },
        "valueQuantity": {
          "system": "http://unitsofmeasure.org",
          "value": 98.1,
          "unit": "mg/dL",
          "code": "mg/dL"
        },
        "referenceRange": [
          {
            "low": {
              "value": 70,
              "code": "mg/dL",
              "system": "http://unitsofmeasure.org"
            }
          },
          {
            "high": {
              "value": 140,
              "code": "mg/dL",
              "system": "http://unitsofmeasure.org"
            }
          }
        ],
        "text": {
          "status": "generated",
          "div": "<div xmlns=\"http://www.w3.org/1999/xhtml\"><table class=\"hl7__eu__lab__report\"><tr><th>Test</th><th>07-Jan-2021</th><th>Reference&#xA0;Range</th><th>Unit</th></tr><tr><td>Glucose [Mass/volume] in Serum or Plasma</td><td>98.1</td><td>70 - 140</td><td></td><td>mg/dL</td></tr></table></div>"
        },
        "status": "final",
        "subject": {
          "reference": "urn:uuid:ad41f5d8-588f-4761-b94f-e30883615046",
          "display": "Pelayo Casal"
        },
        "effectiveDateTime": "2021-01-07T05:38:59Z",
        "specimen": {
          "reference": "urn:uuid:d126f381-658a-4ece-bc8b-495020e5d427"
        }
      }
    },
    {
      "fullUrl": "urn:uuid:b52ccec6-1dfd-4e29-a93a-85b42d912ad8",
      "resource": {
        "resourceType": "Observation",
        "id": "b52ccec6-1dfd-4e29-a93a-85b42d912ad8",
        "meta": {
          "profile": [
            "http://hl7.eu/fhir/laboratory/StructureDefinition/Observation-resultslab-eu-lab"
          ]
        },
        "performer": [
          {
            "display": "The Central European Lab"
          }
        ],
        "category": [
          {
            "coding": [
              {
                "system": "http://terminology.hl7.org/CodeSystem/observation-category",
                "code": "laboratory"
              }
            ]
          }
        ],
        "code": {
          "coding": [
            {
              "code": "3094-0",
              "system": "http://loinc.org",
              "display": "Urea nitrogen [Mass/volume] in Serum or Plasma"
            }
          ],
          "text": "Urea nitrogen [Mass/volume] in Serum or Plasma"
        },
        "valueQuantity": {
          "system": "http://unitsofmeasure.org",
          "value": 14.6,
          "unit": "mg/dL",
          "code": "mg/dL"
        },
        "referenceRange": [
          {
            "low": {
              "value": 7,
              "code": "mg/dL",
              "system": "http://unitsofmeasure.org"
            }
          },
          {
            "high": {
              "value": 25,
              "code": "mg/dL",
              "system": "http://unitsofmeasure.org"
            }
          }
        ],
        "text": {
          "status": "generated",
          "div": "<div xmlns=\"http://www.w3.org/1999/xhtml\"><table class=\"hl7__eu__lab__report\"><tr><th>Test</th><th>07-Jan-2021</th><th>Reference&#xA0;Range</th><th>Unit</th></tr><tr><td>Urea nitrogen [Mass/volume] in Serum or Plasma</td><td>14.6</td><td>7 - 25</td><td></td><td>mg/dL</td></tr></table></div>"
        },
        "status": "final",
        "subject": {
          "reference": "urn:uuid:ad41f5d8-588f-4761-b94f-e30883615046",
          "display": "Pelayo Casal"
        },
        "effectiveDateTime": "2021-01-07T05:38:59Z",
        "specimen": {
          "reference": "urn:uuid:d126f381-658a-4ece-bc8b-495020e5d427"
        }
      }
    },
    {
      "fullUrl": "urn:uuid:7943dcc5-7654-4697-98a1-d6dc134797c2",
      "resource": {
        "resourceType": "Observation",
        "id": "7943dcc5-7654-4697-98a1-d6dc134797c2",
        "meta": {
          "profile": [
            "http://hl7.eu/fhir/laboratory/StructureDefinition/Observation-resultslab-eu-lab"
          ]
        },
        "performer": [
          {
            "display": "The Central European Lab"
          }
        ],
        "category": [
          {
            "coding": [
              {
                "system": "http://terminology.hl7.org/CodeSystem/observation-category",
                "code": "laboratory"
              }
            ]
          }
        ],
        "code": {
          "coding": [
            {
              "code": "2160-0",
              "system": "http://loinc.org",
              "display": "Creatinine [Mass/volume] in Serum or Plasma"
            }
          ],
          "text": "Creatinine [Mass/volume] in Serum or Plasma"
        },
        "valueQuantity": {
          "system": "http://unitsofmeasure.org",
          "value": 2,
          "unit": "mg/dL",
          "code": "mg/dL"
        },
        "referenceRange": [
          {
            "low": {
              "value": 0.9,
              "code": "mg/dL",
              "system": "http://unitsofmeasure.org"
            }
          },
          {
            "high": {
              "value": 1.3,
              "code": "mg/dL",
              "system": "http://unitsofmeasure.org"
            }
          }
        ],
        "interpretation": [
          {
            "coding": [
              {
                "code": "H",
                "system": "http://terminology.hl7.org/CodeSystem/v3-ObservationInterpretation",
                "display": "High"
              }
            ]
          }
        ],
        "text": {
          "status": "generated",
          "div": "<div xmlns=\"http://www.w3.org/1999/xhtml\"><table class=\"hl7__eu__lab__report\"><tr><th>Test</th><th>07-Jan-2021</th><th>Reference&#xA0;Range</th><th>Unit</th></tr><tr><td>Creatinine [Mass/volume] in Serum or Plasma</td><td>2.0</td><td>0.9 - 1.3</td><td>H</td><td>mg/dL</td></tr></table></div>"
        },
        "status": "final",
        "subject": {
          "reference": "urn:uuid:ad41f5d8-588f-4761-b94f-e30883615046",
          "display": "Pelayo Casal"
        },
        "effectiveDateTime": "2021-01-07T05:38:59Z",
        "specimen": {
          "reference": "urn:uuid:d126f381-658a-4ece-bc8b-495020e5d427"
        }
      }
    },
    {
      "fullUrl": "urn:uuid:2716b180-2a37-4fdb-b578-ad32255050ea",
      "resource": {
        "resourceType": "Observation",
        "id": "2716b180-2a37-4fdb-b578-ad32255050ea",
        "meta": {
          "profile": [
            "http://hl7.eu/fhir/laboratory/StructureDefinition/Observation-resultslab-eu-lab"
          ]
        },
        "performer": [
          {
            "display": "The Central European Lab"
          }
        ],
        "category": [
          {
            "coding": [
              {
                "system": "http://terminology.hl7.org/CodeSystem/observation-category",
                "code": "laboratory"
              }
            ]
          }
        ],
        "code": {
          "coding": [
            {
              "code": "17861-6",
              "system": "http://loinc.org",
              "display": "Calcium [Mass/volume] in Serum or Plasma"
            }
          ],
          "text": "Calcium [Mass/volume] in Serum or Plasma"
        },
        "valueQuantity": {
          "system": "http://unitsofmeasure.org",
          "value": 9.7,
          "unit": "mg/dL",
          "code": "mg/dL"
        },
        "referenceRange": [
          {
            "low": {
              "value": 8.5,
              "code": "mg/dL",
              "system": "http://unitsofmeasure.org"
            }
          },
          {
            "high": {
              "value": 10.5,
              "code": "mg/dL",
              "system": "http://unitsofmeasure.org"
            }
          }
        ],
        "text": {
          "status": "generated",
          "div": "<div xmlns=\"http://www.w3.org/1999/xhtml\"><table class=\"hl7__eu__lab__report\"><tr><th>Test</th><th>07-Jan-2021</th><th>Reference&#xA0;Range</th><th>Unit</th></tr><tr><td>Calcium [Mass/volume] in Serum or Plasma</td><td>9.7</td><td>8.5 - 10.5</td><td></td><td>mg/dL</td></tr></table></div>"
        },
        "status": "final",
        "subject": {
          "reference": "urn:uuid:ad41f5d8-588f-4761-b94f-e30883615046",
          "display": "Pelayo Casal"
        },
        "effectiveDateTime": "2021-01-07T05:38:59Z",
        "specimen": {
          "reference": "urn:uuid:d126f381-658a-4ece-bc8b-495020e5d427"
        }
      }
    },
    {
      "fullUrl": "urn:uuid:a981b99c-de31-4f9d-8c6d-a9ba5780a946",
      "resource": {
        "resourceType": "Observation",
        "id": "a981b99c-de31-4f9d-8c6d-a9ba5780a946",
        "meta": {
          "profile": [
            "http://hl7.eu/fhir/laboratory/StructureDefinition/Observation-resultslab-eu-lab"
          ]
        },
        "performer": [
          {
            "display": "The Central European Lab"
          }
        ],
        "category": [
          {
            "coding": [
              {
                "system": "http://terminology.hl7.org/CodeSystem/observation-category",
                "code": "laboratory"
              }
            ]
          }
        ],
        "code": {
          "coding": [
            {
              "code": "2951-2",
              "system": "http://loinc.org",
              "display": "Sodium [Moles/volume] in Serum or Plasma"
            }
          ],
          "text": "Sodium [Moles/volume] in Serum or Plasma"
        },
        "valueQuantity": {
          "system": "http://unitsofmeasure.org",
          "value": 142.7,
          "unit": "mmol/L",
          "code": "mmol/L"
        },
        "referenceRange": [
          {
            "low": {
              "value": 135,
              "code": "mmol/L",
              "system": "http://unitsofmeasure.org"
            }
          },
          {
            "high": {
              "value": 145,
              "code": "mmol/L",
              "system": "http://unitsofmeasure.org"
            }
          }
        ],
        "text": {
          "status": "generated",
          "div": "<div xmlns=\"http://www.w3.org/1999/xhtml\"><table class=\"hl7__eu__lab__report\"><tr><th>Test</th><th>07-Jan-2021</th><th>Reference&#xA0;Range</th><th>Unit</th></tr><tr><td>Sodium [Moles/volume] in Serum or Plasma</td><td>142.7</td><td>135 - 145</td><td></td><td>mmol/L</td></tr></table></div>"
        },
        "status": "final",
        "subject": {
          "reference": "urn:uuid:ad41f5d8-588f-4761-b94f-e30883615046",
          "display": "Pelayo Casal"
        },
        "effectiveDateTime": "2021-01-07T05:38:59Z",
        "specimen": {
          "reference": "urn:uuid:d126f381-658a-4ece-bc8b-495020e5d427"
        }
      }
    },
    {
      "fullUrl": "urn:uuid:db882130-6ecc-4900-b4f9-b4e648e257fd",
      "resource": {
        "resourceType": "Observation",
        "id": "db882130-6ecc-4900-b4f9-b4e648e257fd",
        "meta": {
          "profile": [
            "http://hl7.eu/fhir/laboratory/StructureDefinition/Observation-resultslab-eu-lab"
          ]
        },
        "performer": [
          {
            "display": "The Central European Lab"
          }
        ],
        "category": [
          {
            "coding": [
              {
                "system": "http://terminology.hl7.org/CodeSystem/observation-category",
                "code": "laboratory"
              }
            ]
          }
        ],
        "code": {
          "coding": [
            {
              "code": "2823-3",
              "system": "http://loinc.org",
              "display": "Potassium [Moles/volume] in Serum or Plasma"
            }
          ],
          "text": "Potassium [Moles/volume] in Serum or Plasma"
        },
        "valueQuantity": {
          "system": "http://unitsofmeasure.org",
          "value": 5.2,
          "unit": "mmol/L",
          "code": "mmol/L"
        },
        "referenceRange": [
          {
            "low": {
              "value": 3.5,
              "code": "mmol/L",
              "system": "http://unitsofmeasure.org"
            }
          },
          {
            "high": {
              "value": 5.3,
              "code": "mmol/L",
              "system": "http://unitsofmeasure.org"
            }
          }
        ],
        "text": {
          "status": "generated",
          "div": "<div xmlns=\"http://www.w3.org/1999/xhtml\"><table class=\"hl7__eu__lab__report\"><tr><th>Test</th><th>07-Jan-2021</th><th>Reference&#xA0;Range</th><th>Unit</th></tr><tr><td>Potassium [Moles/volume] in Serum or Plasma</td><td>5.2</td><td>3.5 - 5.3</td><td></td><td>mmol/L</td></tr></table></div>"
        },
        "status": "final",
        "subject": {
          "reference": "urn:uuid:ad41f5d8-588f-4761-b94f-e30883615046",
          "display": "Pelayo Casal"
        },
        "effectiveDateTime": "2021-01-07T05:38:59Z",
        "specimen": {
          "reference": "urn:uuid:d126f381-658a-4ece-bc8b-495020e5d427"
        }
      }
    },
    {
      "fullUrl": "urn:uuid:8684d3ce-79d2-48d1-802d-9f255195cdbe",
      "resource": {
        "resourceType": "Observation",
        "id": "8684d3ce-79d2-48d1-802d-9f255195cdbe",
        "meta": {
          "profile": [
            "http://hl7.eu/fhir/laboratory/StructureDefinition/Observation-resultslab-eu-lab"
          ]
        },
        "performer": [
          {
            "display": "The Central European Lab"
          }
        ],
        "category": [
          {
            "coding": [
              {
                "system": "http://terminology.hl7.org/CodeSystem/observation-category",
                "code": "laboratory"
              }
            ]
          }
        ],
        "code": {
          "coding": [
            {
              "code": "2075-0",
              "system": "http://loinc.org",
              "display": "Chloride [Moles/volume] in Serum or Plasma"
            }
          ],
          "text": "Chloride [Moles/volume] in Serum or Plasma"
        },
        "valueQuantity": {
          "system": "http://unitsofmeasure.org",
          "value": 104.1,
          "unit": "mmol/L",
          "code": "mmol/L"
        },
        "referenceRange": [
          {
            "low": {
              "value": 98,
              "code": "mmol/L",
              "system": "http://unitsofmeasure.org"
            }
          },
          {
            "high": {
              "value": 107,
              "code": "mmol/L",
              "system": "http://unitsofmeasure.org"
            }
          }
        ],
        "text": {
          "status": "generated",
          "div": "<div xmlns=\"http://www.w3.org/1999/xhtml\"><table class=\"hl7__eu__lab__report\"><tr><th>Test</th><th>07-Jan-2021</th><th>Reference&#xA0;Range</th><th>Unit</th></tr><tr><td>Chloride [Moles/volume] in Serum or Plasma</td><td>104.1</td><td>98 - 107</td><td></td><td>mmol/L</td></tr></table></div>"
        },
        "status": "final",
        "subject": {
          "reference": "urn:uuid:ad41f5d8-588f-4761-b94f-e30883615046",
          "display": "Pelayo Casal"
        },
        "effectiveDateTime": "2021-01-07T05:38:59Z",
        "specimen": {
          "reference": "urn:uuid:d126f381-658a-4ece-bc8b-495020e5d427"
        }
      }
    },
    {
      "fullUrl": "urn:uuid:a101c076-9bb2-48ae-bb27-c4f29a2fe98e",
      "resource": {
        "resourceType": "Observation",
        "id": "a101c076-9bb2-48ae-bb27-c4f29a2fe98e",
        "meta": {
          "profile": [
            "http://hl7.eu/fhir/laboratory/StructureDefinition/Observation-resultslab-eu-lab"
          ]
        },
        "performer": [
          {
            "display": "The Central European Lab"
          }
        ],
        "category": [
          {
            "coding": [
              {
                "system": "http://terminology.hl7.org/CodeSystem/observation-category",
                "code": "laboratory"
              }
            ]
          }
        ],
        "code": {
          "coding": [
            {
              "code": "2028-9",
              "system": "http://loinc.org",
              "display": "Carbon dioxide, total [Moles/volume] in Serum or Plasma"
            }
          ],
          "text": "Carbon dioxide, total [Moles/volume] in Serum or Plasma"
        },
        "valueQuantity": {
          "system": "http://unitsofmeasure.org",
          "value": 26,
          "unit": "mmol/L",
          "code": "mmol/L"
        },
        "referenceRange": [
          {
            "low": {
              "value": 22,
              "code": "mmol/L",
              "system": "http://unitsofmeasure.org"
            }
          },
          {
            "high": {
              "value": 29,
              "code": "mmol/L",
              "system": "http://unitsofmeasure.org"
            }
          }
        ],
        "text": {
          "status": "generated",
          "div": "<div xmlns=\"http://www.w3.org/1999/xhtml\"><table class=\"hl7__eu__lab__report\"><tr><th>Test</th><th>07-Jan-2021</th><th>Reference&#xA0;Range</th><th>Unit</th></tr><tr><td>Carbon dioxide, total [Moles/volume] in Serum or Plasma</td><td>26.0</td><td>22 - 29</td><td></td><td>mmol/L</td></tr></table></div>"
        },
        "status": "final",
        "subject": {
          "reference": "urn:uuid:ad41f5d8-588f-4761-b94f-e30883615046",
          "display": "Pelayo Casal"
        },
        "effectiveDateTime": "2021-01-07T05:38:59Z",
        "specimen": {
          "reference": "urn:uuid:d126f381-658a-4ece-bc8b-495020e5d427"
        }
      }
    },
    {
      "fullUrl": "urn:uuid:dc29e8ea-13f8-4067-9c24-cf1c865b607b",
      "resource": {
        "resourceType": "Observation",
        "id": "dc29e8ea-13f8-4067-9c24-cf1c865b607b",
        "meta": {
          "profile": [
            "http://hl7.eu/fhir/laboratory/StructureDefinition/Observation-resultslab-eu-lab"
          ]
        },
        "performer": [
          {
            "display": "The Central European Lab"
          }
        ],
        "category": [
          {
            "coding": [
              {
                "system": "http://terminology.hl7.org/CodeSystem/observation-category",
                "code": "laboratory"
              }
            ]
          }
        ],
        "code": {
          "coding": [
            {
              "code": "5767-9",
              "system": "http://loinc.org",
              "display": "Appearance of Urine"
            }
          ],
          "text": "Appearance of Urine"
        },
        "text": {
          "status": "generated",
          "div": "<div xmlns=\"http://www.w3.org/1999/xhtml\"><table class=\"hl7__eu__lab__report\"><tr><th>Test</th><th>07-Jan-2021</th><th>Reference&#xA0;Range</th><th>Unit</th></tr><tr><td>Appearance of Urine</td></tr></table></div>"
        },
        "status": "final",
        "subject": {
          "reference": "urn:uuid:ad41f5d8-588f-4761-b94f-e30883615046",
          "display": "Pelayo Casal"
        },
        "effectiveDateTime": "2021-01-07T05:38:59Z",
        "specimen": {
          "reference": "urn:uuid:b8096fe0-47a1-4047-8bf1-6b6cf951c604"
        }
      }
    },
    {
      "fullUrl": "urn:uuid:31d29b9c-d4f8-4a32-b0c4-58fef0313312",
      "resource": {
        "resourceType": "Observation",
        "id": "31d29b9c-d4f8-4a32-b0c4-58fef0313312",
        "meta": {
          "profile": [
            "http://hl7.eu/fhir/laboratory/StructureDefinition/Observation-resultslab-eu-lab"
          ]
        },
        "performer": [
          {
            "display": "The Central European Lab"
          }
        ],
        "category": [
          {
            "coding": [
              {
                "system": "http://terminology.hl7.org/CodeSystem/observation-category",
                "code": "laboratory"
              }
            ]
          }
        ],
        "code": {
          "coding": [
            {
              "code": "34533-0",
              "system": "http://loinc.org",
              "display": "Odor of Urine"
            }
          ],
          "text": "Odor of Urine"
        },
        "text": {
          "status": "generated",
          "div": "<div xmlns=\"http://www.w3.org/1999/xhtml\"><table class=\"hl7__eu__lab__report\"><tr><th>Test</th><th>07-Jan-2021</th><th>Reference&#xA0;Range</th><th>Unit</th></tr><tr><td>Odor of Urine</td></tr></table></div>"
        },
        "status": "final",
        "subject": {
          "reference": "urn:uuid:ad41f5d8-588f-4761-b94f-e30883615046",
          "display": "Pelayo Casal"
        },
        "effectiveDateTime": "2021-01-07T05:38:59Z",
        "specimen": {
          "reference": "urn:uuid:b8096fe0-47a1-4047-8bf1-6b6cf951c604"
        }
      }
    },
    {
      "fullUrl": "urn:uuid:f5a34300-128e-46f3-83bd-1e009a027b51",
      "resource": {
        "resourceType": "Observation",
        "id": "f5a34300-128e-46f3-83bd-1e009a027b51",
        "meta": {
          "profile": [
            "http://hl7.eu/fhir/laboratory/StructureDefinition/Observation-resultslab-eu-lab"
          ]
        },
        "performer": [
          {
            "display": "The Central European Lab"
          }
        ],
        "category": [
          {
            "coding": [
              {
                "system": "http://terminology.hl7.org/CodeSystem/observation-category",
                "code": "laboratory"
              }
            ]
          }
        ],
        "code": {
          "coding": [
            {
              "code": "32167-9",
              "system": "http://loinc.org",
              "display": "Clarity of Urine"
            }
          ],
          "text": "Clarity of Urine"
        },
        "text": {
          "status": "generated",
          "div": "<div xmlns=\"http://www.w3.org/1999/xhtml\"><table class=\"hl7__eu__lab__report\"><tr><th>Test</th><th>07-Jan-2021</th><th>Reference&#xA0;Range</th><th>Unit</th></tr><tr><td>Clarity of Urine</td></tr></table></div>"
        },
        "status": "final",
        "subject": {
          "reference": "urn:uuid:ad41f5d8-588f-4761-b94f-e30883615046",
          "display": "Pelayo Casal"
        },
        "effectiveDateTime": "2021-01-07T05:38:59Z",
        "specimen": {
          "reference": "urn:uuid:b8096fe0-47a1-4047-8bf1-6b6cf951c604"
        }
      }
    },
    {
      "fullUrl": "urn:uuid:d5e06748-b9a9-496a-9f52-bca8d1dbc4bf",
      "resource": {
        "resourceType": "Observation",
        "id": "d5e06748-b9a9-496a-9f52-bca8d1dbc4bf",
        "meta": {
          "profile": [
            "http://hl7.eu/fhir/laboratory/StructureDefinition/Observation-resultslab-eu-lab"
          ]
        },
        "performer": [
          {
            "display": "The Central European Lab"
          }
        ],
        "category": [
          {
            "coding": [
              {
                "system": "http://terminology.hl7.org/CodeSystem/observation-category",
                "code": "laboratory"
              }
            ]
          }
        ],
        "code": {
          "coding": [
            {
              "code": "5778-6",
              "system": "http://loinc.org",
              "display": "Color of Urine"
            }
          ],
          "text": "Color of Urine"
        },
        "text": {
          "status": "generated",
          "div": "<div xmlns=\"http://www.w3.org/1999/xhtml\"><table class=\"hl7__eu__lab__report\"><tr><th>Test</th><th>07-Jan-2021</th><th>Reference&#xA0;Range</th><th>Unit</th></tr><tr><td>Color of Urine</td></tr></table></div>"
        },
        "status": "final",
        "subject": {
          "reference": "urn:uuid:ad41f5d8-588f-4761-b94f-e30883615046",
          "display": "Pelayo Casal"
        },
        "effectiveDateTime": "2021-01-07T05:38:59Z",
        "specimen": {
          "reference": "urn:uuid:b8096fe0-47a1-4047-8bf1-6b6cf951c604"
        }
      }
    },
    {
      "fullUrl": "urn:uuid:11034b2f-f558-4b98-9c20-432add0e9da1",
      "resource": {
        "resourceType": "Observation",
        "id": "11034b2f-f558-4b98-9c20-432add0e9da1",
        "meta": {
          "profile": [
            "http://hl7.eu/fhir/laboratory/StructureDefinition/Observation-resultslab-eu-lab"
          ]
        },
        "performer": [
          {
            "display": "The Central European Lab"
          }
        ],
        "category": [
          {
            "coding": [
              {
                "system": "http://terminology.hl7.org/CodeSystem/observation-category",
                "code": "laboratory"
              }
            ]
          }
        ],
        "code": {
          "coding": [
            {
              "code": "5792-7",
              "system": "http://loinc.org",
              "display": "Glucose [Mass/volume] in Urine by Test strip"
            }
          ],
          "text": "Glucose [Mass/volume] in Urine by Test strip"
        },
        "valueQuantity": {
          "system": "http://unitsofmeasure.org",
          "value": 1.4,
          "unit": "mg/dL",
          "code": "mg/dL"
        },
        "referenceRange": [
          {
            "low": {
              "value": 0.8,
              "code": "mg/dL",
              "system": "http://unitsofmeasure.org"
            }
          },
          {
            "high": {
              "value": 0,
              "code": "mg/dL",
              "system": "http://unitsofmeasure.org"
            }
          }
        ],
        "interpretation": [
          {
            "coding": [
              {
                "code": "H",
                "system": "http://terminology.hl7.org/CodeSystem/v3-ObservationInterpretation",
                "display": "High"
              }
            ]
          }
        ],
        "text": {
          "status": "generated",
          "div": "<div xmlns=\"http://www.w3.org/1999/xhtml\"><table class=\"hl7__eu__lab__report\"><tr><th>Test</th><th>07-Jan-2021</th><th>Reference&#xA0;Range</th><th>Unit</th></tr><tr><td>Glucose [Mass/volume] in Urine by Test strip</td><td>1.4</td><td>0.8 - 0</td><td>H</td><td>mg/dL</td></tr></table></div>"
        },
        "status": "final",
        "subject": {
          "reference": "urn:uuid:ad41f5d8-588f-4761-b94f-e30883615046",
          "display": "Pelayo Casal"
        },
        "effectiveDateTime": "2021-01-07T05:38:59Z",
        "specimen": {
          "reference": "urn:uuid:b8096fe0-47a1-4047-8bf1-6b6cf951c604"
        }
      }
    },
    {
      "fullUrl": "urn:uuid:8bf34f0a-47a4-40cc-8741-316b69b5f0ba",
      "resource": {
        "resourceType": "Observation",
        "id": "8bf34f0a-47a4-40cc-8741-316b69b5f0ba",
        "meta": {
          "profile": [
            "http://hl7.eu/fhir/laboratory/StructureDefinition/Observation-resultslab-eu-lab"
          ]
        },
        "performer": [
          {
            "display": "The Central European Lab"
          }
        ],
        "category": [
          {
            "coding": [
              {
                "system": "http://terminology.hl7.org/CodeSystem/observation-category",
                "code": "laboratory"
              }
            ]
          }
        ],
        "code": {
          "coding": [
            {
              "code": "25428-4",
              "system": "http://loinc.org",
              "display": "Glucose [Presence] in Urine by Test strip"
            }
          ],
          "text": "Glucose [Presence] in Urine by Test strip"
        },
        "text": {
          "status": "generated",
          "div": "<div xmlns=\"http://www.w3.org/1999/xhtml\"><table class=\"hl7__eu__lab__report\"><tr><th>Test</th><th>07-Jan-2021</th><th>Reference&#xA0;Range</th><th>Unit</th></tr><tr><td>Glucose [Presence] in Urine by Test strip</td></tr></table></div>"
        },
        "status": "final",
        "subject": {
          "reference": "urn:uuid:ad41f5d8-588f-4761-b94f-e30883615046",
          "display": "Pelayo Casal"
        },
        "effectiveDateTime": "2021-01-07T05:38:59Z",
        "specimen": {
          "reference": "urn:uuid:b8096fe0-47a1-4047-8bf1-6b6cf951c604"
        }
      }
    },
    {
      "fullUrl": "urn:uuid:29011b05-2d65-4412-808b-fccbc5411f17",
      "resource": {
        "resourceType": "Observation",
        "id": "29011b05-2d65-4412-808b-fccbc5411f17",
        "meta": {
          "profile": [
            "http://hl7.eu/fhir/laboratory/StructureDefinition/Observation-resultslab-eu-lab"
          ]
        },
        "performer": [
          {
            "display": "The Central European Lab"
          }
        ],
        "category": [
          {
            "coding": [
              {
                "system": "http://terminology.hl7.org/CodeSystem/observation-category",
                "code": "laboratory"
              }
            ]
          }
        ],
        "code": {
          "coding": [
            {
              "code": "20505-4",
              "system": "http://loinc.org",
              "display": "Bilirubin.total [Mass/volume] in Urine by Test strip"
            }
          ],
          "text": "Bilirubin.total [Mass/volume] in Urine by Test strip"
        },
        "valueQuantity": {
          "system": "http://unitsofmeasure.org",
          "value": 1,
          "unit": "mg/dL",
          "code": "mg/dL"
        },
        "referenceRange": [
          {
            "low": {
              "value": 0.2,
              "code": "mg/dL",
              "system": "http://unitsofmeasure.org"
            }
          },
          {
            "high": {
              "value": 1.5,
              "code": "mg/dL",
              "system": "http://unitsofmeasure.org"
            }
          }
        ],
        "text": {
          "status": "generated",
          "div": "<div xmlns=\"http://www.w3.org/1999/xhtml\"><table class=\"hl7__eu__lab__report\"><tr><th>Test</th><th>07-Jan-2021</th><th>Reference&#xA0;Range</th><th>Unit</th></tr><tr><td>Bilirubin.total [Mass/volume] in Urine by Test strip</td><td>1.0</td><td>0.2 - 1.5</td><td></td><td>mg/dL</td></tr></table></div>"
        },
        "status": "final",
        "subject": {
          "reference": "urn:uuid:ad41f5d8-588f-4761-b94f-e30883615046",
          "display": "Pelayo Casal"
        },
        "effectiveDateTime": "2021-01-07T05:38:59Z",
        "specimen": {
          "reference": "urn:uuid:b8096fe0-47a1-4047-8bf1-6b6cf951c604"
        }
      }
    },
    {
      "fullUrl": "urn:uuid:1e39cc50-6de8-48b6-a800-ecc46646b730",
      "resource": {
        "resourceType": "Observation",
        "id": "1e39cc50-6de8-48b6-a800-ecc46646b730",
        "meta": {
          "profile": [
            "http://hl7.eu/fhir/laboratory/StructureDefinition/Observation-resultslab-eu-lab"
          ]
        },
        "performer": [
          {
            "display": "The Central European Lab"
          }
        ],
        "category": [
          {
            "coding": [
              {
                "system": "http://terminology.hl7.org/CodeSystem/observation-category",
                "code": "laboratory"
              }
            ]
          }
        ],
        "code": {
          "coding": [
            {
              "code": "5770-3",
              "system": "http://loinc.org",
              "display": "Bilirubin.total [Presence] in Urine by Test strip"
            }
          ],
          "text": "Bilirubin.total [Presence] in Urine by Test strip"
        },
        "text": {
          "status": "generated",
          "div": "<div xmlns=\"http://www.w3.org/1999/xhtml\"><table class=\"hl7__eu__lab__report\"><tr><th>Test</th><th>07-Jan-2021</th><th>Reference&#xA0;Range</th><th>Unit</th></tr><tr><td>Bilirubin.total [Presence] in Urine by Test strip</td></tr></table></div>"
        },
        "status": "final",
        "subject": {
          "reference": "urn:uuid:ad41f5d8-588f-4761-b94f-e30883615046",
          "display": "Pelayo Casal"
        },
        "effectiveDateTime": "2021-01-07T05:38:59Z",
        "specimen": {
          "reference": "urn:uuid:b8096fe0-47a1-4047-8bf1-6b6cf951c604"
        }
      }
    },
    {
      "fullUrl": "urn:uuid:1c9d9a42-349c-467f-aaa5-3a8f6442b6dd",
      "resource": {
        "resourceType": "Observation",
        "id": "1c9d9a42-349c-467f-aaa5-3a8f6442b6dd",
        "meta": {
          "profile": [
            "http://hl7.eu/fhir/laboratory/StructureDefinition/Observation-resultslab-eu-lab"
          ]
        },
        "performer": [
          {
            "display": "The Central European Lab"
          }
        ],
        "category": [
          {
            "coding": [
              {
                "system": "http://terminology.hl7.org/CodeSystem/observation-category",
                "code": "laboratory"
              }
            ]
          }
        ],
        "code": {
          "coding": [
            {
              "code": "5797-6",
              "system": "http://loinc.org",
              "display": "Ketones [Mass/volume] in Urine by Test strip"
            }
          ],
          "text": "Ketones [Mass/volume] in Urine by Test strip"
        },
        "valueQuantity": {
          "system": "http://unitsofmeasure.org",
          "value": 3.9,
          "unit": "mg/dL",
          "code": "mg/dL"
        },
        "referenceRange": [
          {
            "low": {
              "value": 0,
              "code": "mg/dL",
              "system": "http://unitsofmeasure.org"
            }
          },
          {
            "high": {
              "value": 4,
              "code": "mg/dL",
              "system": "http://unitsofmeasure.org"
            }
          }
        ],
        "text": {
          "status": "generated",
          "div": "<div xmlns=\"http://www.w3.org/1999/xhtml\"><table class=\"hl7__eu__lab__report\"><tr><th>Test</th><th>07-Jan-2021</th><th>Reference&#xA0;Range</th><th>Unit</th></tr><tr><td>Ketones [Mass/volume] in Urine by Test strip</td><td>3.9</td><td>0 - 4</td><td></td><td>mg/dL</td></tr></table></div>"
        },
        "status": "final",
        "subject": {
          "reference": "urn:uuid:ad41f5d8-588f-4761-b94f-e30883615046",
          "display": "Pelayo Casal"
        },
        "effectiveDateTime": "2021-01-07T05:38:59Z",
        "specimen": {
          "reference": "urn:uuid:b8096fe0-47a1-4047-8bf1-6b6cf951c604"
        }
      }
    },
    {
      "fullUrl": "urn:uuid:9a8509de-9959-4a1a-a13f-7f0c58bb4f9b",
      "resource": {
        "resourceType": "Observation",
        "id": "9a8509de-9959-4a1a-a13f-7f0c58bb4f9b",
        "meta": {
          "profile": [
            "http://hl7.eu/fhir/laboratory/StructureDefinition/Observation-resultslab-eu-lab"
          ]
        },
        "performer": [
          {
            "display": "The Central European Lab"
          }
        ],
        "category": [
          {
            "coding": [
              {
                "system": "http://terminology.hl7.org/CodeSystem/observation-category",
                "code": "laboratory"
              }
            ]
          }
        ],
        "code": {
          "coding": [
            {
              "code": "2514-8",
              "system": "http://loinc.org",
              "display": "Ketones [Presence] in Urine by Test strip"
            }
          ],
          "text": "Ketones [Presence] in Urine by Test strip"
        },
        "text": {
          "status": "generated",
          "div": "<div xmlns=\"http://www.w3.org/1999/xhtml\"><table class=\"hl7__eu__lab__report\"><tr><th>Test</th><th>07-Jan-2021</th><th>Reference&#xA0;Range</th><th>Unit</th></tr><tr><td>Ketones [Presence] in Urine by Test strip</td></tr></table></div>"
        },
        "status": "final",
        "subject": {
          "reference": "urn:uuid:ad41f5d8-588f-4761-b94f-e30883615046",
          "display": "Pelayo Casal"
        },
        "effectiveDateTime": "2021-01-07T05:38:59Z",
        "specimen": {
          "reference": "urn:uuid:b8096fe0-47a1-4047-8bf1-6b6cf951c604"
        }
      }
    },
    {
      "fullUrl": "urn:uuid:0516be05-e129-4d5a-a2a0-32ccf980cbc8",
      "resource": {
        "resourceType": "Observation",
        "id": "0516be05-e129-4d5a-a2a0-32ccf980cbc8",
        "meta": {
          "profile": [
            "http://hl7.eu/fhir/laboratory/StructureDefinition/Observation-resultslab-eu-lab"
          ]
        },
        "performer": [
          {
            "display": "The Central European Lab"
          }
        ],
        "category": [
          {
            "coding": [
              {
                "system": "http://terminology.hl7.org/CodeSystem/observation-category",
                "code": "laboratory"
              }
            ]
          }
        ],
        "code": {
          "coding": [
            {
              "code": "5811-5",
              "system": "http://loinc.org",
              "display": "Specific gravity of Urine by Test strip"
            }
          ],
          "text": "Specific gravity of Urine by Test strip"
        },
        "valueQuantity": {
          "system": "http://unitsofmeasure.org",
          "value": 1,
          "unit": "{nominal}",
          "code": "{nominal}"
        },
        "referenceRange": [
          {
            "low": {
              "value": 1.01,
              "code": "g/mL",
              "system": "http://unitsofmeasure.org"
            }
          },
          {
            "high": {
              "value": 1.03,
              "code": "g/mL",
              "system": "http://unitsofmeasure.org"
            }
          }
        ],
        "interpretation": [
          {
            "coding": [
              {
                "code": "L",
                "system": "http://terminology.hl7.org/CodeSystem/v3-ObservationInterpretation",
                "display": "Low"
              }
            ]
          }
        ],
        "text": {
          "status": "generated",
          "div": "<div xmlns=\"http://www.w3.org/1999/xhtml\"><table class=\"hl7__eu__lab__report\"><tr><th>Test</th><th>07-Jan-2021</th><th>Reference&#xA0;Range</th><th>Unit</th></tr><tr><td>Specific gravity of Urine by Test strip</td><td>1.0</td><td>1.01 - 1.03</td><td>L</td><td>{nominal}</td></tr></table></div>"
        },
        "status": "final",
        "subject": {
          "reference": "urn:uuid:ad41f5d8-588f-4761-b94f-e30883615046",
          "display": "Pelayo Casal"
        },
        "effectiveDateTime": "2021-01-07T05:38:59Z",
        "specimen": {
          "reference": "urn:uuid:b8096fe0-47a1-4047-8bf1-6b6cf951c604"
        }
      }
    },
    {
      "fullUrl": "urn:uuid:1ceefa85-672c-4378-b78a-8329d30ecb5c",
      "resource": {
        "resourceType": "Observation",
        "id": "1ceefa85-672c-4378-b78a-8329d30ecb5c",
        "meta": {
          "profile": [
            "http://hl7.eu/fhir/laboratory/StructureDefinition/Observation-resultslab-eu-lab"
          ]
        },
        "performer": [
          {
            "display": "The Central European Lab"
          }
        ],
        "category": [
          {
            "coding": [
              {
                "system": "http://terminology.hl7.org/CodeSystem/observation-category",
                "code": "laboratory"
              }
            ]
          }
        ],
        "code": {
          "coding": [
            {
              "code": "5803-2",
              "system": "http://loinc.org",
              "display": "pH of Urine by Test strip"
            }
          ],
          "text": "pH of Urine by Test strip"
        },
        "valueQuantity": {
          "system": "http://unitsofmeasure.org",
          "value": 5.8,
          "unit": "pH",
          "code": "pH"
        },
        "referenceRange": [
          {
            "low": {
              "value": 4.5,
              "code": "pH",
              "system": "http://unitsofmeasure.org"
            }
          },
          {
            "high": {
              "value": 7.5,
              "code": "pH",
              "system": "http://unitsofmeasure.org"
            }
          }
        ],
        "text": {
          "status": "generated",
          "div": "<div xmlns=\"http://www.w3.org/1999/xhtml\"><table class=\"hl7__eu__lab__report\"><tr><th>Test</th><th>07-Jan-2021</th><th>Reference&#xA0;Range</th><th>Unit</th></tr><tr><td>pH of Urine by Test strip</td><td>5.8</td><td>4.5 - 7.5</td><td></td><td>pH</td></tr></table></div>"
        },
        "status": "final",
        "subject": {
          "reference": "urn:uuid:ad41f5d8-588f-4761-b94f-e30883615046",
          "display": "Pelayo Casal"
        },
        "effectiveDateTime": "2021-01-07T05:38:59Z",
        "specimen": {
          "reference": "urn:uuid:b8096fe0-47a1-4047-8bf1-6b6cf951c604"
        }
      }
    },
    {
      "fullUrl": "urn:uuid:ce9d4841-851c-43b8-a2e2-af275e169d89",
      "resource": {
        "resourceType": "Observation",
        "id": "ce9d4841-851c-43b8-a2e2-af275e169d89",
        "meta": {
          "profile": [
            "http://hl7.eu/fhir/laboratory/StructureDefinition/Observation-resultslab-eu-lab"
          ]
        },
        "performer": [
          {
            "display": "The Central European Lab"
          }
        ],
        "category": [
          {
            "coding": [
              {
                "system": "http://terminology.hl7.org/CodeSystem/observation-category",
                "code": "laboratory"
              }
            ]
          }
        ],
        "code": {
          "coding": [
            {
              "code": "5804-0",
              "system": "http://loinc.org",
              "display": "Protein [Mass/volume] in Urine by Test strip"
            }
          ],
          "text": "Protein [Mass/volume] in Urine by Test strip"
        },
        "valueQuantity": {
          "system": "http://unitsofmeasure.org",
          "value": 176.1,
          "unit": "mg/dL",
          "code": "mg/dL"
        },
        "referenceRange": [
          {
            "low": {
              "value": 0,
              "code": "mg/dL",
              "system": "http://unitsofmeasure.org"
            }
          },
          {
            "high": {
              "value": 150,
              "code": "mg/dL",
              "system": "http://unitsofmeasure.org"
            }
          }
        ],
        "interpretation": [
          {
            "coding": [
              {
                "code": "H",
                "system": "http://terminology.hl7.org/CodeSystem/v3-ObservationInterpretation",
                "display": "High"
              }
            ]
          }
        ],
        "text": {
          "status": "generated",
          "div": "<div xmlns=\"http://www.w3.org/1999/xhtml\"><table class=\"hl7__eu__lab__report\"><tr><th>Test</th><th>07-Jan-2021</th><th>Reference&#xA0;Range</th><th>Unit</th></tr><tr><td>Protein [Mass/volume] in Urine by Test strip</td><td>176.1</td><td>0 - 150</td><td>H</td><td>mg/dL</td></tr></table></div>"
        },
        "status": "final",
        "subject": {
          "reference": "urn:uuid:ad41f5d8-588f-4761-b94f-e30883615046",
          "display": "Pelayo Casal"
        },
        "effectiveDateTime": "2021-01-07T05:38:59Z",
        "specimen": {
          "reference": "urn:uuid:b8096fe0-47a1-4047-8bf1-6b6cf951c604"
        }
      }
    },
    {
      "fullUrl": "urn:uuid:0581fc66-51d6-4e1c-b050-80f0923eed47",
      "resource": {
        "resourceType": "Observation",
        "id": "0581fc66-51d6-4e1c-b050-80f0923eed47",
        "meta": {
          "profile": [
            "http://hl7.eu/fhir/laboratory/StructureDefinition/Observation-resultslab-eu-lab"
          ]
        },
        "performer": [
          {
            "display": "The Central European Lab"
          }
        ],
        "category": [
          {
            "coding": [
              {
                "system": "http://terminology.hl7.org/CodeSystem/observation-category",
                "code": "laboratory"
              }
            ]
          }
        ],
        "code": {
          "coding": [
            {
              "code": "20454-5",
              "system": "http://loinc.org",
              "display": "Protein [Presence] in Urine by Test strip"
            }
          ],
          "text": "Protein [Presence] in Urine by Test strip"
        },
        "text": {
          "status": "generated",
          "div": "<div xmlns=\"http://www.w3.org/1999/xhtml\"><table class=\"hl7__eu__lab__report\"><tr><th>Test</th><th>07-Jan-2021</th><th>Reference&#xA0;Range</th><th>Unit</th></tr><tr><td>Protein [Presence] in Urine by Test strip</td></tr></table></div>"
        },
        "status": "final",
        "subject": {
          "reference": "urn:uuid:ad41f5d8-588f-4761-b94f-e30883615046",
          "display": "Pelayo Casal"
        },
        "effectiveDateTime": "2021-01-07T05:38:59Z",
        "specimen": {
          "reference": "urn:uuid:b8096fe0-47a1-4047-8bf1-6b6cf951c604"
        }
      }
    },
    {
      "fullUrl": "urn:uuid:904ce2c1-dbdf-4e81-a3f5-c71ac3f996ae",
      "resource": {
        "resourceType": "Observation",
        "id": "904ce2c1-dbdf-4e81-a3f5-c71ac3f996ae",
        "meta": {
          "profile": [
            "http://hl7.eu/fhir/laboratory/StructureDefinition/Observation-resultslab-eu-lab"
          ]
        },
        "performer": [
          {
            "display": "The Central European Lab"
          }
        ],
        "category": [
          {
            "coding": [
              {
                "system": "http://terminology.hl7.org/CodeSystem/observation-category",
                "code": "laboratory"
              }
            ]
          }
        ],
        "code": {
          "coding": [
            {
              "code": "5802-4",
              "system": "http://loinc.org",
              "display": "Nitrite [Presence] in Urine by Test strip"
            }
          ],
          "text": "Nitrite [Presence] in Urine by Test strip"
        },
        "text": {
          "status": "generated",
          "div": "<div xmlns=\"http://www.w3.org/1999/xhtml\"><table class=\"hl7__eu__lab__report\"><tr><th>Test</th><th>07-Jan-2021</th><th>Reference&#xA0;Range</th><th>Unit</th></tr><tr><td>Nitrite [Presence] in Urine by Test strip</td></tr></table></div>"
        },
        "status": "final",
        "subject": {
          "reference": "urn:uuid:ad41f5d8-588f-4761-b94f-e30883615046",
          "display": "Pelayo Casal"
        },
        "effectiveDateTime": "2021-01-07T05:38:59Z",
        "specimen": {
          "reference": "urn:uuid:b8096fe0-47a1-4047-8bf1-6b6cf951c604"
        }
      }
    },
    {
      "fullUrl": "urn:uuid:ded13f6c-fcf7-4a78-bdf1-6a3bd6d2be3e",
      "resource": {
        "resourceType": "Observation",
        "id": "ded13f6c-fcf7-4a78-bdf1-6a3bd6d2be3e",
        "meta": {
          "profile": [
            "http://hl7.eu/fhir/laboratory/StructureDefinition/Observation-resultslab-eu-lab"
          ]
        },
        "performer": [
          {
            "display": "The Central European Lab"
          }
        ],
        "category": [
          {
            "coding": [
              {
                "system": "http://terminology.hl7.org/CodeSystem/observation-category",
                "code": "laboratory"
              }
            ]
          }
        ],
        "code": {
          "coding": [
            {
              "code": "5794-3",
              "system": "http://loinc.org",
              "display": "Hemoglobin [Presence] in Urine by Test strip"
            }
          ],
          "text": "Hemoglobin [Presence] in Urine by Test strip"
        },
        "text": {
          "status": "generated",
          "div": "<div xmlns=\"http://www.w3.org/1999/xhtml\"><table class=\"hl7__eu__lab__report\"><tr><th>Test</th><th>07-Jan-2021</th><th>Reference&#xA0;Range</th><th>Unit</th></tr><tr><td>Hemoglobin [Presence] in Urine by Test strip</td></tr></table></div>"
        },
        "status": "final",
        "subject": {
          "reference": "urn:uuid:ad41f5d8-588f-4761-b94f-e30883615046",
          "display": "Pelayo Casal"
        },
        "effectiveDateTime": "2021-01-07T05:38:59Z",
        "specimen": {
          "reference": "urn:uuid:b8096fe0-47a1-4047-8bf1-6b6cf951c604"
        }
      }
    },
    {
      "fullUrl": "urn:uuid:b6331a9c-f0cf-4509-a7bd-f9dc1a02cefa",
      "resource": {
        "resourceType": "Observation",
        "id": "b6331a9c-f0cf-4509-a7bd-f9dc1a02cefa",
        "meta": {
          "profile": [
            "http://hl7.eu/fhir/laboratory/StructureDefinition/Observation-resultslab-eu-lab"
          ]
        },
        "performer": [
          {
            "display": "The Central European Lab"
          }
        ],
        "category": [
          {
            "coding": [
              {
                "system": "http://terminology.hl7.org/CodeSystem/observation-category",
                "code": "laboratory"
              }
            ]
          }
        ],
        "code": {
          "coding": [
            {
              "code": "5799-2",
              "system": "http://loinc.org",
              "display": "Leukocyte esterase [Presence] in Urine by Test strip"
            }
          ],
          "text": "Leukocyte esterase [Presence] in Urine by Test strip"
        },
        "text": {
          "status": "generated",
          "div": "<div xmlns=\"http://www.w3.org/1999/xhtml\"><table class=\"hl7__eu__lab__report\"><tr><th>Test</th><th>07-Jan-2021</th><th>Reference&#xA0;Range</th><th>Unit</th></tr><tr><td>Leukocyte esterase [Presence] in Urine by Test strip</td></tr></table></div>"
        },
        "status": "final",
        "subject": {
          "reference": "urn:uuid:ad41f5d8-588f-4761-b94f-e30883615046",
          "display": "Pelayo Casal"
        },
        "effectiveDateTime": "2021-01-07T05:38:59Z",
        "specimen": {
          "reference": "urn:uuid:b8096fe0-47a1-4047-8bf1-6b6cf951c604"
        }
      }
    },
    {
      "fullUrl": "urn:uuid:b63c1029-2f30-4dba-8172-e5d9ba5a212d",
      "resource": {
        "resourceType": "Observation",
        "id": "b63c1029-2f30-4dba-8172-e5d9ba5a212d",
        "meta": {
          "profile": [
            "http://hl7.eu/fhir/laboratory/StructureDefinition/Observation-resultslab-eu-lab"
          ]
        },
        "performer": [
          {
            "display": "The Central European Lab"
          }
        ],
        "category": [
          {
            "coding": [
              {
                "system": "http://terminology.hl7.org/CodeSystem/observation-category",
                "code": "laboratory"
              }
            ]
          }
        ],
        "code": {
          "coding": [
            {
              "code": "4548-4",
              "system": "http://loinc.org",
              "display": "Hemoglobin A1c/Hemoglobin.total in Blood"
            }
          ],
          "text": "Hemoglobin A1c/Hemoglobin.total in Blood"
        },
        "valueQuantity": {
          "system": "http://unitsofmeasure.org",
          "value": 2.9,
          "unit": "%",
          "code": "%"
        },
        "referenceRange": [
          {
            "low": {
              "value": 4.5,
              "code": "%",
              "system": "http://unitsofmeasure.org"
            }
          },
          {
            "high": {
              "value": 6.4,
              "code": "%",
              "system": "http://unitsofmeasure.org"
            }
          }
        ],
        "interpretation": [
          {
            "coding": [
              {
                "code": "L",
                "system": "http://terminology.hl7.org/CodeSystem/v3-ObservationInterpretation",
                "display": "Low"
              }
            ]
          }
        ],
        "text": {
          "status": "generated",
          "div": "<div xmlns=\"http://www.w3.org/1999/xhtml\"><table class=\"hl7__eu__lab__report\"><tr><th>Test</th><th>07-Jan-2021</th><th>Reference&#xA0;Range</th><th>Unit</th></tr><tr><td>Hemoglobin A1c/Hemoglobin.total in Blood</td><td>2.9</td><td>4.5 - 6.4</td><td>L</td><td>%</td></tr></table></div>"
        },
        "status": "final",
        "subject": {
          "reference": "urn:uuid:ad41f5d8-588f-4761-b94f-e30883615046",
          "display": "Pelayo Casal"
        },
        "effectiveDateTime": "2021-01-07T05:38:59Z",
        "specimen": {
          "reference": "urn:uuid:7ea77f8c-832b-43fc-b1e4-ea40195c4fbe"
        }
      }
    },
    {
      "fullUrl": "urn:uuid:a3bc29d3-c77e-4dcf-aeef-f96008dc425e",
      "resource": {
        "resourceType": "Observation",
        "id": "a3bc29d3-c77e-4dcf-aeef-f96008dc425e",
        "meta": {
          "profile": [
            "http://hl7.eu/fhir/laboratory/StructureDefinition/Observation-resultslab-eu-lab"
          ]
        },
        "performer": [
          {
            "display": "The Central European Lab"
          }
        ],
        "category": [
          {
            "coding": [
              {
                "system": "http://terminology.hl7.org/CodeSystem/observation-category",
                "code": "laboratory"
              }
            ]
          }
        ],
        "code": {
          "coding": [
            {
              "code": "2339-0",
              "system": "http://loinc.org",
              "display": "Glucose [Mass/volume] in Blood"
            }
          ],
          "text": "Glucose [Mass/volume] in Blood"
        },
        "valueQuantity": {
          "system": "http://unitsofmeasure.org",
          "value": 98.1,
          "unit": "mg/dL",
          "code": "mg/dL"
        },
        "referenceRange": [
          {
            "low": {
              "value": 70,
              "code": "mg/dL",
              "system": "http://unitsofmeasure.org"
            }
          },
          {
            "high": {
              "value": 140,
              "code": "mg/dL",
              "system": "http://unitsofmeasure.org"
            }
          }
        ],
        "text": {
          "status": "generated",
          "div": "<div xmlns=\"http://www.w3.org/1999/xhtml\"><table class=\"hl7__eu__lab__report\"><tr><th>Test</th><th>07-Jan-2021</th><th>Reference&#xA0;Range</th><th>Unit</th></tr><tr><td>Glucose [Mass/volume] in Blood</td><td>98.1</td><td>70 - 140</td><td></td><td>mg/dL</td></tr></table></div>"
        },
        "status": "final",
        "subject": {
          "reference": "urn:uuid:ad41f5d8-588f-4761-b94f-e30883615046",
          "display": "Pelayo Casal"
        },
        "effectiveDateTime": "2021-01-07T05:38:59Z",
        "specimen": {
          "reference": "urn:uuid:7ea77f8c-832b-43fc-b1e4-ea40195c4fbe"
        }
      }
    },
    {
      "fullUrl": "urn:uuid:c73e5fcf-705d-4428-819e-a0e7ed2a4c6f",
      "resource": {
        "resourceType": "Observation",
        "id": "c73e5fcf-705d-4428-819e-a0e7ed2a4c6f",
        "meta": {
          "profile": [
            "http://hl7.eu/fhir/laboratory/StructureDefinition/Observation-resultslab-eu-lab"
          ]
        },
        "performer": [
          {
            "display": "The Central European Lab"
          }
        ],
        "category": [
          {
            "coding": [
              {
                "system": "http://terminology.hl7.org/CodeSystem/observation-category",
                "code": "laboratory"
              }
            ]
          }
        ],
        "code": {
          "coding": [
            {
              "code": "6299-2",
              "system": "http://loinc.org",
              "display": "Urea nitrogen [Mass/volume] in Blood"
            }
          ],
          "text": "Urea nitrogen [Mass/volume] in Blood"
        },
        "valueQuantity": {
          "system": "http://unitsofmeasure.org",
          "value": 14.6,
          "unit": "mg/dL",
          "code": "mg/dL"
        },
        "referenceRange": [
          {
            "low": {
              "value": 7,
              "code": "mg/dL",
              "system": "http://unitsofmeasure.org"
            }
          },
          {
            "high": {
              "value": 25,
              "code": "mg/dL",
              "system": "http://unitsofmeasure.org"
            }
          }
        ],
        "text": {
          "status": "generated",
          "div": "<div xmlns=\"http://www.w3.org/1999/xhtml\"><table class=\"hl7__eu__lab__report\"><tr><th>Test</th><th>07-Jan-2021</th><th>Reference&#xA0;Range</th><th>Unit</th></tr><tr><td>Urea nitrogen [Mass/volume] in Blood</td><td>14.6</td><td>7 - 25</td><td></td><td>mg/dL</td></tr></table></div>"
        },
        "status": "final",
        "subject": {
          "reference": "urn:uuid:ad41f5d8-588f-4761-b94f-e30883615046",
          "display": "Pelayo Casal"
        },
        "effectiveDateTime": "2021-01-07T05:38:59Z",
        "specimen": {
          "reference": "urn:uuid:7ea77f8c-832b-43fc-b1e4-ea40195c4fbe"
        }
      }
    },
    {
      "fullUrl": "urn:uuid:9c84a7cb-5abb-4b89-bd61-11008a0163d4",
      "resource": {
        "resourceType": "Observation",
        "id": "9c84a7cb-5abb-4b89-bd61-11008a0163d4",
        "meta": {
          "profile": [
            "http://hl7.eu/fhir/laboratory/StructureDefinition/Observation-resultslab-eu-lab"
          ]
        },
        "performer": [
          {
            "display": "The Central European Lab"
          }
        ],
        "category": [
          {
            "coding": [
              {
                "system": "http://terminology.hl7.org/CodeSystem/observation-category",
                "code": "laboratory"
              }
            ]
          }
        ],
        "code": {
          "coding": [
            {
              "code": "38483-4",
              "system": "http://loinc.org",
              "display": "Creatinine [Mass/volume] in Blood"
            }
          ],
          "text": "Creatinine [Mass/volume] in Blood"
        },
        "valueQuantity": {
          "system": "http://unitsofmeasure.org",
          "value": 1.6,
          "unit": "mg/dL",
          "code": "mg/dL"
        },
        "referenceRange": [
          {
            "low": {
              "value": 0.9,
              "code": "mg/dL",
              "system": "http://unitsofmeasure.org"
            }
          },
          {
            "high": {
              "value": 1.3,
              "code": "mg/dL",
              "system": "http://unitsofmeasure.org"
            }
          }
        ],
        "interpretation": [
          {
            "coding": [
              {
                "code": "H",
                "system": "http://terminology.hl7.org/CodeSystem/v3-ObservationInterpretation",
                "display": "High"
              }
            ]
          }
        ],
        "text": {
          "status": "generated",
          "div": "<div xmlns=\"http://www.w3.org/1999/xhtml\"><table class=\"hl7__eu__lab__report\"><tr><th>Test</th><th>07-Jan-2021</th><th>Reference&#xA0;Range</th><th>Unit</th></tr><tr><td>Creatinine [Mass/volume] in Blood</td><td>1.6</td><td>0.9 - 1.3</td><td>H</td><td>mg/dL</td></tr></table></div>"
        },
        "status": "final",
        "subject": {
          "reference": "urn:uuid:ad41f5d8-588f-4761-b94f-e30883615046",
          "display": "Pelayo Casal"
        },
        "effectiveDateTime": "2021-01-07T05:38:59Z",
        "specimen": {
          "reference": "urn:uuid:7ea77f8c-832b-43fc-b1e4-ea40195c4fbe"
        }
      }
    },
    {
      "fullUrl": "urn:uuid:643eeeac-fdb1-4285-ad01-f788b45e7ebf",
      "resource": {
        "resourceType": "Observation",
        "id": "643eeeac-fdb1-4285-ad01-f788b45e7ebf",
        "meta": {
          "profile": [
            "http://hl7.eu/fhir/laboratory/StructureDefinition/Observation-resultslab-eu-lab"
          ]
        },
        "performer": [
          {
            "display": "The Central European Lab"
          }
        ],
        "category": [
          {
            "coding": [
              {
                "system": "http://terminology.hl7.org/CodeSystem/observation-category",
                "code": "laboratory"
              }
            ]
          }
        ],
        "code": {
          "coding": [
            {
              "code": "49765-1",
              "system": "http://loinc.org",
              "display": "Calcium [Mass/volume] in Blood"
            }
          ],
          "text": "Calcium [Mass/volume] in Blood"
        },
        "valueQuantity": {
          "system": "http://unitsofmeasure.org",
          "value": 9.7,
          "unit": "mg/dL",
          "code": "mg/dL"
        },
        "referenceRange": [
          {
            "low": {
              "value": 8.6,
              "code": "mg/dL",
              "system": "http://unitsofmeasure.org"
            }
          },
          {
            "high": {
              "value": 10.2,
              "code": "mg/dL",
              "system": "http://unitsofmeasure.org"
            }
          }
        ],
        "text": {
          "status": "generated",
          "div": "<div xmlns=\"http://www.w3.org/1999/xhtml\"><table class=\"hl7__eu__lab__report\"><tr><th>Test</th><th>07-Jan-2021</th><th>Reference&#xA0;Range</th><th>Unit</th></tr><tr><td>Calcium [Mass/volume] in Blood</td><td>9.7</td><td>8.6 - 10.2</td><td></td><td>mg/dL</td></tr></table></div>"
        },
        "status": "final",
        "subject": {
          "reference": "urn:uuid:ad41f5d8-588f-4761-b94f-e30883615046",
          "display": "Pelayo Casal"
        },
        "effectiveDateTime": "2021-01-07T05:38:59Z",
        "specimen": {
          "reference": "urn:uuid:7ea77f8c-832b-43fc-b1e4-ea40195c4fbe"
        }
      }
    },
    {
      "fullUrl": "urn:uuid:2fb3a047-eae6-4881-97a9-0ecee67cfae3",
      "resource": {
        "resourceType": "Observation",
        "id": "2fb3a047-eae6-4881-97a9-0ecee67cfae3",
        "meta": {
          "profile": [
            "http://hl7.eu/fhir/laboratory/StructureDefinition/Observation-resultslab-eu-lab"
          ]
        },
        "performer": [
          {
            "display": "The Central European Lab"
          }
        ],
        "category": [
          {
            "coding": [
              {
                "system": "http://terminology.hl7.org/CodeSystem/observation-category",
                "code": "laboratory"
              }
            ]
          }
        ],
        "code": {
          "coding": [
            {
              "code": "2947-0",
              "system": "http://loinc.org",
              "display": "Sodium [Moles/volume] in Blood"
            }
          ],
          "text": "Sodium [Moles/volume] in Blood"
        },
        "valueQuantity": {
          "system": "http://unitsofmeasure.org",
          "value": 142.7,
          "unit": "mmol/L",
          "code": "mmol/L"
        },
        "referenceRange": [
          {
            "low": {
              "value": 135,
              "code": "mmol/L",
              "system": "http://unitsofmeasure.org"
            }
          },
          {
            "high": {
              "value": 145,
              "code": "mmol/L",
              "system": "http://unitsofmeasure.org"
            }
          }
        ],
        "text": {
          "status": "generated",
          "div": "<div xmlns=\"http://www.w3.org/1999/xhtml\"><table class=\"hl7__eu__lab__report\"><tr><th>Test</th><th>07-Jan-2021</th><th>Reference&#xA0;Range</th><th>Unit</th></tr><tr><td>Sodium [Moles/volume] in Blood</td><td>142.7</td><td>135 - 145</td><td></td><td>mmol/L</td></tr></table></div>"
        },
        "status": "final",
        "subject": {
          "reference": "urn:uuid:ad41f5d8-588f-4761-b94f-e30883615046",
          "display": "Pelayo Casal"
        },
        "effectiveDateTime": "2021-01-07T05:38:59Z",
        "specimen": {
          "reference": "urn:uuid:7ea77f8c-832b-43fc-b1e4-ea40195c4fbe"
        }
      }
    },
    {
      "fullUrl": "urn:uuid:444757ea-d85a-4bc1-929a-22d49d1f7352",
      "resource": {
        "resourceType": "Observation",
        "id": "444757ea-d85a-4bc1-929a-22d49d1f7352",
        "meta": {
          "profile": [
            "http://hl7.eu/fhir/laboratory/StructureDefinition/Observation-resultslab-eu-lab"
          ]
        },
        "performer": [
          {
            "display": "The Central European Lab"
          }
        ],
        "category": [
          {
            "coding": [
              {
                "system": "http://terminology.hl7.org/CodeSystem/observation-category",
                "code": "laboratory"
              }
            ]
          }
        ],
        "code": {
          "coding": [
            {
              "code": "6298-4",
              "system": "http://loinc.org",
              "display": "Potassium [Moles/volume] in Blood"
            }
          ],
          "text": "Potassium [Moles/volume] in Blood"
        },
        "valueQuantity": {
          "system": "http://unitsofmeasure.org",
          "value": 5.2,
          "unit": "mmol/L",
          "code": "mmol/L"
        },
        "referenceRange": [
          {
            "low": {
              "value": 3.5,
              "code": "mmol/L",
              "system": "http://unitsofmeasure.org"
            }
          },
          {
            "high": {
              "value": 5.1,
              "code": "mmol/L",
              "system": "http://unitsofmeasure.org"
            }
          }
        ],
        "interpretation": [
          {
            "coding": [
              {
                "code": "H",
                "system": "http://terminology.hl7.org/CodeSystem/v3-ObservationInterpretation",
                "display": "High"
              }
            ]
          }
        ],
        "text": {
          "status": "generated",
          "div": "<div xmlns=\"http://www.w3.org/1999/xhtml\"><table class=\"hl7__eu__lab__report\"><tr><th>Test</th><th>07-Jan-2021</th><th>Reference&#xA0;Range</th><th>Unit</th></tr><tr><td>Potassium [Moles/volume] in Blood</td><td>5.2</td><td>3.5 - 5.1</td><td>H</td><td>mmol/L</td></tr></table></div>"
        },
        "status": "final",
        "subject": {
          "reference": "urn:uuid:ad41f5d8-588f-4761-b94f-e30883615046",
          "display": "Pelayo Casal"
        },
        "effectiveDateTime": "2021-01-07T05:38:59Z",
        "specimen": {
          "reference": "urn:uuid:7ea77f8c-832b-43fc-b1e4-ea40195c4fbe"
        }
      }
    },
    {
      "fullUrl": "urn:uuid:01ccb499-b32b-41d6-9781-e2bd189be9b3",
      "resource": {
        "resourceType": "Observation",
        "id": "01ccb499-b32b-41d6-9781-e2bd189be9b3",
        "meta": {
          "profile": [
            "http://hl7.eu/fhir/laboratory/StructureDefinition/Observation-resultslab-eu-lab"
          ]
        },
        "performer": [
          {
            "display": "The Central European Lab"
          }
        ],
        "category": [
          {
            "coding": [
              {
                "system": "http://terminology.hl7.org/CodeSystem/observation-category",
                "code": "laboratory"
              }
            ]
          }
        ],
        "code": {
          "coding": [
            {
              "code": "2069-3",
              "system": "http://loinc.org",
              "display": "Chloride [Moles/volume] in Blood"
            }
          ],
          "text": "Chloride [Moles/volume] in Blood"
        },
        "valueQuantity": {
          "system": "http://unitsofmeasure.org",
          "value": 104.1,
          "unit": "mmol/L",
          "code": "mmol/L"
        },
        "referenceRange": [
          {
            "low": {
              "value": 98,
              "code": "mmol/L",
              "system": "http://unitsofmeasure.org"
            }
          },
          {
            "high": {
              "value": 108,
              "code": "mmol/L",
              "system": "http://unitsofmeasure.org"
            }
          }
        ],
        "text": {
          "status": "generated",
          "div": "<div xmlns=\"http://www.w3.org/1999/xhtml\"><table class=\"hl7__eu__lab__report\"><tr><th>Test</th><th>07-Jan-2021</th><th>Reference&#xA0;Range</th><th>Unit</th></tr><tr><td>Chloride [Moles/volume] in Blood</td><td>104.1</td><td>98 - 108</td><td></td><td>mmol/L</td></tr></table></div>"
        },
        "status": "final",
        "subject": {
          "reference": "urn:uuid:ad41f5d8-588f-4761-b94f-e30883615046",
          "display": "Pelayo Casal"
        },
        "effectiveDateTime": "2021-01-07T05:38:59Z",
        "specimen": {
          "reference": "urn:uuid:7ea77f8c-832b-43fc-b1e4-ea40195c4fbe"
        }
      }
    },
    {
      "fullUrl": "urn:uuid:b03266f1-4013-4856-83bd-344ca62fa990",
      "resource": {
        "resourceType": "Observation",
        "id": "b03266f1-4013-4856-83bd-344ca62fa990",
        "meta": {
          "profile": [
            "http://hl7.eu/fhir/laboratory/StructureDefinition/Observation-resultslab-eu-lab"
          ]
        },
        "performer": [
          {
            "display": "The Central European Lab"
          }
        ],
        "category": [
          {
            "coding": [
              {
                "system": "http://terminology.hl7.org/CodeSystem/observation-category",
                "code": "laboratory"
              }
            ]
          }
        ],
        "code": {
          "coding": [
            {
              "code": "20565-8",
              "system": "http://loinc.org",
              "display": "Carbon dioxide, total [Moles/volume] in Blood"
            }
          ],
          "text": "Carbon dioxide, total [Moles/volume] in Blood"
        },
        "valueQuantity": {
          "system": "http://unitsofmeasure.org",
          "value": 26,
          "unit": "mmol/L",
          "code": "mmol/L"
        },
        "referenceRange": [
          {
            "low": {
              "value": 22,
              "code": "mmol/L",
              "system": "http://unitsofmeasure.org"
            }
          },
          {
            "high": {
              "value": 32,
              "code": "mmol/L",
              "system": "http://unitsofmeasure.org"
            }
          }
        ],
        "text": {
          "status": "generated",
          "div": "<div xmlns=\"http://www.w3.org/1999/xhtml\"><table class=\"hl7__eu__lab__report\"><tr><th>Test</th><th>07-Jan-2021</th><th>Reference&#xA0;Range</th><th>Unit</th></tr><tr><td>Carbon dioxide, total [Moles/volume] in Blood</td><td>26.0</td><td>22 - 32</td><td></td><td>mmol/L</td></tr></table></div>"
        },
        "status": "final",
        "subject": {
          "reference": "urn:uuid:ad41f5d8-588f-4761-b94f-e30883615046",
          "display": "Pelayo Casal"
        },
        "effectiveDateTime": "2021-01-07T05:38:59Z",
        "specimen": {
          "reference": "urn:uuid:7ea77f8c-832b-43fc-b1e4-ea40195c4fbe"
        }
      }
    },
    {
      "fullUrl": "urn:uuid:8e5b1864-990b-487f-b6df-b13b119d0279",
      "resource": {
        "resourceType": "Device",
        "id": "8e5b1864-990b-487f-b6df-b13b119d0279",
        "deviceName": [
          {
            "name": "SYNDERAI Synthetic Generator",
            "type": "manufacturer-name"
          }
        ],
        "version": [
          {
            "value": "5.0"
          }
        ],
        "text": {
          "status": "generated",
          "div": "<div xmlns=\"http://www.w3.org/1999/xhtml\">SYNDERAI Synthetic Generator v5.0</div>"
        },
        "status": "active\"",
        "distinctIdentifier": "synderai-generator-50",
        "manufacturer": "SYNDERAI Project"
      }
    },
    {
      "fullUrl": "urn:uuid:8568d9f6-31aa-429e-a6ed-c54469daaa10",
      "resource": {
        "resourceType": "Provenance",
        "id": "8568d9f6-31aa-429e-a6ed-c54469daaa10",
        "target": [
          {
            "reference": "Patient/ad41f5d8-588f-4761-b94f-e30883615046"
          },
          {
            "reference": "Bundle/fbd8a853-a6fa-4332-9c39-f9897237f085"
          },
          {
            "reference": "Composition/2dc4f493-e794-44a9-a58b-0fc6938498ce"
          },
          {
            "reference": "PractitionerRole/9459b30b-7d76-4f07-a61a-4a16b3572449"
          },
          {
            "reference": "Practitioner/91dc0c13-7fa4-448e-99dd-9ccd36906223"
          },
          {
            "reference": "PractitionerRole/a753cc4c-9e47-4b52-9e1c-93be418520fb"
          },
          {
            "reference": "Organization/c866afb3-7b4a-46cd-b1cb-c595d26bad38"
          }
        ],
        "activity": {
          "text": "Synthetic Example Data Generation"
        },
        "policy": [
          "https://synderai.net/synderai-synthetic-data-policy"
        ],
        "agent": [
          {
            "type": {
              "text": "author"
            },
            "who": {
              "reference": "Device/8e5b1864-990b-487f-b6df-b13b119d0279"
            }
          }
        ],
        "reason": [
          {
            "text": "Interoperability Testing and Training (non-clinical use)"
          }
        ],
        "text": {
          "status": "generated",
          "div": "<div xmlns=\"http://www.w3.org/1999/xhtml\">Provenance for SYNDERAI Synthetic Example Data Resource</div>"
        },
        "recorded": "2021-01-07T06:38:59Z"
      }
    },
    {
      "fullUrl": "urn:uuid:9459b30b-7d76-4f07-a61a-4a16b3572449",
      "resource": {
        "resourceType": "PractitionerRole",
        "id": "9459b30b-7d76-4f07-a61a-4a16b3572449",
        "meta": {
          "profile": [
            "http://hl7.eu/fhir/base/StructureDefinition/practitionerRole-eu"
          ]
        },
        "text": {
          "status": "generated",
          "div": "<div xmlns=\"http://www.w3.org/1999/xhtml\">Laboratory Role Id: 9459b30b-7d76-4f07-a61a-4a16b3572449</div>"
        },
        "practitioner": {
          "reference": "urn:uuid:91dc0c13-7fa4-448e-99dd-9ccd36906223"
        }
      }
    },
    {
      "fullUrl": "urn:uuid:91dc0c13-7fa4-448e-99dd-9ccd36906223",
      "resource": {
        "resourceType": "Practitioner",
        "id": "91dc0c13-7fa4-448e-99dd-9ccd36906223",
        "meta": {
          "profile": [
            "http://hl7.eu/fhir/base/StructureDefinition/practitioner-eu"
          ]
        },
        "identifier": [
          {
            "assigner": {
              "display": "HL7 Europe"
            },
            "system": "urn:oid:2.16.840.1.113883.2.51.999",
            "value": "097b5455-0e13-4491-815b-c798a2505ba9"
          }
        ],
        "name": [
          {
            "prefix": [
              "dr"
            ],
            "given": [
              "Ex"
            ],
            "family": "Ample"
          }
        ],
        "address": [
          {
            "line": [
              "Laboratoire Central Européenne",
              "Boulevard du Jardin Botanique 32"
            ],
            "postalCode": "1000",
            "city": "Brussels",
            "country": "Belgium"
          }
        ],
        "text": {
          "status": "generated",
          "div": "<div xmlns=\"http://www.w3.org/1999/xhtml\">Laboratory: Laboratoire Central Européenne, 1000 Brussels, Belgium</div>"
        }
      }
    }
  ],
  "type": "document",
  "timestamp": "2021-01-07T06:38:59Z"
}
