{
  "resourceType": "Bundle",
  "id": "38374217-2737-4c0b-a0aa-54ea5741a3b0",
  "meta": {
    "profile": [
      "http://hl7.eu/fhir/laboratory/StructureDefinition/Bundle-eu-lab"
    ]
  },
  "identifier": {
    "assigner": {
      "display": "HL7 Europe"
    },
    "system": "urn:oid:2.16.840.1.113883.2.51.999",
    "value": "f4d929b3-b555-4b86-8ae1-a67a84f5c12d"
  },
  "entry": [
    {
      "fullUrl": "urn:uuid:3aff50f1-1829-4175-a712-c75cb893d7f2",
      "resource": {
        "resourceType": "Composition",
        "id": "3aff50f1-1829-4175-a712-c75cb893d7f2",
        "meta": {
          "profile": [
            "http://hl7.eu/fhir/laboratory/StructureDefinition/Composition-eu-lab"
          ]
        },
        "identifier": {
          "assigner": {
            "display": "HL7 Europe"
          },
          "system": "urn:oid:2.16.840.1.113883.2.51.999",
          "value": "b1d55cee-7798-4b9d-bf0f-e9c718f281e0"
        },
        "author": [
          {
            "reference": "urn:uuid:662610be-9c85-42ad-955f-97a1a281c09f"
          }
        ],
        "category": [
          {
            "coding": [
              {
                "code": "26436-6",
                "system": "http://loinc.org",
                "display": "Laboratory studies (set)"
              }
            ]
          }
        ],
        "type": {
          "coding": [
            {
              "code": "11502-2",
              "system": "http://loinc.org",
              "display": "Laboratory report"
            }
          ],
          "text": "Laboratory Report"
        },
        "section": [
          {
            "code": {
              "coding": [
                {
                  "code": "26436-6",
                  "system": "http://loinc.org",
                  "display": "Laboratory studies (set)"
                }
              ],
              "text": "Laboratory studies"
            },
            "section": [
              {
                "code": {
                  "coding": [
                    {
                      "code": "$18719-5",
                      "system": "http://loinc.org",
                      "display": "Chemistry studies (set)"
                    }
                  ],
                  "text": "Chemistry"
                },
                "entry": [
                  {
                    "reference": "urn:uuid:7cb325d9-f1b1-4a91-bbe0-5e5e7aaad498"
                  },
                  {
                    "reference": "urn:uuid:09c6e12f-37b2-4d6a-bba9-670432ddb60a"
                  },
                  {
                    "reference": "urn:uuid:7075ee41-7992-49ca-93e8-d0445bb7d0ae"
                  },
                  {
                    "reference": "urn:uuid:d936c112-6218-4971-9dfd-c360436d04fc"
                  },
                  {
                    "reference": "urn:uuid:db48e7fb-afed-4edc-8324-64fc901a53fb"
                  },
                  {
                    "reference": "urn:uuid:0c22656e-f59c-454a-9ee7-8c90bc75e2df"
                  },
                  {
                    "reference": "urn:uuid:3dd203ac-40a6-4e92-b78b-65c2824157a7"
                  },
                  {
                    "reference": "urn:uuid:d82c1d9f-b74f-47a5-ab5b-e8284181890d"
                  },
                  {
                    "reference": "urn:uuid:5196aefd-ebe1-4b06-8d1f-ec97dec2b404"
                  },
                  {
                    "reference": "urn:uuid:0ee5815e-7415-4c26-bf00-2aa5e95fb9f4"
                  },
                  {
                    "reference": "urn:uuid:e30bb14b-f526-4022-9ba4-a899a3381380"
                  },
                  {
                    "reference": "urn:uuid:0a6a17ae-d655-43b7-9337-2cc0b6d7ef72"
                  },
                  {
                    "reference": "urn:uuid:be9b2180-a62d-47a0-8fa6-825104093815"
                  },
                  {
                    "reference": "urn:uuid:343f3f7f-4668-436c-9b92-c82fc67889b4"
                  },
                  {
                    "reference": "urn:uuid:c0fd9f88-3f02-4603-ba63-46d469667d39"
                  },
                  {
                    "reference": "urn:uuid:33ae2f22-9c07-4a99-80b5-bdb2733c2cef"
                  },
                  {
                    "reference": "urn:uuid:32cab460-c222-420e-a547-291d77d3f7fb"
                  },
                  {
                    "reference": "urn:uuid:4d870b0c-ba42-4adb-b44b-ec3dd9ccd7a3"
                  }
                ],
                "text": {
                  "status": "generated",
                  "div": "<div xmlns=\"http://www.w3.org/1999/xhtml\"><h3>Chemistry</h3><table class=\"hl7__eu__lab__report\"><thead><tr><th>Test</th><th>13-OCT-2015</th><th>Reference&#xA0;Range</th><th>Unit</th></tr></thead><tbody><tr><td>Glucose [Mass/volume] in Serum or Plasma</td><td>98.4</td><td>70 - 99</td><td>mg/dL</td></tr><tr><td>Urea nitrogen [Mass/volume] in Serum or Plasma</td><td>19.4</td><td>7 - 50</td><td>mg/dL</td></tr><tr><td>Creatinine [Mass/volume] in Serum or Plasma</td><td><strong>1.9 H</strong></td><td>0.6 - 1.1</td><td>mg/dL</td></tr><tr><td>Calcium [Mass/volume] in Serum or Plasma</td><td>10.1</td><td>8.6 - 10.4</td><td>mg/dL</td></tr><tr><td>Sodium [Moles/volume] in Serum or Plasma</td><td>140.5</td><td>135 - 145</td><td>mmol/L</td></tr><tr><td>Potassium [Moles/volume] in Serum or Plasma</td><td><strong>5.2 H</strong></td><td>3.5 - 5.1</td><td>mmol/L</td></tr><tr><td>Chloride [Moles/volume] in Serum or Plasma</td><td>105.0</td><td>98 - 108</td><td>mmol/L</td></tr><tr><td>Carbon dioxide, total [Moles/volume] in Serum or Plasma</td><td>22.2</td><td>22 - 32</td><td>mmol/L</td></tr><tr><td>Ketones [Presence] in Urine by Test strip</td><td>Urine ketone test = +</td><td></td><td></td></tr><tr><td>Hemoglobin A1c/Hemoglobin.total in Blood</td><td><strong>3.4 L</strong></td><td>4 - 6.4</td><td>%</td></tr><tr><td>Glucose [Mass/volume] in Blood</td><td>98.4</td><td>70 - 100</td><td>mg/dL</td></tr><tr><td>Urea nitrogen [Mass/volume] in Blood</td><td>19.4</td><td>7 - 43</td><td>mg/dL</td></tr><tr><td>Creatinine [Mass/volume] in Blood</td><td><strong>2.5 H</strong></td><td>0.6 - 1.1</td><td>mg/dL</td></tr><tr><td>Calcium [Mass/volume] in Blood</td><td>10.1</td><td>8.5 - 10.5</td><td>mg/dL</td></tr><tr><td>Sodium [Moles/volume] in Blood</td><td>140.5</td><td>135 - 145</td><td>mmol/L</td></tr><tr><td>Potassium [Moles/volume] in Blood</td><td><strong>5.2 H</strong></td><td>3.5 - 5.1</td><td>mmol/L</td></tr><tr><td>Chloride [Moles/volume] in Blood</td><td>105.0</td><td>98 - 108</td><td>mmol/L</td></tr><tr><td>Carbon dioxide, total [Moles/volume] in Blood</td><td>22.2</td><td>22 - 29</td><td>mmol/L</td></tr></tbody></table></div>"
                },
                "title": "Chemistry"
              },
              {
                "code": {
                  "coding": [
                    {
                      "code": "$18729-4",
                      "system": "http://loinc.org",
                      "display": "Urinalysis studies (set)"
                    }
                  ],
                  "text": "Urinalysis"
                },
                "entry": [
                  {
                    "reference": "urn:uuid:c3a1f925-d586-47d7-8ea6-34e575aed2d9"
                  },
                  {
                    "reference": "urn:uuid:df82ad7f-b8fb-4a91-9ad8-8b63ebe6bafd"
                  },
                  {
                    "reference": "urn:uuid:32d6278b-e543-4b58-b13f-3f6a1db39cf1"
                  },
                  {
                    "reference": "urn:uuid:4745f2c8-bac4-4596-8dc4-8156e8633dc4"
                  },
                  {
                    "reference": "urn:uuid:9f720188-0498-449e-bb91-6e41d8b705ee"
                  },
                  {
                    "reference": "urn:uuid:5cacda43-6846-43f2-9195-c976d1d33134"
                  },
                  {
                    "reference": "urn:uuid:ee1b250e-f5d7-4770-8e53-7fd5677a62e0"
                  },
                  {
                    "reference": "urn:uuid:b47147c7-0ebb-4394-927e-d37f021aef51"
                  },
                  {
                    "reference": "urn:uuid:7b5b001b-6904-4851-a632-319e96732e4b"
                  },
                  {
                    "reference": "urn:uuid:75f2ba04-7206-4225-b057-001bc42c3c69"
                  },
                  {
                    "reference": "urn:uuid:2c500322-bfc2-45f5-9e78-bfb60efa3458"
                  },
                  {
                    "reference": "urn:uuid:73b42c5b-8dd1-4e71-a89b-01ac4c23412b"
                  }
                ],
                "text": {
                  "status": "generated",
                  "div": "<div xmlns=\"http://www.w3.org/1999/xhtml\"><h3>Urinalysis</h3><table class=\"hl7__eu__lab__report\"><thead><tr><th>Test</th><th>13-OCT-2015</th><th>Reference&#xA0;Range</th><th>Unit</th></tr></thead><tbody><tr><td>Glucose [Mass/volume] in Urine by Test strip</td><td><strong>2.5 H</strong></td><td>0.8 - 0</td><td>mg/dL</td></tr><tr><td>Glucose [Presence] in Urine by Test strip</td><td>++</td><td></td><td></td></tr><tr><td>Bilirubin.total [Mass/volume] in Urine by Test strip</td><td><strong>1.4 H</strong></td><td>0 - 1</td><td>mg/dL</td></tr><tr><td>Bilirubin.total [Presence] in Urine by Test strip</td><td>Finding of bilirubin in urine</td><td></td><td></td></tr><tr><td>Ketones [Mass/volume] in Urine by Test strip</td><td><strong>4.6 H</strong></td><td>0 - 4</td><td>mg/dL</td></tr><tr><td>Specific gravity of Urine by Test strip</td><td><strong>1.0 L</strong></td><td>1.005 - 1.03</td><td>{nominal}</td></tr><tr><td>pH of Urine by Test strip</td><td>6.3</td><td>4.6 - 7</td><td>pH</td></tr><tr><td>Protein [Mass/volume] in Urine by Test strip</td><td><strong>305.3 H</strong></td><td>0 - 14</td><td>mg/dL</td></tr><tr><td>Protein [Presence] in Urine by Test strip</td><td>Urine protein test = ++</td><td></td><td></td></tr><tr><td>Nitrite [Presence] in Urine by Test strip</td><td>Urine nitrite negative</td><td></td><td></td></tr><tr><td>Hemoglobin [Presence] in Urine by Test strip</td><td>Urine blood test = negative</td><td></td><td></td></tr><tr><td>Leukocyte esterase [Presence] in Urine by Test strip</td><td>Urine leukocyte test negative</td><td></td><td></td></tr></tbody></table></div>"
                },
                "title": "Urinalysis"
              },
              {
                "code": {
                  "coding": [
                    {
                      "code": "$LP7846-1",
                      "system": "http://loinc.org",
                      "display": "Specimen information"
                    }
                  ],
                  "text": "Specimen information"
                },
                "entry": [
                  {
                    "reference": "urn:uuid:44193dc3-1287-4277-92cd-40efe31c6f37"
                  },
                  {
                    "reference": "urn:uuid:b9e83e28-be3b-4a75-8033-d99d373b32f0"
                  },
                  {
                    "reference": "urn:uuid:3d9d1463-ab4a-4bdc-9a7e-dfb687e5bac0"
                  },
                  {
                    "reference": "urn:uuid:03e32e3b-6c05-44ee-ad01-5d4b5b804b0c"
                  }
                ],
                "text": {
                  "status": "generated",
                  "div": "<div xmlns=\"http://www.w3.org/1999/xhtml\"><h3>Specimen information</h3><table class=\"hl7__eu__lab__report\"><thead><tr><th>Test</th><th>13-OCT-2015</th><th>Specimen</th><th></th></tr></thead><tbody><tr><td>Appearance of Urine</td><td>Cloudy urine</td><td>Urine</td><td></td></tr><tr><td>Odor of Urine</td><td>Urine smell ammoniacal</td><td>Urine</td><td></td></tr><tr><td>Clarity of Urine</td><td>Translucent</td><td>Urine</td><td></td></tr><tr><td>Color of Urine</td><td>Brown color</td><td>Urine</td><td></td></tr></tbody></table></div>"
                },
                "title": "Specimen information"
              }
            ],
            "title": "Laboratory Report"
          },
          {
            "text": {
              "status": "generated",
              "div": "<div xmlns=\"http://www.w3.org/1999/xhtml\"><h3>Annotation</h3><table class=\"hl7__eu__lab__report\"><tr><th>Conclusion and Recommendations based on this report and previous findings known to us</th></tr><tr><td>The patient shows elevated creatinine and potassium, suggesting impaired renal function. Urinalysis reveals significant proteinuria, glucosuria, ketonuria, bilirubinuria, low specific gravity, and abnormal urine appearance, indicating possible nephrotic syndrome or diabetic nephropathy, though HbA1c is low. No evidence of urinary tract infection. Recommend further nephrological evaluation and assessment for underlying metabolic or systemic disease.</td></tr></table></div>"
            },
            "code": {
              "coding": [
                {
                  "system": "http://loinc.org",
                  "code": "48767-8",
                  "display": "Annotation comment"
                }
              ]
            },
            "title": "Annotation comment"
          }
        ],
        "status": "final",
        "subject": {
          "reference": "urn:uuid:318c2a38-da5f-43b5-b5ba-c61e37ea059c",
          "display": "Meaghan Neary"
        },
        "date": "2015-10-13T00:11:04Z",
        "title": "Laboratory Report",
        "confidentiality": "N"
      }
    },
    {
      "fullUrl": "urn:uuid:1984f2f6-3ede-4bb0-a300-61ae3d0351a4",
      "resource": {
        "resourceType": "DiagnosticReport",
        "id": "1984f2f6-3ede-4bb0-a300-61ae3d0351a4",
        "meta": {
          "profile": [
            "http://hl7.eu/fhir/laboratory/StructureDefinition/DiagnosticReport-eu-lab"
          ]
        },
        "identifier": [
          {
            "assigner": {
              "display": "HL7 Europe"
            },
            "system": "urn:oid:2.16.840.1.113883.2.51.999",
            "value": "01d5efd8-73eb-4be1-9544-a592542fbf62"
          }
        ],
        "extension": [
          {
            "url": "http://hl7.org/fhir/5.0/StructureDefinition/extension-DiagnosticReport.composition",
            "valueReference": {
              "reference": "urn:uuid:b1d55cee-7798-4b9d-bf0f-e9c718f281e0"
            }
          }
        ],
        "category": [
          {
            "coding": [
              {
                "code": "26436-6",
                "system": "http://loinc.org",
                "display": "Laboratory studies (set)"
              }
            ]
          }
        ],
        "specimen": [
          {
            "reference": "urn:uuid:79f08d98-d46e-4b6e-b793-e13802567313"
          },
          {
            "reference": "urn:uuid:307474f9-9d4f-4058-9bdf-22f08a0aa2cd"
          },
          {
            "reference": "urn:uuid:5f572ac5-d3be-4036-a4b2-3054f9002fd9"
          }
        ],
        "result": [
          {
            "reference": "urn:uuid:7cb325d9-f1b1-4a91-bbe0-5e5e7aaad498"
          },
          {
            "reference": "urn:uuid:09c6e12f-37b2-4d6a-bba9-670432ddb60a"
          },
          {
            "reference": "urn:uuid:7075ee41-7992-49ca-93e8-d0445bb7d0ae"
          },
          {
            "reference": "urn:uuid:d936c112-6218-4971-9dfd-c360436d04fc"
          },
          {
            "reference": "urn:uuid:db48e7fb-afed-4edc-8324-64fc901a53fb"
          },
          {
            "reference": "urn:uuid:0c22656e-f59c-454a-9ee7-8c90bc75e2df"
          },
          {
            "reference": "urn:uuid:3dd203ac-40a6-4e92-b78b-65c2824157a7"
          },
          {
            "reference": "urn:uuid:d82c1d9f-b74f-47a5-ab5b-e8284181890d"
          },
          {
            "reference": "urn:uuid:44193dc3-1287-4277-92cd-40efe31c6f37"
          },
          {
            "reference": "urn:uuid:b9e83e28-be3b-4a75-8033-d99d373b32f0"
          },
          {
            "reference": "urn:uuid:3d9d1463-ab4a-4bdc-9a7e-dfb687e5bac0"
          },
          {
            "reference": "urn:uuid:03e32e3b-6c05-44ee-ad01-5d4b5b804b0c"
          },
          {
            "reference": "urn:uuid:c3a1f925-d586-47d7-8ea6-34e575aed2d9"
          },
          {
            "reference": "urn:uuid:df82ad7f-b8fb-4a91-9ad8-8b63ebe6bafd"
          },
          {
            "reference": "urn:uuid:32d6278b-e543-4b58-b13f-3f6a1db39cf1"
          },
          {
            "reference": "urn:uuid:4745f2c8-bac4-4596-8dc4-8156e8633dc4"
          },
          {
            "reference": "urn:uuid:9f720188-0498-449e-bb91-6e41d8b705ee"
          },
          {
            "reference": "urn:uuid:5196aefd-ebe1-4b06-8d1f-ec97dec2b404"
          },
          {
            "reference": "urn:uuid:5cacda43-6846-43f2-9195-c976d1d33134"
          },
          {
            "reference": "urn:uuid:ee1b250e-f5d7-4770-8e53-7fd5677a62e0"
          },
          {
            "reference": "urn:uuid:b47147c7-0ebb-4394-927e-d37f021aef51"
          },
          {
            "reference": "urn:uuid:7b5b001b-6904-4851-a632-319e96732e4b"
          },
          {
            "reference": "urn:uuid:75f2ba04-7206-4225-b057-001bc42c3c69"
          },
          {
            "reference": "urn:uuid:2c500322-bfc2-45f5-9e78-bfb60efa3458"
          },
          {
            "reference": "urn:uuid:73b42c5b-8dd1-4e71-a89b-01ac4c23412b"
          },
          {
            "reference": "urn:uuid:0ee5815e-7415-4c26-bf00-2aa5e95fb9f4"
          },
          {
            "reference": "urn:uuid:e30bb14b-f526-4022-9ba4-a899a3381380"
          },
          {
            "reference": "urn:uuid:0a6a17ae-d655-43b7-9337-2cc0b6d7ef72"
          },
          {
            "reference": "urn:uuid:be9b2180-a62d-47a0-8fa6-825104093815"
          },
          {
            "reference": "urn:uuid:343f3f7f-4668-436c-9b92-c82fc67889b4"
          },
          {
            "reference": "urn:uuid:c0fd9f88-3f02-4603-ba63-46d469667d39"
          },
          {
            "reference": "urn:uuid:33ae2f22-9c07-4a99-80b5-bdb2733c2cef"
          },
          {
            "reference": "urn:uuid:32cab460-c222-420e-a547-291d77d3f7fb"
          },
          {
            "reference": "urn:uuid:4d870b0c-ba42-4adb-b44b-ec3dd9ccd7a3"
          }
        ],
        "status": "registered",
        "code": {
          "coding": [
            {
              "code": "11502-2",
              "system": "http://loinc.org",
              "display": "Laboratory report"
            }
          ]
        },
        "subject": {
          "reference": "urn:uuid:318c2a38-da5f-43b5-b5ba-c61e37ea059c",
          "display": "Meaghan Neary"
        }
      }
    },
    {
      "fullUrl": "urn:uuid:318c2a38-da5f-43b5-b5ba-c61e37ea059c",
      "resource": {
        "resourceType": "Patient",
        "id": "318c2a38-da5f-43b5-b5ba-c61e37ea059c",
        "meta": {
          "security": [
            {
              "system": "http://terminology.hl7.org/CodeSystem/v3-ActReason",
              "code": "HTEST"
            },
            {
              "system": "http://terminology.hl7.org/CodeSystem/v3-ActReason",
              "code": "TRAIN"
            }
          ],
          "tag": [
            {
              "system": "https://synderai.net/fhir/CodeSystem/tags",
              "code": "synthetic",
              "display": "SYNDERAI Synthetic data"
            }
          ],
          "profile": [
            "http://hl7.eu/fhir/base/StructureDefinition/patient-eu-core"
          ]
        },
        "identifier": [
          {
            "type": {
              "coding": [
                {
                  "code": "PT",
                  "system": "http://terminology.hl7.org/CodeSystem/v2-0203"
                }
              ]
            },
            "system": "http://ec.europa.eu/identifier/eci",
            "value": "1586-567257-8"
          },
          {
            "type": {
              "coding": [
                {
                  "code": "MR",
                  "system": "http://terminology.hl7.org/CodeSystem/v2-0203"
                }
              ]
            },
            "system": "http://local.setting.eu/identifier",
            "value": "443e6379-f231-b364-3ccb-644740a1aa2a"
          }
        ],
        "name": [
          {
            "family": "Neary"
          },
          {
            "given": [
              "Meaghan"
            ]
          },
          {
            "text": "Meaghan Neary"
          }
        ],
        "address": [
          {
            "line": [
              "64 Linskey Street"
            ],
            "use": "home",
            "type": "physical",
            "postalCode": "D02",
            "city": "Dublin",
            "country": "Ireland"
          }
        ],
        "telecom": [
          {
            "system": "phone",
            "value": "001-967-573-0911x465"
          }
        ],
        "extension": [
          {
            "url": "http://hl7.org/fhir/StructureDefinition/patient-nationality",
            "valueCodeableConcept": {
              "coding": [
                {
                  "code": "IE",
                  "system": "http://hl7.org/fhir/ValueSet/country"
                }
              ]
            }
          }
        ],
        "text": {
          "status": "generated",
          "div": "<div xmlns=\"http://www.w3.org/1999/xhtml\"><table class=\"hl7__ips\"><tr><td>Meaghan Neary</td><td>female</td><td>19-Dec-1960</td></tr></table></div>"
        },
        "gender": "female",
        "birthDate": "1960-12-19"
      }
    },
    {
      "fullUrl": "urn:uuid:552e9f68-acba-46b7-8638-c80c8a3a610e",
      "resource": {
        "resourceType": "ServiceRequest",
        "id": "552e9f68-acba-46b7-8638-c80c8a3a610e",
        "meta": {
          "profile": [
            "http://hl7.eu/fhir/laboratory/StructureDefinition/ServiceRequest-eu-lab"
          ]
        },
        "identifier": [
          {
            "system": "http://example.org",
            "value": "b4a6288c-ed19-4cb3-a3de-1582844c07ea"
          }
        ],
        "specimen": [
          {
            "reference": "urn:uuid:79f08d98-d46e-4b6e-b793-e13802567313"
          },
          {
            "reference": "urn:uuid:307474f9-9d4f-4058-9bdf-22f08a0aa2cd"
          },
          {
            "reference": "urn:uuid:5f572ac5-d3be-4036-a4b2-3054f9002fd9"
          }
        ],
        "reasonCode": [
          {
            "coding": [
              {
                "code": "55822004",
                "system": "http://snomed.info/sct",
                "display": "Hyperlipidemia"
              }
            ]
          },
          {
            "coding": [
              {
                "code": "433144002",
                "system": "http://snomed.info/sct",
                "display": "Chronic kidney disease stage 3"
              }
            ]
          },
          {
            "coding": [
              {
                "code": "157141000119108",
                "system": "http://snomed.info/sct",
                "display": "Proteinuria due to type 2 diabetes mellitus"
              }
            ]
          },
          {
            "coding": [
              {
                "code": "431856006",
                "system": "http://snomed.info/sct",
                "display": "Chronic kidney disease stage 2"
              }
            ]
          },
          {
            "coding": [
              {
                "code": "90781000119102",
                "system": "http://snomed.info/sct",
                "display": "Microalbuminuria due to type 2 diabetes mellitus"
              }
            ]
          },
          {
            "coding": [
              {
                "code": "127013003",
                "system": "http://snomed.info/sct",
                "display": "Disorder of kidney due to diabetes mellitus"
              }
            ]
          },
          {
            "coding": [
              {
                "code": "431855005",
                "system": "http://snomed.info/sct",
                "display": "Chronic kidney disease stage 1"
              }
            ]
          },
          {
            "coding": [
              {
                "code": "237602007",
                "system": "http://snomed.info/sct",
                "display": "Metabolic syndrome X"
              }
            ]
          },
          {
            "coding": [
              {
                "code": "271737000",
                "system": "http://snomed.info/sct",
                "display": "Anemia"
              }
            ]
          },
          {
            "coding": [
              {
                "code": "15777000",
                "system": "http://snomed.info/sct",
                "display": "Prediabetes"
              }
            ]
          },
          {
            "coding": [
              {
                "code": "59621000",
                "system": "http://snomed.info/sct",
                "display": "Essential hypertension"
              }
            ]
          }
        ],
        "status": "active",
        "intent": "order",
        "code": {
          "coding": [
            {
              "code": "108252007",
              "system": "http://snomed.info/sct",
              "display": "Laboratory procedure"
            }
          ]
        },
        "subject": {
          "reference": "urn:uuid:318c2a38-da5f-43b5-b5ba-c61e37ea059c",
          "display": "Meaghan Neary"
        },
        "requester": {
          "reference": "urn:uuid:45c94aab-f032-4d83-861c-7f1a1689cb93"
        }
      }
    },
    {
      "fullUrl": "urn:uuid:45c94aab-f032-4d83-861c-7f1a1689cb93",
      "resource": {
        "resourceType": "PractitionerRole",
        "id": "45c94aab-f032-4d83-861c-7f1a1689cb93",
        "meta": {
          "profile": [
            "http://hl7.eu/fhir/base/StructureDefinition/practitionerRole-eu"
          ]
        },
        "text": {
          "status": "generated",
          "div": "<div xmlns=\"http://www.w3.org/1999/xhtml\">Provider Role Id: 45c94aab-f032-4d83-861c-7f1a1689cb93</div>"
        },
        "organization": {
          "reference": "urn:uuid:86a90e5b-959f-40d8-bf2a-1ef8206bd4ac"
        }
      }
    },
    {
      "fullUrl": "urn:uuid:86a90e5b-959f-40d8-bf2a-1ef8206bd4ac",
      "resource": {
        "resourceType": "Organization",
        "id": "86a90e5b-959f-40d8-bf2a-1ef8206bd4ac",
        "meta": {
          "profile": [
            "http://hl7.eu/fhir/base/StructureDefinition/organization-eu"
          ]
        },
        "identifier": [
          {
            "assigner": {
              "display": "HL7 Europe"
            },
            "system": "urn:oid:2.16.840.1.113883.2.51.999",
            "value": "ab935392-e761-47c4-a6b9-a3a7a13d5ff0"
          }
        ],
        "address": [
          {
            "line": [
              "Parnell Square West nan"
            ],
            "city": "Dublin",
            "postalCode": "D01",
            "country": "Ireland"
          }
        ],
        "text": {
          "status": "generated",
          "div": "<div xmlns=\"http://www.w3.org/1999/xhtml\">Provider Organization: Rotunda Hospital</div>"
        },
        "name": "Rotunda Hospital"
      }
    },
    {
      "fullUrl": "urn:uuid:79f08d98-d46e-4b6e-b793-e13802567313",
      "resource": {
        "resourceType": "Specimen",
        "id": "79f08d98-d46e-4b6e-b793-e13802567313",
        "meta": {
          "profile": [
            "http://hl7.eu/fhir/laboratory/StructureDefinition/Specimen-eu-lab"
          ]
        },
        "collection": {
          "collectedDateTime": "2015-10-12"
        },
        "text": {
          "status": "generated",
          "div": "<div xmlns=\"http://www.w3.org/1999/xhtml\"><table class=\"hl7__eu__lab__report\"><tr><th>Specimen</th><th>Collection Date</th></tr><tr><td>Acellular blood (serum or plasma) specimen</td><td><span class=\"nb\">12-Oct-2015</span></td></tr></table></div>"
        },
        "type": {
          "coding": [
            {
              "code": "122592007",
              "system": "http://snomed.info/sct",
              "display": "Acellular blood (serum or plasma) specimen"
            }
          ]
        }
      }
    },
    {
      "fullUrl": "urn:uuid:307474f9-9d4f-4058-9bdf-22f08a0aa2cd",
      "resource": {
        "resourceType": "Specimen",
        "id": "307474f9-9d4f-4058-9bdf-22f08a0aa2cd",
        "meta": {
          "profile": [
            "http://hl7.eu/fhir/laboratory/StructureDefinition/Specimen-eu-lab"
          ]
        },
        "collection": {
          "collectedDateTime": "2015-10-12"
        },
        "text": {
          "status": "generated",
          "div": "<div xmlns=\"http://www.w3.org/1999/xhtml\"><table class=\"hl7__eu__lab__report\"><tr><th>Specimen</th><th>Collection Date</th></tr><tr><td>Urine specimen</td><td><span class=\"nb\">12-Oct-2015</span></td></tr></table></div>"
        },
        "type": {
          "coding": [
            {
              "code": "122575003",
              "system": "http://snomed.info/sct",
              "display": "Urine specimen"
            }
          ]
        }
      }
    },
    {
      "fullUrl": "urn:uuid:5f572ac5-d3be-4036-a4b2-3054f9002fd9",
      "resource": {
        "resourceType": "Specimen",
        "id": "5f572ac5-d3be-4036-a4b2-3054f9002fd9",
        "meta": {
          "profile": [
            "http://hl7.eu/fhir/laboratory/StructureDefinition/Specimen-eu-lab"
          ]
        },
        "collection": {
          "collectedDateTime": "2015-10-12"
        },
        "text": {
          "status": "generated",
          "div": "<div xmlns=\"http://www.w3.org/1999/xhtml\"><table class=\"hl7__eu__lab__report\"><tr><th>Specimen</th><th>Collection Date</th></tr><tr><td>Whole blood specimen (specimen)</td><td><span class=\"nb\">12-Oct-2015</span></td></tr></table></div>"
        },
        "type": {
          "coding": [
            {
              "code": "258580003",
              "system": "http://snomed.info/sct",
              "display": "Whole blood specimen (specimen)"
            }
          ]
        }
      }
    },
    {
      "fullUrl": "urn:uuid:7cb325d9-f1b1-4a91-bbe0-5e5e7aaad498",
      "resource": {
        "resourceType": "Observation",
        "id": "7cb325d9-f1b1-4a91-bbe0-5e5e7aaad498",
        "meta": {
          "profile": [
            "http://hl7.eu/fhir/laboratory/StructureDefinition/Observation-resultslab-eu-lab"
          ]
        },
        "performer": [
          {
            "display": "The Central European Lab"
          }
        ],
        "category": [
          {
            "coding": [
              {
                "system": "http://terminology.hl7.org/CodeSystem/observation-category",
                "code": "laboratory"
              }
            ]
          }
        ],
        "code": {
          "coding": [
            {
              "code": "2345-7",
              "system": "http://loinc.org",
              "display": "Glucose [Mass/volume] in Serum or Plasma"
            }
          ],
          "text": "Glucose [Mass/volume] in Serum or Plasma"
        },
        "valueQuantity": {
          "system": "http://unitsofmeasure.org",
          "value": 98.4,
          "unit": "mg/dL",
          "code": "mg/dL"
        },
        "referenceRange": [
          {
            "low": {
              "value": 70,
              "code": "mg/dL",
              "system": "http://unitsofmeasure.org"
            }
          },
          {
            "high": {
              "value": 99,
              "code": "mg/dL",
              "system": "http://unitsofmeasure.org"
            }
          }
        ],
        "text": {
          "status": "generated",
          "div": "<div xmlns=\"http://www.w3.org/1999/xhtml\"><table class=\"hl7__eu__lab__report\"><tr><th>Test</th><th>13-Oct-2015</th><th>Reference&#xA0;Range</th><th>Unit</th></tr><tr><td>Glucose [Mass/volume] in Serum or Plasma</td><td>98.4</td><td>70 - 99</td><td></td><td>mg/dL</td></tr></table></div>"
        },
        "status": "final",
        "subject": {
          "reference": "urn:uuid:318c2a38-da5f-43b5-b5ba-c61e37ea059c",
          "display": "Meaghan Neary"
        },
        "effectiveDateTime": "2015-10-12T22:11:04Z",
        "specimen": {
          "reference": "urn:uuid:79f08d98-d46e-4b6e-b793-e13802567313"
        }
      }
    },
    {
      "fullUrl": "urn:uuid:09c6e12f-37b2-4d6a-bba9-670432ddb60a",
      "resource": {
        "resourceType": "Observation",
        "id": "09c6e12f-37b2-4d6a-bba9-670432ddb60a",
        "meta": {
          "profile": [
            "http://hl7.eu/fhir/laboratory/StructureDefinition/Observation-resultslab-eu-lab"
          ]
        },
        "performer": [
          {
            "display": "The Central European Lab"
          }
        ],
        "category": [
          {
            "coding": [
              {
                "system": "http://terminology.hl7.org/CodeSystem/observation-category",
                "code": "laboratory"
              }
            ]
          }
        ],
        "code": {
          "coding": [
            {
              "code": "3094-0",
              "system": "http://loinc.org",
              "display": "Urea nitrogen [Mass/volume] in Serum or Plasma"
            }
          ],
          "text": "Urea nitrogen [Mass/volume] in Serum or Plasma"
        },
        "valueQuantity": {
          "system": "http://unitsofmeasure.org",
          "value": 19.4,
          "unit": "mg/dL",
          "code": "mg/dL"
        },
        "referenceRange": [
          {
            "low": {
              "value": 7,
              "code": "mg/dL",
              "system": "http://unitsofmeasure.org"
            }
          },
          {
            "high": {
              "value": 50,
              "code": "mg/dL",
              "system": "http://unitsofmeasure.org"
            }
          }
        ],
        "text": {
          "status": "generated",
          "div": "<div xmlns=\"http://www.w3.org/1999/xhtml\"><table class=\"hl7__eu__lab__report\"><tr><th>Test</th><th>13-Oct-2015</th><th>Reference&#xA0;Range</th><th>Unit</th></tr><tr><td>Urea nitrogen [Mass/volume] in Serum or Plasma</td><td>19.4</td><td>7 - 50</td><td></td><td>mg/dL</td></tr></table></div>"
        },
        "status": "final",
        "subject": {
          "reference": "urn:uuid:318c2a38-da5f-43b5-b5ba-c61e37ea059c",
          "display": "Meaghan Neary"
        },
        "effectiveDateTime": "2015-10-12T22:11:04Z",
        "specimen": {
          "reference": "urn:uuid:79f08d98-d46e-4b6e-b793-e13802567313"
        }
      }
    },
    {
      "fullUrl": "urn:uuid:7075ee41-7992-49ca-93e8-d0445bb7d0ae",
      "resource": {
        "resourceType": "Observation",
        "id": "7075ee41-7992-49ca-93e8-d0445bb7d0ae",
        "meta": {
          "profile": [
            "http://hl7.eu/fhir/laboratory/StructureDefinition/Observation-resultslab-eu-lab"
          ]
        },
        "performer": [
          {
            "display": "The Central European Lab"
          }
        ],
        "category": [
          {
            "coding": [
              {
                "system": "http://terminology.hl7.org/CodeSystem/observation-category",
                "code": "laboratory"
              }
            ]
          }
        ],
        "code": {
          "coding": [
            {
              "code": "2160-0",
              "system": "http://loinc.org",
              "display": "Creatinine [Mass/volume] in Serum or Plasma"
            }
          ],
          "text": "Creatinine [Mass/volume] in Serum or Plasma"
        },
        "valueQuantity": {
          "system": "http://unitsofmeasure.org",
          "value": 1.9,
          "unit": "mg/dL",
          "code": "mg/dL"
        },
        "referenceRange": [
          {
            "low": {
              "value": 0.6,
              "code": "mg/dL",
              "system": "http://unitsofmeasure.org"
            }
          },
          {
            "high": {
              "value": 1.1,
              "code": "mg/dL",
              "system": "http://unitsofmeasure.org"
            }
          }
        ],
        "interpretation": [
          {
            "coding": [
              {
                "code": "H",
                "system": "http://terminology.hl7.org/CodeSystem/v3-ObservationInterpretation",
                "display": "High"
              }
            ]
          }
        ],
        "text": {
          "status": "generated",
          "div": "<div xmlns=\"http://www.w3.org/1999/xhtml\"><table class=\"hl7__eu__lab__report\"><tr><th>Test</th><th>13-Oct-2015</th><th>Reference&#xA0;Range</th><th>Unit</th></tr><tr><td>Creatinine [Mass/volume] in Serum or Plasma</td><td>1.9</td><td>0.6 - 1.1</td><td>H</td><td>mg/dL</td></tr></table></div>"
        },
        "status": "final",
        "subject": {
          "reference": "urn:uuid:318c2a38-da5f-43b5-b5ba-c61e37ea059c",
          "display": "Meaghan Neary"
        },
        "effectiveDateTime": "2015-10-12T22:11:04Z",
        "specimen": {
          "reference": "urn:uuid:79f08d98-d46e-4b6e-b793-e13802567313"
        }
      }
    },
    {
      "fullUrl": "urn:uuid:d936c112-6218-4971-9dfd-c360436d04fc",
      "resource": {
        "resourceType": "Observation",
        "id": "d936c112-6218-4971-9dfd-c360436d04fc",
        "meta": {
          "profile": [
            "http://hl7.eu/fhir/laboratory/StructureDefinition/Observation-resultslab-eu-lab"
          ]
        },
        "performer": [
          {
            "display": "The Central European Lab"
          }
        ],
        "category": [
          {
            "coding": [
              {
                "system": "http://terminology.hl7.org/CodeSystem/observation-category",
                "code": "laboratory"
              }
            ]
          }
        ],
        "code": {
          "coding": [
            {
              "code": "17861-6",
              "system": "http://loinc.org",
              "display": "Calcium [Mass/volume] in Serum or Plasma"
            }
          ],
          "text": "Calcium [Mass/volume] in Serum or Plasma"
        },
        "valueQuantity": {
          "system": "http://unitsofmeasure.org",
          "value": 10.1,
          "unit": "mg/dL",
          "code": "mg/dL"
        },
        "referenceRange": [
          {
            "low": {
              "value": 8.6,
              "code": "mg/dL",
              "system": "http://unitsofmeasure.org"
            }
          },
          {
            "high": {
              "value": 10.4,
              "code": "mg/dL",
              "system": "http://unitsofmeasure.org"
            }
          }
        ],
        "text": {
          "status": "generated",
          "div": "<div xmlns=\"http://www.w3.org/1999/xhtml\"><table class=\"hl7__eu__lab__report\"><tr><th>Test</th><th>13-Oct-2015</th><th>Reference&#xA0;Range</th><th>Unit</th></tr><tr><td>Calcium [Mass/volume] in Serum or Plasma</td><td>10.1</td><td>8.6 - 10.4</td><td></td><td>mg/dL</td></tr></table></div>"
        },
        "status": "final",
        "subject": {
          "reference": "urn:uuid:318c2a38-da5f-43b5-b5ba-c61e37ea059c",
          "display": "Meaghan Neary"
        },
        "effectiveDateTime": "2015-10-12T22:11:04Z",
        "specimen": {
          "reference": "urn:uuid:79f08d98-d46e-4b6e-b793-e13802567313"
        }
      }
    },
    {
      "fullUrl": "urn:uuid:db48e7fb-afed-4edc-8324-64fc901a53fb",
      "resource": {
        "resourceType": "Observation",
        "id": "db48e7fb-afed-4edc-8324-64fc901a53fb",
        "meta": {
          "profile": [
            "http://hl7.eu/fhir/laboratory/StructureDefinition/Observation-resultslab-eu-lab"
          ]
        },
        "performer": [
          {
            "display": "The Central European Lab"
          }
        ],
        "category": [
          {
            "coding": [
              {
                "system": "http://terminology.hl7.org/CodeSystem/observation-category",
                "code": "laboratory"
              }
            ]
          }
        ],
        "code": {
          "coding": [
            {
              "code": "2951-2",
              "system": "http://loinc.org",
              "display": "Sodium [Moles/volume] in Serum or Plasma"
            }
          ],
          "text": "Sodium [Moles/volume] in Serum or Plasma"
        },
        "valueQuantity": {
          "system": "http://unitsofmeasure.org",
          "value": 140.5,
          "unit": "mmol/L",
          "code": "mmol/L"
        },
        "referenceRange": [
          {
            "low": {
              "value": 135,
              "code": "mmol/L",
              "system": "http://unitsofmeasure.org"
            }
          },
          {
            "high": {
              "value": 145,
              "code": "mmol/L",
              "system": "http://unitsofmeasure.org"
            }
          }
        ],
        "text": {
          "status": "generated",
          "div": "<div xmlns=\"http://www.w3.org/1999/xhtml\"><table class=\"hl7__eu__lab__report\"><tr><th>Test</th><th>13-Oct-2015</th><th>Reference&#xA0;Range</th><th>Unit</th></tr><tr><td>Sodium [Moles/volume] in Serum or Plasma</td><td>140.5</td><td>135 - 145</td><td></td><td>mmol/L</td></tr></table></div>"
        },
        "status": "final",
        "subject": {
          "reference": "urn:uuid:318c2a38-da5f-43b5-b5ba-c61e37ea059c",
          "display": "Meaghan Neary"
        },
        "effectiveDateTime": "2015-10-12T22:11:04Z",
        "specimen": {
          "reference": "urn:uuid:79f08d98-d46e-4b6e-b793-e13802567313"
        }
      }
    },
    {
      "fullUrl": "urn:uuid:0c22656e-f59c-454a-9ee7-8c90bc75e2df",
      "resource": {
        "resourceType": "Observation",
        "id": "0c22656e-f59c-454a-9ee7-8c90bc75e2df",
        "meta": {
          "profile": [
            "http://hl7.eu/fhir/laboratory/StructureDefinition/Observation-resultslab-eu-lab"
          ]
        },
        "performer": [
          {
            "display": "The Central European Lab"
          }
        ],
        "category": [
          {
            "coding": [
              {
                "system": "http://terminology.hl7.org/CodeSystem/observation-category",
                "code": "laboratory"
              }
            ]
          }
        ],
        "code": {
          "coding": [
            {
              "code": "2823-3",
              "system": "http://loinc.org",
              "display": "Potassium [Moles/volume] in Serum or Plasma"
            }
          ],
          "text": "Potassium [Moles/volume] in Serum or Plasma"
        },
        "valueQuantity": {
          "system": "http://unitsofmeasure.org",
          "value": 5.2,
          "unit": "mmol/L",
          "code": "mmol/L"
        },
        "referenceRange": [
          {
            "low": {
              "value": 3.5,
              "code": "mmol/L",
              "system": "http://unitsofmeasure.org"
            }
          },
          {
            "high": {
              "value": 5.1,
              "code": "mmol/L",
              "system": "http://unitsofmeasure.org"
            }
          }
        ],
        "interpretation": [
          {
            "coding": [
              {
                "code": "H",
                "system": "http://terminology.hl7.org/CodeSystem/v3-ObservationInterpretation",
                "display": "High"
              }
            ]
          }
        ],
        "text": {
          "status": "generated",
          "div": "<div xmlns=\"http://www.w3.org/1999/xhtml\"><table class=\"hl7__eu__lab__report\"><tr><th>Test</th><th>13-Oct-2015</th><th>Reference&#xA0;Range</th><th>Unit</th></tr><tr><td>Potassium [Moles/volume] in Serum or Plasma</td><td>5.2</td><td>3.5 - 5.1</td><td>H</td><td>mmol/L</td></tr></table></div>"
        },
        "status": "final",
        "subject": {
          "reference": "urn:uuid:318c2a38-da5f-43b5-b5ba-c61e37ea059c",
          "display": "Meaghan Neary"
        },
        "effectiveDateTime": "2015-10-12T22:11:04Z",
        "specimen": {
          "reference": "urn:uuid:79f08d98-d46e-4b6e-b793-e13802567313"
        }
      }
    },
    {
      "fullUrl": "urn:uuid:3dd203ac-40a6-4e92-b78b-65c2824157a7",
      "resource": {
        "resourceType": "Observation",
        "id": "3dd203ac-40a6-4e92-b78b-65c2824157a7",
        "meta": {
          "profile": [
            "http://hl7.eu/fhir/laboratory/StructureDefinition/Observation-resultslab-eu-lab"
          ]
        },
        "performer": [
          {
            "display": "The Central European Lab"
          }
        ],
        "category": [
          {
            "coding": [
              {
                "system": "http://terminology.hl7.org/CodeSystem/observation-category",
                "code": "laboratory"
              }
            ]
          }
        ],
        "code": {
          "coding": [
            {
              "code": "2075-0",
              "system": "http://loinc.org",
              "display": "Chloride [Moles/volume] in Serum or Plasma"
            }
          ],
          "text": "Chloride [Moles/volume] in Serum or Plasma"
        },
        "valueQuantity": {
          "system": "http://unitsofmeasure.org",
          "value": 105,
          "unit": "mmol/L",
          "code": "mmol/L"
        },
        "referenceRange": [
          {
            "low": {
              "value": 98,
              "code": "mmol/L",
              "system": "http://unitsofmeasure.org"
            }
          },
          {
            "high": {
              "value": 108,
              "code": "mmol/L",
              "system": "http://unitsofmeasure.org"
            }
          }
        ],
        "text": {
          "status": "generated",
          "div": "<div xmlns=\"http://www.w3.org/1999/xhtml\"><table class=\"hl7__eu__lab__report\"><tr><th>Test</th><th>13-Oct-2015</th><th>Reference&#xA0;Range</th><th>Unit</th></tr><tr><td>Chloride [Moles/volume] in Serum or Plasma</td><td>105.0</td><td>98 - 108</td><td></td><td>mmol/L</td></tr></table></div>"
        },
        "status": "final",
        "subject": {
          "reference": "urn:uuid:318c2a38-da5f-43b5-b5ba-c61e37ea059c",
          "display": "Meaghan Neary"
        },
        "effectiveDateTime": "2015-10-12T22:11:04Z",
        "specimen": {
          "reference": "urn:uuid:79f08d98-d46e-4b6e-b793-e13802567313"
        }
      }
    },
    {
      "fullUrl": "urn:uuid:d82c1d9f-b74f-47a5-ab5b-e8284181890d",
      "resource": {
        "resourceType": "Observation",
        "id": "d82c1d9f-b74f-47a5-ab5b-e8284181890d",
        "meta": {
          "profile": [
            "http://hl7.eu/fhir/laboratory/StructureDefinition/Observation-resultslab-eu-lab"
          ]
        },
        "performer": [
          {
            "display": "The Central European Lab"
          }
        ],
        "category": [
          {
            "coding": [
              {
                "system": "http://terminology.hl7.org/CodeSystem/observation-category",
                "code": "laboratory"
              }
            ]
          }
        ],
        "code": {
          "coding": [
            {
              "code": "2028-9",
              "system": "http://loinc.org",
              "display": "Carbon dioxide, total [Moles/volume] in Serum or Plasma"
            }
          ],
          "text": "Carbon dioxide, total [Moles/volume] in Serum or Plasma"
        },
        "valueQuantity": {
          "system": "http://unitsofmeasure.org",
          "value": 22.2,
          "unit": "mmol/L",
          "code": "mmol/L"
        },
        "referenceRange": [
          {
            "low": {
              "value": 22,
              "code": "mmol/L",
              "system": "http://unitsofmeasure.org"
            }
          },
          {
            "high": {
              "value": 32,
              "code": "mmol/L",
              "system": "http://unitsofmeasure.org"
            }
          }
        ],
        "text": {
          "status": "generated",
          "div": "<div xmlns=\"http://www.w3.org/1999/xhtml\"><table class=\"hl7__eu__lab__report\"><tr><th>Test</th><th>13-Oct-2015</th><th>Reference&#xA0;Range</th><th>Unit</th></tr><tr><td>Carbon dioxide, total [Moles/volume] in Serum or Plasma</td><td>22.2</td><td>22 - 32</td><td></td><td>mmol/L</td></tr></table></div>"
        },
        "status": "final",
        "subject": {
          "reference": "urn:uuid:318c2a38-da5f-43b5-b5ba-c61e37ea059c",
          "display": "Meaghan Neary"
        },
        "effectiveDateTime": "2015-10-12T22:11:04Z",
        "specimen": {
          "reference": "urn:uuid:79f08d98-d46e-4b6e-b793-e13802567313"
        }
      }
    },
    {
      "fullUrl": "urn:uuid:44193dc3-1287-4277-92cd-40efe31c6f37",
      "resource": {
        "resourceType": "Observation",
        "id": "44193dc3-1287-4277-92cd-40efe31c6f37",
        "meta": {
          "profile": [
            "http://hl7.eu/fhir/laboratory/StructureDefinition/Observation-resultslab-eu-lab"
          ]
        },
        "performer": [
          {
            "display": "The Central European Lab"
          }
        ],
        "category": [
          {
            "coding": [
              {
                "system": "http://terminology.hl7.org/CodeSystem/observation-category",
                "code": "laboratory"
              }
            ]
          }
        ],
        "code": {
          "coding": [
            {
              "code": "5767-9",
              "system": "http://loinc.org",
              "display": "Appearance of Urine"
            }
          ],
          "text": "Appearance of Urine"
        },
        "text": {
          "status": "generated",
          "div": "<div xmlns=\"http://www.w3.org/1999/xhtml\"><table class=\"hl7__eu__lab__report\"><tr><th>Test</th><th>13-Oct-2015</th><th>Reference&#xA0;Range</th><th>Unit</th></tr><tr><td>Appearance of Urine</td></tr></table></div>"
        },
        "status": "final",
        "subject": {
          "reference": "urn:uuid:318c2a38-da5f-43b5-b5ba-c61e37ea059c",
          "display": "Meaghan Neary"
        },
        "effectiveDateTime": "2015-10-12T22:11:04Z",
        "specimen": {
          "reference": "urn:uuid:307474f9-9d4f-4058-9bdf-22f08a0aa2cd"
        }
      }
    },
    {
      "fullUrl": "urn:uuid:b9e83e28-be3b-4a75-8033-d99d373b32f0",
      "resource": {
        "resourceType": "Observation",
        "id": "b9e83e28-be3b-4a75-8033-d99d373b32f0",
        "meta": {
          "profile": [
            "http://hl7.eu/fhir/laboratory/StructureDefinition/Observation-resultslab-eu-lab"
          ]
        },
        "performer": [
          {
            "display": "The Central European Lab"
          }
        ],
        "category": [
          {
            "coding": [
              {
                "system": "http://terminology.hl7.org/CodeSystem/observation-category",
                "code": "laboratory"
              }
            ]
          }
        ],
        "code": {
          "coding": [
            {
              "code": "34533-0",
              "system": "http://loinc.org",
              "display": "Odor of Urine"
            }
          ],
          "text": "Odor of Urine"
        },
        "text": {
          "status": "generated",
          "div": "<div xmlns=\"http://www.w3.org/1999/xhtml\"><table class=\"hl7__eu__lab__report\"><tr><th>Test</th><th>13-Oct-2015</th><th>Reference&#xA0;Range</th><th>Unit</th></tr><tr><td>Odor of Urine</td></tr></table></div>"
        },
        "status": "final",
        "subject": {
          "reference": "urn:uuid:318c2a38-da5f-43b5-b5ba-c61e37ea059c",
          "display": "Meaghan Neary"
        },
        "effectiveDateTime": "2015-10-12T22:11:04Z",
        "specimen": {
          "reference": "urn:uuid:307474f9-9d4f-4058-9bdf-22f08a0aa2cd"
        }
      }
    },
    {
      "fullUrl": "urn:uuid:3d9d1463-ab4a-4bdc-9a7e-dfb687e5bac0",
      "resource": {
        "resourceType": "Observation",
        "id": "3d9d1463-ab4a-4bdc-9a7e-dfb687e5bac0",
        "meta": {
          "profile": [
            "http://hl7.eu/fhir/laboratory/StructureDefinition/Observation-resultslab-eu-lab"
          ]
        },
        "performer": [
          {
            "display": "The Central European Lab"
          }
        ],
        "category": [
          {
            "coding": [
              {
                "system": "http://terminology.hl7.org/CodeSystem/observation-category",
                "code": "laboratory"
              }
            ]
          }
        ],
        "code": {
          "coding": [
            {
              "code": "32167-9",
              "system": "http://loinc.org",
              "display": "Clarity of Urine"
            }
          ],
          "text": "Clarity of Urine"
        },
        "text": {
          "status": "generated",
          "div": "<div xmlns=\"http://www.w3.org/1999/xhtml\"><table class=\"hl7__eu__lab__report\"><tr><th>Test</th><th>13-Oct-2015</th><th>Reference&#xA0;Range</th><th>Unit</th></tr><tr><td>Clarity of Urine</td></tr></table></div>"
        },
        "status": "final",
        "subject": {
          "reference": "urn:uuid:318c2a38-da5f-43b5-b5ba-c61e37ea059c",
          "display": "Meaghan Neary"
        },
        "effectiveDateTime": "2015-10-12T22:11:04Z",
        "specimen": {
          "reference": "urn:uuid:307474f9-9d4f-4058-9bdf-22f08a0aa2cd"
        }
      }
    },
    {
      "fullUrl": "urn:uuid:03e32e3b-6c05-44ee-ad01-5d4b5b804b0c",
      "resource": {
        "resourceType": "Observation",
        "id": "03e32e3b-6c05-44ee-ad01-5d4b5b804b0c",
        "meta": {
          "profile": [
            "http://hl7.eu/fhir/laboratory/StructureDefinition/Observation-resultslab-eu-lab"
          ]
        },
        "performer": [
          {
            "display": "The Central European Lab"
          }
        ],
        "category": [
          {
            "coding": [
              {
                "system": "http://terminology.hl7.org/CodeSystem/observation-category",
                "code": "laboratory"
              }
            ]
          }
        ],
        "code": {
          "coding": [
            {
              "code": "5778-6",
              "system": "http://loinc.org",
              "display": "Color of Urine"
            }
          ],
          "text": "Color of Urine"
        },
        "text": {
          "status": "generated",
          "div": "<div xmlns=\"http://www.w3.org/1999/xhtml\"><table class=\"hl7__eu__lab__report\"><tr><th>Test</th><th>13-Oct-2015</th><th>Reference&#xA0;Range</th><th>Unit</th></tr><tr><td>Color of Urine</td></tr></table></div>"
        },
        "status": "final",
        "subject": {
          "reference": "urn:uuid:318c2a38-da5f-43b5-b5ba-c61e37ea059c",
          "display": "Meaghan Neary"
        },
        "effectiveDateTime": "2015-10-12T22:11:04Z",
        "specimen": {
          "reference": "urn:uuid:307474f9-9d4f-4058-9bdf-22f08a0aa2cd"
        }
      }
    },
    {
      "fullUrl": "urn:uuid:c3a1f925-d586-47d7-8ea6-34e575aed2d9",
      "resource": {
        "resourceType": "Observation",
        "id": "c3a1f925-d586-47d7-8ea6-34e575aed2d9",
        "meta": {
          "profile": [
            "http://hl7.eu/fhir/laboratory/StructureDefinition/Observation-resultslab-eu-lab"
          ]
        },
        "performer": [
          {
            "display": "The Central European Lab"
          }
        ],
        "category": [
          {
            "coding": [
              {
                "system": "http://terminology.hl7.org/CodeSystem/observation-category",
                "code": "laboratory"
              }
            ]
          }
        ],
        "code": {
          "coding": [
            {
              "code": "5792-7",
              "system": "http://loinc.org",
              "display": "Glucose [Mass/volume] in Urine by Test strip"
            }
          ],
          "text": "Glucose [Mass/volume] in Urine by Test strip"
        },
        "valueQuantity": {
          "system": "http://unitsofmeasure.org",
          "value": 2.5,
          "unit": "mg/dL",
          "code": "mg/dL"
        },
        "referenceRange": [
          {
            "low": {
              "value": 0.8,
              "code": "mg/dL",
              "system": "http://unitsofmeasure.org"
            }
          },
          {
            "high": {
              "value": 0,
              "code": "mg/dL",
              "system": "http://unitsofmeasure.org"
            }
          }
        ],
        "interpretation": [
          {
            "coding": [
              {
                "code": "H",
                "system": "http://terminology.hl7.org/CodeSystem/v3-ObservationInterpretation",
                "display": "High"
              }
            ]
          }
        ],
        "text": {
          "status": "generated",
          "div": "<div xmlns=\"http://www.w3.org/1999/xhtml\"><table class=\"hl7__eu__lab__report\"><tr><th>Test</th><th>13-Oct-2015</th><th>Reference&#xA0;Range</th><th>Unit</th></tr><tr><td>Glucose [Mass/volume] in Urine by Test strip</td><td>2.5</td><td>0.8 - 0</td><td>H</td><td>mg/dL</td></tr></table></div>"
        },
        "status": "final",
        "subject": {
          "reference": "urn:uuid:318c2a38-da5f-43b5-b5ba-c61e37ea059c",
          "display": "Meaghan Neary"
        },
        "effectiveDateTime": "2015-10-12T22:11:04Z",
        "specimen": {
          "reference": "urn:uuid:307474f9-9d4f-4058-9bdf-22f08a0aa2cd"
        }
      }
    },
    {
      "fullUrl": "urn:uuid:df82ad7f-b8fb-4a91-9ad8-8b63ebe6bafd",
      "resource": {
        "resourceType": "Observation",
        "id": "df82ad7f-b8fb-4a91-9ad8-8b63ebe6bafd",
        "meta": {
          "profile": [
            "http://hl7.eu/fhir/laboratory/StructureDefinition/Observation-resultslab-eu-lab"
          ]
        },
        "performer": [
          {
            "display": "The Central European Lab"
          }
        ],
        "category": [
          {
            "coding": [
              {
                "system": "http://terminology.hl7.org/CodeSystem/observation-category",
                "code": "laboratory"
              }
            ]
          }
        ],
        "code": {
          "coding": [
            {
              "code": "25428-4",
              "system": "http://loinc.org",
              "display": "Glucose [Presence] in Urine by Test strip"
            }
          ],
          "text": "Glucose [Presence] in Urine by Test strip"
        },
        "text": {
          "status": "generated",
          "div": "<div xmlns=\"http://www.w3.org/1999/xhtml\"><table class=\"hl7__eu__lab__report\"><tr><th>Test</th><th>13-Oct-2015</th><th>Reference&#xA0;Range</th><th>Unit</th></tr><tr><td>Glucose [Presence] in Urine by Test strip</td></tr></table></div>"
        },
        "status": "final",
        "subject": {
          "reference": "urn:uuid:318c2a38-da5f-43b5-b5ba-c61e37ea059c",
          "display": "Meaghan Neary"
        },
        "effectiveDateTime": "2015-10-12T22:11:04Z",
        "specimen": {
          "reference": "urn:uuid:307474f9-9d4f-4058-9bdf-22f08a0aa2cd"
        }
      }
    },
    {
      "fullUrl": "urn:uuid:32d6278b-e543-4b58-b13f-3f6a1db39cf1",
      "resource": {
        "resourceType": "Observation",
        "id": "32d6278b-e543-4b58-b13f-3f6a1db39cf1",
        "meta": {
          "profile": [
            "http://hl7.eu/fhir/laboratory/StructureDefinition/Observation-resultslab-eu-lab"
          ]
        },
        "performer": [
          {
            "display": "The Central European Lab"
          }
        ],
        "category": [
          {
            "coding": [
              {
                "system": "http://terminology.hl7.org/CodeSystem/observation-category",
                "code": "laboratory"
              }
            ]
          }
        ],
        "code": {
          "coding": [
            {
              "code": "20505-4",
              "system": "http://loinc.org",
              "display": "Bilirubin.total [Mass/volume] in Urine by Test strip"
            }
          ],
          "text": "Bilirubin.total [Mass/volume] in Urine by Test strip"
        },
        "valueQuantity": {
          "system": "http://unitsofmeasure.org",
          "value": 1.4,
          "unit": "mg/dL",
          "code": "mg/dL"
        },
        "referenceRange": [
          {
            "low": {
              "value": 0,
              "code": "mg/dL",
              "system": "http://unitsofmeasure.org"
            }
          },
          {
            "high": {
              "value": 1,
              "code": "mg/dL",
              "system": "http://unitsofmeasure.org"
            }
          }
        ],
        "interpretation": [
          {
            "coding": [
              {
                "code": "H",
                "system": "http://terminology.hl7.org/CodeSystem/v3-ObservationInterpretation",
                "display": "High"
              }
            ]
          }
        ],
        "text": {
          "status": "generated",
          "div": "<div xmlns=\"http://www.w3.org/1999/xhtml\"><table class=\"hl7__eu__lab__report\"><tr><th>Test</th><th>13-Oct-2015</th><th>Reference&#xA0;Range</th><th>Unit</th></tr><tr><td>Bilirubin.total [Mass/volume] in Urine by Test strip</td><td>1.4</td><td>0 - 1</td><td>H</td><td>mg/dL</td></tr></table></div>"
        },
        "status": "final",
        "subject": {
          "reference": "urn:uuid:318c2a38-da5f-43b5-b5ba-c61e37ea059c",
          "display": "Meaghan Neary"
        },
        "effectiveDateTime": "2015-10-12T22:11:04Z",
        "specimen": {
          "reference": "urn:uuid:307474f9-9d4f-4058-9bdf-22f08a0aa2cd"
        }
      }
    },
    {
      "fullUrl": "urn:uuid:4745f2c8-bac4-4596-8dc4-8156e8633dc4",
      "resource": {
        "resourceType": "Observation",
        "id": "4745f2c8-bac4-4596-8dc4-8156e8633dc4",
        "meta": {
          "profile": [
            "http://hl7.eu/fhir/laboratory/StructureDefinition/Observation-resultslab-eu-lab"
          ]
        },
        "performer": [
          {
            "display": "The Central European Lab"
          }
        ],
        "category": [
          {
            "coding": [
              {
                "system": "http://terminology.hl7.org/CodeSystem/observation-category",
                "code": "laboratory"
              }
            ]
          }
        ],
        "code": {
          "coding": [
            {
              "code": "5770-3",
              "system": "http://loinc.org",
              "display": "Bilirubin.total [Presence] in Urine by Test strip"
            }
          ],
          "text": "Bilirubin.total [Presence] in Urine by Test strip"
        },
        "text": {
          "status": "generated",
          "div": "<div xmlns=\"http://www.w3.org/1999/xhtml\"><table class=\"hl7__eu__lab__report\"><tr><th>Test</th><th>13-Oct-2015</th><th>Reference&#xA0;Range</th><th>Unit</th></tr><tr><td>Bilirubin.total [Presence] in Urine by Test strip</td></tr></table></div>"
        },
        "status": "final",
        "subject": {
          "reference": "urn:uuid:318c2a38-da5f-43b5-b5ba-c61e37ea059c",
          "display": "Meaghan Neary"
        },
        "effectiveDateTime": "2015-10-12T22:11:04Z",
        "specimen": {
          "reference": "urn:uuid:307474f9-9d4f-4058-9bdf-22f08a0aa2cd"
        }
      }
    },
    {
      "fullUrl": "urn:uuid:9f720188-0498-449e-bb91-6e41d8b705ee",
      "resource": {
        "resourceType": "Observation",
        "id": "9f720188-0498-449e-bb91-6e41d8b705ee",
        "meta": {
          "profile": [
            "http://hl7.eu/fhir/laboratory/StructureDefinition/Observation-resultslab-eu-lab"
          ]
        },
        "performer": [
          {
            "display": "The Central European Lab"
          }
        ],
        "category": [
          {
            "coding": [
              {
                "system": "http://terminology.hl7.org/CodeSystem/observation-category",
                "code": "laboratory"
              }
            ]
          }
        ],
        "code": {
          "coding": [
            {
              "code": "5797-6",
              "system": "http://loinc.org",
              "display": "Ketones [Mass/volume] in Urine by Test strip"
            }
          ],
          "text": "Ketones [Mass/volume] in Urine by Test strip"
        },
        "valueQuantity": {
          "system": "http://unitsofmeasure.org",
          "value": 4.6,
          "unit": "mg/dL",
          "code": "mg/dL"
        },
        "referenceRange": [
          {
            "low": {
              "value": 0,
              "code": "mg/dL",
              "system": "http://unitsofmeasure.org"
            }
          },
          {
            "high": {
              "value": 4,
              "code": "mg/dL",
              "system": "http://unitsofmeasure.org"
            }
          }
        ],
        "interpretation": [
          {
            "coding": [
              {
                "code": "H",
                "system": "http://terminology.hl7.org/CodeSystem/v3-ObservationInterpretation",
                "display": "High"
              }
            ]
          }
        ],
        "text": {
          "status": "generated",
          "div": "<div xmlns=\"http://www.w3.org/1999/xhtml\"><table class=\"hl7__eu__lab__report\"><tr><th>Test</th><th>13-Oct-2015</th><th>Reference&#xA0;Range</th><th>Unit</th></tr><tr><td>Ketones [Mass/volume] in Urine by Test strip</td><td>4.6</td><td>0 - 4</td><td>H</td><td>mg/dL</td></tr></table></div>"
        },
        "status": "final",
        "subject": {
          "reference": "urn:uuid:318c2a38-da5f-43b5-b5ba-c61e37ea059c",
          "display": "Meaghan Neary"
        },
        "effectiveDateTime": "2015-10-12T22:11:04Z",
        "specimen": {
          "reference": "urn:uuid:307474f9-9d4f-4058-9bdf-22f08a0aa2cd"
        }
      }
    },
    {
      "fullUrl": "urn:uuid:5196aefd-ebe1-4b06-8d1f-ec97dec2b404",
      "resource": {
        "resourceType": "Observation",
        "id": "5196aefd-ebe1-4b06-8d1f-ec97dec2b404",
        "meta": {
          "profile": [
            "http://hl7.eu/fhir/laboratory/StructureDefinition/Observation-resultslab-eu-lab"
          ]
        },
        "performer": [
          {
            "display": "The Central European Lab"
          }
        ],
        "category": [
          {
            "coding": [
              {
                "system": "http://terminology.hl7.org/CodeSystem/observation-category",
                "code": "laboratory"
              }
            ]
          }
        ],
        "code": {
          "coding": [
            {
              "code": "2514-8",
              "system": "http://loinc.org",
              "display": "Ketones [Presence] in Urine by Test strip"
            }
          ],
          "text": "Ketones [Presence] in Urine by Test strip"
        },
        "text": {
          "status": "generated",
          "div": "<div xmlns=\"http://www.w3.org/1999/xhtml\"><table class=\"hl7__eu__lab__report\"><tr><th>Test</th><th>13-Oct-2015</th><th>Reference&#xA0;Range</th><th>Unit</th></tr><tr><td>Ketones [Presence] in Urine by Test strip</td></tr></table></div>"
        },
        "status": "final",
        "subject": {
          "reference": "urn:uuid:318c2a38-da5f-43b5-b5ba-c61e37ea059c",
          "display": "Meaghan Neary"
        },
        "effectiveDateTime": "2015-10-12T22:11:04Z",
        "specimen": {
          "reference": "urn:uuid:307474f9-9d4f-4058-9bdf-22f08a0aa2cd"
        }
      }
    },
    {
      "fullUrl": "urn:uuid:5cacda43-6846-43f2-9195-c976d1d33134",
      "resource": {
        "resourceType": "Observation",
        "id": "5cacda43-6846-43f2-9195-c976d1d33134",
        "meta": {
          "profile": [
            "http://hl7.eu/fhir/laboratory/StructureDefinition/Observation-resultslab-eu-lab"
          ]
        },
        "performer": [
          {
            "display": "The Central European Lab"
          }
        ],
        "category": [
          {
            "coding": [
              {
                "system": "http://terminology.hl7.org/CodeSystem/observation-category",
                "code": "laboratory"
              }
            ]
          }
        ],
        "code": {
          "coding": [
            {
              "code": "5811-5",
              "system": "http://loinc.org",
              "display": "Specific gravity of Urine by Test strip"
            }
          ],
          "text": "Specific gravity of Urine by Test strip"
        },
        "valueQuantity": {
          "system": "http://unitsofmeasure.org",
          "value": 1,
          "unit": "{nominal}",
          "code": "{nominal}"
        },
        "referenceRange": [
          {
            "low": {
              "value": 1.005,
              "code": "g/mL",
              "system": "http://unitsofmeasure.org"
            }
          },
          {
            "high": {
              "value": 1.03,
              "code": "g/mL",
              "system": "http://unitsofmeasure.org"
            }
          }
        ],
        "interpretation": [
          {
            "coding": [
              {
                "code": "L",
                "system": "http://terminology.hl7.org/CodeSystem/v3-ObservationInterpretation",
                "display": "Low"
              }
            ]
          }
        ],
        "text": {
          "status": "generated",
          "div": "<div xmlns=\"http://www.w3.org/1999/xhtml\"><table class=\"hl7__eu__lab__report\"><tr><th>Test</th><th>13-Oct-2015</th><th>Reference&#xA0;Range</th><th>Unit</th></tr><tr><td>Specific gravity of Urine by Test strip</td><td>1.0</td><td>1.005 - 1.03</td><td>L</td><td>{nominal}</td></tr></table></div>"
        },
        "status": "final",
        "subject": {
          "reference": "urn:uuid:318c2a38-da5f-43b5-b5ba-c61e37ea059c",
          "display": "Meaghan Neary"
        },
        "effectiveDateTime": "2015-10-12T22:11:04Z",
        "specimen": {
          "reference": "urn:uuid:307474f9-9d4f-4058-9bdf-22f08a0aa2cd"
        }
      }
    },
    {
      "fullUrl": "urn:uuid:ee1b250e-f5d7-4770-8e53-7fd5677a62e0",
      "resource": {
        "resourceType": "Observation",
        "id": "ee1b250e-f5d7-4770-8e53-7fd5677a62e0",
        "meta": {
          "profile": [
            "http://hl7.eu/fhir/laboratory/StructureDefinition/Observation-resultslab-eu-lab"
          ]
        },
        "performer": [
          {
            "display": "The Central European Lab"
          }
        ],
        "category": [
          {
            "coding": [
              {
                "system": "http://terminology.hl7.org/CodeSystem/observation-category",
                "code": "laboratory"
              }
            ]
          }
        ],
        "code": {
          "coding": [
            {
              "code": "5803-2",
              "system": "http://loinc.org",
              "display": "pH of Urine by Test strip"
            }
          ],
          "text": "pH of Urine by Test strip"
        },
        "valueQuantity": {
          "system": "http://unitsofmeasure.org",
          "value": 6.3,
          "unit": "pH",
          "code": "pH"
        },
        "referenceRange": [
          {
            "low": {
              "value": 4.6,
              "code": "pH",
              "system": "http://unitsofmeasure.org"
            }
          },
          {
            "high": {
              "value": 7,
              "code": "pH",
              "system": "http://unitsofmeasure.org"
            }
          }
        ],
        "text": {
          "status": "generated",
          "div": "<div xmlns=\"http://www.w3.org/1999/xhtml\"><table class=\"hl7__eu__lab__report\"><tr><th>Test</th><th>13-Oct-2015</th><th>Reference&#xA0;Range</th><th>Unit</th></tr><tr><td>pH of Urine by Test strip</td><td>6.3</td><td>4.6 - 7</td><td></td><td>pH</td></tr></table></div>"
        },
        "status": "final",
        "subject": {
          "reference": "urn:uuid:318c2a38-da5f-43b5-b5ba-c61e37ea059c",
          "display": "Meaghan Neary"
        },
        "effectiveDateTime": "2015-10-12T22:11:04Z",
        "specimen": {
          "reference": "urn:uuid:307474f9-9d4f-4058-9bdf-22f08a0aa2cd"
        }
      }
    },
    {
      "fullUrl": "urn:uuid:b47147c7-0ebb-4394-927e-d37f021aef51",
      "resource": {
        "resourceType": "Observation",
        "id": "b47147c7-0ebb-4394-927e-d37f021aef51",
        "meta": {
          "profile": [
            "http://hl7.eu/fhir/laboratory/StructureDefinition/Observation-resultslab-eu-lab"
          ]
        },
        "performer": [
          {
            "display": "The Central European Lab"
          }
        ],
        "category": [
          {
            "coding": [
              {
                "system": "http://terminology.hl7.org/CodeSystem/observation-category",
                "code": "laboratory"
              }
            ]
          }
        ],
        "code": {
          "coding": [
            {
              "code": "5804-0",
              "system": "http://loinc.org",
              "display": "Protein [Mass/volume] in Urine by Test strip"
            }
          ],
          "text": "Protein [Mass/volume] in Urine by Test strip"
        },
        "valueQuantity": {
          "system": "http://unitsofmeasure.org",
          "value": 305.3,
          "unit": "mg/dL",
          "code": "mg/dL"
        },
        "referenceRange": [
          {
            "low": {
              "value": 0,
              "code": "mg/dL",
              "system": "http://unitsofmeasure.org"
            }
          },
          {
            "high": {
              "value": 14,
              "code": "mg/dL",
              "system": "http://unitsofmeasure.org"
            }
          }
        ],
        "interpretation": [
          {
            "coding": [
              {
                "code": "H",
                "system": "http://terminology.hl7.org/CodeSystem/v3-ObservationInterpretation",
                "display": "High"
              }
            ]
          }
        ],
        "text": {
          "status": "generated",
          "div": "<div xmlns=\"http://www.w3.org/1999/xhtml\"><table class=\"hl7__eu__lab__report\"><tr><th>Test</th><th>13-Oct-2015</th><th>Reference&#xA0;Range</th><th>Unit</th></tr><tr><td>Protein [Mass/volume] in Urine by Test strip</td><td>305.3</td><td>0 - 14</td><td>H</td><td>mg/dL</td></tr></table></div>"
        },
        "status": "final",
        "subject": {
          "reference": "urn:uuid:318c2a38-da5f-43b5-b5ba-c61e37ea059c",
          "display": "Meaghan Neary"
        },
        "effectiveDateTime": "2015-10-12T22:11:04Z",
        "specimen": {
          "reference": "urn:uuid:307474f9-9d4f-4058-9bdf-22f08a0aa2cd"
        }
      }
    },
    {
      "fullUrl": "urn:uuid:7b5b001b-6904-4851-a632-319e96732e4b",
      "resource": {
        "resourceType": "Observation",
        "id": "7b5b001b-6904-4851-a632-319e96732e4b",
        "meta": {
          "profile": [
            "http://hl7.eu/fhir/laboratory/StructureDefinition/Observation-resultslab-eu-lab"
          ]
        },
        "performer": [
          {
            "display": "The Central European Lab"
          }
        ],
        "category": [
          {
            "coding": [
              {
                "system": "http://terminology.hl7.org/CodeSystem/observation-category",
                "code": "laboratory"
              }
            ]
          }
        ],
        "code": {
          "coding": [
            {
              "code": "20454-5",
              "system": "http://loinc.org",
              "display": "Protein [Presence] in Urine by Test strip"
            }
          ],
          "text": "Protein [Presence] in Urine by Test strip"
        },
        "text": {
          "status": "generated",
          "div": "<div xmlns=\"http://www.w3.org/1999/xhtml\"><table class=\"hl7__eu__lab__report\"><tr><th>Test</th><th>13-Oct-2015</th><th>Reference&#xA0;Range</th><th>Unit</th></tr><tr><td>Protein [Presence] in Urine by Test strip</td></tr></table></div>"
        },
        "status": "final",
        "subject": {
          "reference": "urn:uuid:318c2a38-da5f-43b5-b5ba-c61e37ea059c",
          "display": "Meaghan Neary"
        },
        "effectiveDateTime": "2015-10-12T22:11:04Z",
        "specimen": {
          "reference": "urn:uuid:307474f9-9d4f-4058-9bdf-22f08a0aa2cd"
        }
      }
    },
    {
      "fullUrl": "urn:uuid:75f2ba04-7206-4225-b057-001bc42c3c69",
      "resource": {
        "resourceType": "Observation",
        "id": "75f2ba04-7206-4225-b057-001bc42c3c69",
        "meta": {
          "profile": [
            "http://hl7.eu/fhir/laboratory/StructureDefinition/Observation-resultslab-eu-lab"
          ]
        },
        "performer": [
          {
            "display": "The Central European Lab"
          }
        ],
        "category": [
          {
            "coding": [
              {
                "system": "http://terminology.hl7.org/CodeSystem/observation-category",
                "code": "laboratory"
              }
            ]
          }
        ],
        "code": {
          "coding": [
            {
              "code": "5802-4",
              "system": "http://loinc.org",
              "display": "Nitrite [Presence] in Urine by Test strip"
            }
          ],
          "text": "Nitrite [Presence] in Urine by Test strip"
        },
        "text": {
          "status": "generated",
          "div": "<div xmlns=\"http://www.w3.org/1999/xhtml\"><table class=\"hl7__eu__lab__report\"><tr><th>Test</th><th>13-Oct-2015</th><th>Reference&#xA0;Range</th><th>Unit</th></tr><tr><td>Nitrite [Presence] in Urine by Test strip</td></tr></table></div>"
        },
        "status": "final",
        "subject": {
          "reference": "urn:uuid:318c2a38-da5f-43b5-b5ba-c61e37ea059c",
          "display": "Meaghan Neary"
        },
        "effectiveDateTime": "2015-10-12T22:11:04Z",
        "specimen": {
          "reference": "urn:uuid:307474f9-9d4f-4058-9bdf-22f08a0aa2cd"
        }
      }
    },
    {
      "fullUrl": "urn:uuid:2c500322-bfc2-45f5-9e78-bfb60efa3458",
      "resource": {
        "resourceType": "Observation",
        "id": "2c500322-bfc2-45f5-9e78-bfb60efa3458",
        "meta": {
          "profile": [
            "http://hl7.eu/fhir/laboratory/StructureDefinition/Observation-resultslab-eu-lab"
          ]
        },
        "performer": [
          {
            "display": "The Central European Lab"
          }
        ],
        "category": [
          {
            "coding": [
              {
                "system": "http://terminology.hl7.org/CodeSystem/observation-category",
                "code": "laboratory"
              }
            ]
          }
        ],
        "code": {
          "coding": [
            {
              "code": "5794-3",
              "system": "http://loinc.org",
              "display": "Hemoglobin [Presence] in Urine by Test strip"
            }
          ],
          "text": "Hemoglobin [Presence] in Urine by Test strip"
        },
        "text": {
          "status": "generated",
          "div": "<div xmlns=\"http://www.w3.org/1999/xhtml\"><table class=\"hl7__eu__lab__report\"><tr><th>Test</th><th>13-Oct-2015</th><th>Reference&#xA0;Range</th><th>Unit</th></tr><tr><td>Hemoglobin [Presence] in Urine by Test strip</td></tr></table></div>"
        },
        "status": "final",
        "subject": {
          "reference": "urn:uuid:318c2a38-da5f-43b5-b5ba-c61e37ea059c",
          "display": "Meaghan Neary"
        },
        "effectiveDateTime": "2015-10-12T22:11:04Z",
        "specimen": {
          "reference": "urn:uuid:307474f9-9d4f-4058-9bdf-22f08a0aa2cd"
        }
      }
    },
    {
      "fullUrl": "urn:uuid:73b42c5b-8dd1-4e71-a89b-01ac4c23412b",
      "resource": {
        "resourceType": "Observation",
        "id": "73b42c5b-8dd1-4e71-a89b-01ac4c23412b",
        "meta": {
          "profile": [
            "http://hl7.eu/fhir/laboratory/StructureDefinition/Observation-resultslab-eu-lab"
          ]
        },
        "performer": [
          {
            "display": "The Central European Lab"
          }
        ],
        "category": [
          {
            "coding": [
              {
                "system": "http://terminology.hl7.org/CodeSystem/observation-category",
                "code": "laboratory"
              }
            ]
          }
        ],
        "code": {
          "coding": [
            {
              "code": "5799-2",
              "system": "http://loinc.org",
              "display": "Leukocyte esterase [Presence] in Urine by Test strip"
            }
          ],
          "text": "Leukocyte esterase [Presence] in Urine by Test strip"
        },
        "text": {
          "status": "generated",
          "div": "<div xmlns=\"http://www.w3.org/1999/xhtml\"><table class=\"hl7__eu__lab__report\"><tr><th>Test</th><th>13-Oct-2015</th><th>Reference&#xA0;Range</th><th>Unit</th></tr><tr><td>Leukocyte esterase [Presence] in Urine by Test strip</td></tr></table></div>"
        },
        "status": "final",
        "subject": {
          "reference": "urn:uuid:318c2a38-da5f-43b5-b5ba-c61e37ea059c",
          "display": "Meaghan Neary"
        },
        "effectiveDateTime": "2015-10-12T22:11:04Z",
        "specimen": {
          "reference": "urn:uuid:307474f9-9d4f-4058-9bdf-22f08a0aa2cd"
        }
      }
    },
    {
      "fullUrl": "urn:uuid:0ee5815e-7415-4c26-bf00-2aa5e95fb9f4",
      "resource": {
        "resourceType": "Observation",
        "id": "0ee5815e-7415-4c26-bf00-2aa5e95fb9f4",
        "meta": {
          "profile": [
            "http://hl7.eu/fhir/laboratory/StructureDefinition/Observation-resultslab-eu-lab"
          ]
        },
        "performer": [
          {
            "display": "The Central European Lab"
          }
        ],
        "category": [
          {
            "coding": [
              {
                "system": "http://terminology.hl7.org/CodeSystem/observation-category",
                "code": "laboratory"
              }
            ]
          }
        ],
        "code": {
          "coding": [
            {
              "code": "4548-4",
              "system": "http://loinc.org",
              "display": "Hemoglobin A1c/Hemoglobin.total in Blood"
            }
          ],
          "text": "Hemoglobin A1c/Hemoglobin.total in Blood"
        },
        "valueQuantity": {
          "system": "http://unitsofmeasure.org",
          "value": 3.4,
          "unit": "%",
          "code": "%"
        },
        "referenceRange": [
          {
            "low": {
              "value": 4,
              "code": "%",
              "system": "http://unitsofmeasure.org"
            }
          },
          {
            "high": {
              "value": 6.4,
              "code": "%",
              "system": "http://unitsofmeasure.org"
            }
          }
        ],
        "interpretation": [
          {
            "coding": [
              {
                "code": "L",
                "system": "http://terminology.hl7.org/CodeSystem/v3-ObservationInterpretation",
                "display": "Low"
              }
            ]
          }
        ],
        "text": {
          "status": "generated",
          "div": "<div xmlns=\"http://www.w3.org/1999/xhtml\"><table class=\"hl7__eu__lab__report\"><tr><th>Test</th><th>13-Oct-2015</th><th>Reference&#xA0;Range</th><th>Unit</th></tr><tr><td>Hemoglobin A1c/Hemoglobin.total in Blood</td><td>3.4</td><td>4 - 6.4</td><td>L</td><td>%</td></tr></table></div>"
        },
        "status": "final",
        "subject": {
          "reference": "urn:uuid:318c2a38-da5f-43b5-b5ba-c61e37ea059c",
          "display": "Meaghan Neary"
        },
        "effectiveDateTime": "2015-10-12T22:11:04Z",
        "specimen": {
          "reference": "urn:uuid:5f572ac5-d3be-4036-a4b2-3054f9002fd9"
        }
      }
    },
    {
      "fullUrl": "urn:uuid:e30bb14b-f526-4022-9ba4-a899a3381380",
      "resource": {
        "resourceType": "Observation",
        "id": "e30bb14b-f526-4022-9ba4-a899a3381380",
        "meta": {
          "profile": [
            "http://hl7.eu/fhir/laboratory/StructureDefinition/Observation-resultslab-eu-lab"
          ]
        },
        "performer": [
          {
            "display": "The Central European Lab"
          }
        ],
        "category": [
          {
            "coding": [
              {
                "system": "http://terminology.hl7.org/CodeSystem/observation-category",
                "code": "laboratory"
              }
            ]
          }
        ],
        "code": {
          "coding": [
            {
              "code": "2339-0",
              "system": "http://loinc.org",
              "display": "Glucose [Mass/volume] in Blood"
            }
          ],
          "text": "Glucose [Mass/volume] in Blood"
        },
        "valueQuantity": {
          "system": "http://unitsofmeasure.org",
          "value": 98.4,
          "unit": "mg/dL",
          "code": "mg/dL"
        },
        "referenceRange": [
          {
            "low": {
              "value": 70,
              "code": "mg/dL",
              "system": "http://unitsofmeasure.org"
            }
          },
          {
            "high": {
              "value": 100,
              "code": "mg/dL",
              "system": "http://unitsofmeasure.org"
            }
          }
        ],
        "text": {
          "status": "generated",
          "div": "<div xmlns=\"http://www.w3.org/1999/xhtml\"><table class=\"hl7__eu__lab__report\"><tr><th>Test</th><th>13-Oct-2015</th><th>Reference&#xA0;Range</th><th>Unit</th></tr><tr><td>Glucose [Mass/volume] in Blood</td><td>98.4</td><td>70 - 100</td><td></td><td>mg/dL</td></tr></table></div>"
        },
        "status": "final",
        "subject": {
          "reference": "urn:uuid:318c2a38-da5f-43b5-b5ba-c61e37ea059c",
          "display": "Meaghan Neary"
        },
        "effectiveDateTime": "2015-10-12T22:11:04Z",
        "specimen": {
          "reference": "urn:uuid:5f572ac5-d3be-4036-a4b2-3054f9002fd9"
        }
      }
    },
    {
      "fullUrl": "urn:uuid:0a6a17ae-d655-43b7-9337-2cc0b6d7ef72",
      "resource": {
        "resourceType": "Observation",
        "id": "0a6a17ae-d655-43b7-9337-2cc0b6d7ef72",
        "meta": {
          "profile": [
            "http://hl7.eu/fhir/laboratory/StructureDefinition/Observation-resultslab-eu-lab"
          ]
        },
        "performer": [
          {
            "display": "The Central European Lab"
          }
        ],
        "category": [
          {
            "coding": [
              {
                "system": "http://terminology.hl7.org/CodeSystem/observation-category",
                "code": "laboratory"
              }
            ]
          }
        ],
        "code": {
          "coding": [
            {
              "code": "6299-2",
              "system": "http://loinc.org",
              "display": "Urea nitrogen [Mass/volume] in Blood"
            }
          ],
          "text": "Urea nitrogen [Mass/volume] in Blood"
        },
        "valueQuantity": {
          "system": "http://unitsofmeasure.org",
          "value": 19.4,
          "unit": "mg/dL",
          "code": "mg/dL"
        },
        "referenceRange": [
          {
            "low": {
              "value": 7,
              "code": "mg/dL",
              "system": "http://unitsofmeasure.org"
            }
          },
          {
            "high": {
              "value": 43,
              "code": "mg/dL",
              "system": "http://unitsofmeasure.org"
            }
          }
        ],
        "text": {
          "status": "generated",
          "div": "<div xmlns=\"http://www.w3.org/1999/xhtml\"><table class=\"hl7__eu__lab__report\"><tr><th>Test</th><th>13-Oct-2015</th><th>Reference&#xA0;Range</th><th>Unit</th></tr><tr><td>Urea nitrogen [Mass/volume] in Blood</td><td>19.4</td><td>7 - 43</td><td></td><td>mg/dL</td></tr></table></div>"
        },
        "status": "final",
        "subject": {
          "reference": "urn:uuid:318c2a38-da5f-43b5-b5ba-c61e37ea059c",
          "display": "Meaghan Neary"
        },
        "effectiveDateTime": "2015-10-12T22:11:04Z",
        "specimen": {
          "reference": "urn:uuid:5f572ac5-d3be-4036-a4b2-3054f9002fd9"
        }
      }
    },
    {
      "fullUrl": "urn:uuid:be9b2180-a62d-47a0-8fa6-825104093815",
      "resource": {
        "resourceType": "Observation",
        "id": "be9b2180-a62d-47a0-8fa6-825104093815",
        "meta": {
          "profile": [
            "http://hl7.eu/fhir/laboratory/StructureDefinition/Observation-resultslab-eu-lab"
          ]
        },
        "performer": [
          {
            "display": "The Central European Lab"
          }
        ],
        "category": [
          {
            "coding": [
              {
                "system": "http://terminology.hl7.org/CodeSystem/observation-category",
                "code": "laboratory"
              }
            ]
          }
        ],
        "code": {
          "coding": [
            {
              "code": "38483-4",
              "system": "http://loinc.org",
              "display": "Creatinine [Mass/volume] in Blood"
            }
          ],
          "text": "Creatinine [Mass/volume] in Blood"
        },
        "valueQuantity": {
          "system": "http://unitsofmeasure.org",
          "value": 2.5,
          "unit": "mg/dL",
          "code": "mg/dL"
        },
        "referenceRange": [
          {
            "low": {
              "value": 0.6,
              "code": "mg/dL",
              "system": "http://unitsofmeasure.org"
            }
          },
          {
            "high": {
              "value": 1.1,
              "code": "mg/dL",
              "system": "http://unitsofmeasure.org"
            }
          }
        ],
        "interpretation": [
          {
            "coding": [
              {
                "code": "H",
                "system": "http://terminology.hl7.org/CodeSystem/v3-ObservationInterpretation",
                "display": "High"
              }
            ]
          }
        ],
        "text": {
          "status": "generated",
          "div": "<div xmlns=\"http://www.w3.org/1999/xhtml\"><table class=\"hl7__eu__lab__report\"><tr><th>Test</th><th>13-Oct-2015</th><th>Reference&#xA0;Range</th><th>Unit</th></tr><tr><td>Creatinine [Mass/volume] in Blood</td><td>2.5</td><td>0.6 - 1.1</td><td>H</td><td>mg/dL</td></tr></table></div>"
        },
        "status": "final",
        "subject": {
          "reference": "urn:uuid:318c2a38-da5f-43b5-b5ba-c61e37ea059c",
          "display": "Meaghan Neary"
        },
        "effectiveDateTime": "2015-10-12T22:11:04Z",
        "specimen": {
          "reference": "urn:uuid:5f572ac5-d3be-4036-a4b2-3054f9002fd9"
        }
      }
    },
    {
      "fullUrl": "urn:uuid:343f3f7f-4668-436c-9b92-c82fc67889b4",
      "resource": {
        "resourceType": "Observation",
        "id": "343f3f7f-4668-436c-9b92-c82fc67889b4",
        "meta": {
          "profile": [
            "http://hl7.eu/fhir/laboratory/StructureDefinition/Observation-resultslab-eu-lab"
          ]
        },
        "performer": [
          {
            "display": "The Central European Lab"
          }
        ],
        "category": [
          {
            "coding": [
              {
                "system": "http://terminology.hl7.org/CodeSystem/observation-category",
                "code": "laboratory"
              }
            ]
          }
        ],
        "code": {
          "coding": [
            {
              "code": "49765-1",
              "system": "http://loinc.org",
              "display": "Calcium [Mass/volume] in Blood"
            }
          ],
          "text": "Calcium [Mass/volume] in Blood"
        },
        "valueQuantity": {
          "system": "http://unitsofmeasure.org",
          "value": 10.1,
          "unit": "mg/dL",
          "code": "mg/dL"
        },
        "referenceRange": [
          {
            "low": {
              "value": 8.5,
              "code": "mg/dL",
              "system": "http://unitsofmeasure.org"
            }
          },
          {
            "high": {
              "value": 10.5,
              "code": "mg/dL",
              "system": "http://unitsofmeasure.org"
            }
          }
        ],
        "text": {
          "status": "generated",
          "div": "<div xmlns=\"http://www.w3.org/1999/xhtml\"><table class=\"hl7__eu__lab__report\"><tr><th>Test</th><th>13-Oct-2015</th><th>Reference&#xA0;Range</th><th>Unit</th></tr><tr><td>Calcium [Mass/volume] in Blood</td><td>10.1</td><td>8.5 - 10.5</td><td></td><td>mg/dL</td></tr></table></div>"
        },
        "status": "final",
        "subject": {
          "reference": "urn:uuid:318c2a38-da5f-43b5-b5ba-c61e37ea059c",
          "display": "Meaghan Neary"
        },
        "effectiveDateTime": "2015-10-12T22:11:04Z",
        "specimen": {
          "reference": "urn:uuid:5f572ac5-d3be-4036-a4b2-3054f9002fd9"
        }
      }
    },
    {
      "fullUrl": "urn:uuid:c0fd9f88-3f02-4603-ba63-46d469667d39",
      "resource": {
        "resourceType": "Observation",
        "id": "c0fd9f88-3f02-4603-ba63-46d469667d39",
        "meta": {
          "profile": [
            "http://hl7.eu/fhir/laboratory/StructureDefinition/Observation-resultslab-eu-lab"
          ]
        },
        "performer": [
          {
            "display": "The Central European Lab"
          }
        ],
        "category": [
          {
            "coding": [
              {
                "system": "http://terminology.hl7.org/CodeSystem/observation-category",
                "code": "laboratory"
              }
            ]
          }
        ],
        "code": {
          "coding": [
            {
              "code": "2947-0",
              "system": "http://loinc.org",
              "display": "Sodium [Moles/volume] in Blood"
            }
          ],
          "text": "Sodium [Moles/volume] in Blood"
        },
        "valueQuantity": {
          "system": "http://unitsofmeasure.org",
          "value": 140.5,
          "unit": "mmol/L",
          "code": "mmol/L"
        },
        "referenceRange": [
          {
            "low": {
              "value": 135,
              "code": "mmol/L",
              "system": "http://unitsofmeasure.org"
            }
          },
          {
            "high": {
              "value": 145,
              "code": "mmol/L",
              "system": "http://unitsofmeasure.org"
            }
          }
        ],
        "text": {
          "status": "generated",
          "div": "<div xmlns=\"http://www.w3.org/1999/xhtml\"><table class=\"hl7__eu__lab__report\"><tr><th>Test</th><th>13-Oct-2015</th><th>Reference&#xA0;Range</th><th>Unit</th></tr><tr><td>Sodium [Moles/volume] in Blood</td><td>140.5</td><td>135 - 145</td><td></td><td>mmol/L</td></tr></table></div>"
        },
        "status": "final",
        "subject": {
          "reference": "urn:uuid:318c2a38-da5f-43b5-b5ba-c61e37ea059c",
          "display": "Meaghan Neary"
        },
        "effectiveDateTime": "2015-10-12T22:11:04Z",
        "specimen": {
          "reference": "urn:uuid:5f572ac5-d3be-4036-a4b2-3054f9002fd9"
        }
      }
    },
    {
      "fullUrl": "urn:uuid:33ae2f22-9c07-4a99-80b5-bdb2733c2cef",
      "resource": {
        "resourceType": "Observation",
        "id": "33ae2f22-9c07-4a99-80b5-bdb2733c2cef",
        "meta": {
          "profile": [
            "http://hl7.eu/fhir/laboratory/StructureDefinition/Observation-resultslab-eu-lab"
          ]
        },
        "performer": [
          {
            "display": "The Central European Lab"
          }
        ],
        "category": [
          {
            "coding": [
              {
                "system": "http://terminology.hl7.org/CodeSystem/observation-category",
                "code": "laboratory"
              }
            ]
          }
        ],
        "code": {
          "coding": [
            {
              "code": "6298-4",
              "system": "http://loinc.org",
              "display": "Potassium [Moles/volume] in Blood"
            }
          ],
          "text": "Potassium [Moles/volume] in Blood"
        },
        "valueQuantity": {
          "system": "http://unitsofmeasure.org",
          "value": 5.2,
          "unit": "mmol/L",
          "code": "mmol/L"
        },
        "referenceRange": [
          {
            "low": {
              "value": 3.5,
              "code": "mmol/L",
              "system": "http://unitsofmeasure.org"
            }
          },
          {
            "high": {
              "value": 5.1,
              "code": "mmol/L",
              "system": "http://unitsofmeasure.org"
            }
          }
        ],
        "interpretation": [
          {
            "coding": [
              {
                "code": "H",
                "system": "http://terminology.hl7.org/CodeSystem/v3-ObservationInterpretation",
                "display": "High"
              }
            ]
          }
        ],
        "text": {
          "status": "generated",
          "div": "<div xmlns=\"http://www.w3.org/1999/xhtml\"><table class=\"hl7__eu__lab__report\"><tr><th>Test</th><th>13-Oct-2015</th><th>Reference&#xA0;Range</th><th>Unit</th></tr><tr><td>Potassium [Moles/volume] in Blood</td><td>5.2</td><td>3.5 - 5.1</td><td>H</td><td>mmol/L</td></tr></table></div>"
        },
        "status": "final",
        "subject": {
          "reference": "urn:uuid:318c2a38-da5f-43b5-b5ba-c61e37ea059c",
          "display": "Meaghan Neary"
        },
        "effectiveDateTime": "2015-10-12T22:11:04Z",
        "specimen": {
          "reference": "urn:uuid:5f572ac5-d3be-4036-a4b2-3054f9002fd9"
        }
      }
    },
    {
      "fullUrl": "urn:uuid:32cab460-c222-420e-a547-291d77d3f7fb",
      "resource": {
        "resourceType": "Observation",
        "id": "32cab460-c222-420e-a547-291d77d3f7fb",
        "meta": {
          "profile": [
            "http://hl7.eu/fhir/laboratory/StructureDefinition/Observation-resultslab-eu-lab"
          ]
        },
        "performer": [
          {
            "display": "The Central European Lab"
          }
        ],
        "category": [
          {
            "coding": [
              {
                "system": "http://terminology.hl7.org/CodeSystem/observation-category",
                "code": "laboratory"
              }
            ]
          }
        ],
        "code": {
          "coding": [
            {
              "code": "2069-3",
              "system": "http://loinc.org",
              "display": "Chloride [Moles/volume] in Blood"
            }
          ],
          "text": "Chloride [Moles/volume] in Blood"
        },
        "valueQuantity": {
          "system": "http://unitsofmeasure.org",
          "value": 105,
          "unit": "mmol/L",
          "code": "mmol/L"
        },
        "referenceRange": [
          {
            "low": {
              "value": 98,
              "code": "mmol/L",
              "system": "http://unitsofmeasure.org"
            }
          },
          {
            "high": {
              "value": 108,
              "code": "mmol/L",
              "system": "http://unitsofmeasure.org"
            }
          }
        ],
        "text": {
          "status": "generated",
          "div": "<div xmlns=\"http://www.w3.org/1999/xhtml\"><table class=\"hl7__eu__lab__report\"><tr><th>Test</th><th>13-Oct-2015</th><th>Reference&#xA0;Range</th><th>Unit</th></tr><tr><td>Chloride [Moles/volume] in Blood</td><td>105.0</td><td>98 - 108</td><td></td><td>mmol/L</td></tr></table></div>"
        },
        "status": "final",
        "subject": {
          "reference": "urn:uuid:318c2a38-da5f-43b5-b5ba-c61e37ea059c",
          "display": "Meaghan Neary"
        },
        "effectiveDateTime": "2015-10-12T22:11:04Z",
        "specimen": {
          "reference": "urn:uuid:5f572ac5-d3be-4036-a4b2-3054f9002fd9"
        }
      }
    },
    {
      "fullUrl": "urn:uuid:4d870b0c-ba42-4adb-b44b-ec3dd9ccd7a3",
      "resource": {
        "resourceType": "Observation",
        "id": "4d870b0c-ba42-4adb-b44b-ec3dd9ccd7a3",
        "meta": {
          "profile": [
            "http://hl7.eu/fhir/laboratory/StructureDefinition/Observation-resultslab-eu-lab"
          ]
        },
        "performer": [
          {
            "display": "The Central European Lab"
          }
        ],
        "category": [
          {
            "coding": [
              {
                "system": "http://terminology.hl7.org/CodeSystem/observation-category",
                "code": "laboratory"
              }
            ]
          }
        ],
        "code": {
          "coding": [
            {
              "code": "20565-8",
              "system": "http://loinc.org",
              "display": "Carbon dioxide, total [Moles/volume] in Blood"
            }
          ],
          "text": "Carbon dioxide, total [Moles/volume] in Blood"
        },
        "valueQuantity": {
          "system": "http://unitsofmeasure.org",
          "value": 22.2,
          "unit": "mmol/L",
          "code": "mmol/L"
        },
        "referenceRange": [
          {
            "low": {
              "value": 22,
              "code": "mmol/L",
              "system": "http://unitsofmeasure.org"
            }
          },
          {
            "high": {
              "value": 29,
              "code": "mmol/L",
              "system": "http://unitsofmeasure.org"
            }
          }
        ],
        "text": {
          "status": "generated",
          "div": "<div xmlns=\"http://www.w3.org/1999/xhtml\"><table class=\"hl7__eu__lab__report\"><tr><th>Test</th><th>13-Oct-2015</th><th>Reference&#xA0;Range</th><th>Unit</th></tr><tr><td>Carbon dioxide, total [Moles/volume] in Blood</td><td>22.2</td><td>22 - 29</td><td></td><td>mmol/L</td></tr></table></div>"
        },
        "status": "final",
        "subject": {
          "reference": "urn:uuid:318c2a38-da5f-43b5-b5ba-c61e37ea059c",
          "display": "Meaghan Neary"
        },
        "effectiveDateTime": "2015-10-12T22:11:04Z",
        "specimen": {
          "reference": "urn:uuid:5f572ac5-d3be-4036-a4b2-3054f9002fd9"
        }
      }
    },
    {
      "fullUrl": "urn:uuid:ba4576ea-2bb0-442d-8912-a49ff29007fe",
      "resource": {
        "resourceType": "Device",
        "id": "ba4576ea-2bb0-442d-8912-a49ff29007fe",
        "deviceName": [
          {
            "name": "SYNDERAI Synthetic Generator",
            "type": "manufacturer-name"
          }
        ],
        "version": [
          {
            "value": "5.0"
          }
        ],
        "text": {
          "status": "generated",
          "div": "<div xmlns=\"http://www.w3.org/1999/xhtml\">SYNDERAI Synthetic Generator v5.0</div>"
        },
        "status": "active\"",
        "distinctIdentifier": "synderai-generator-50",
        "manufacturer": "SYNDERAI Project"
      }
    },
    {
      "fullUrl": "urn:uuid:f44f6822-4da3-4356-9c14-7ab40edb9cc7",
      "resource": {
        "resourceType": "Provenance",
        "id": "f44f6822-4da3-4356-9c14-7ab40edb9cc7",
        "target": [
          {
            "reference": "Patient/318c2a38-da5f-43b5-b5ba-c61e37ea059c"
          },
          {
            "reference": "Bundle/38374217-2737-4c0b-a0aa-54ea5741a3b0"
          },
          {
            "reference": "Composition/3aff50f1-1829-4175-a712-c75cb893d7f2"
          },
          {
            "reference": "PractitionerRole/662610be-9c85-42ad-955f-97a1a281c09f"
          },
          {
            "reference": "Practitioner/62727cf7-ac30-48a3-976e-7003e7ff00bf"
          },
          {
            "reference": "PractitionerRole/45c94aab-f032-4d83-861c-7f1a1689cb93"
          },
          {
            "reference": "Organization/86a90e5b-959f-40d8-bf2a-1ef8206bd4ac"
          }
        ],
        "activity": {
          "text": "Synthetic Example Data Generation"
        },
        "policy": [
          "https://synderai.net/synderai-synthetic-data-policy"
        ],
        "agent": [
          {
            "type": {
              "text": "author"
            },
            "who": {
              "reference": "Device/ba4576ea-2bb0-442d-8912-a49ff29007fe"
            }
          }
        ],
        "reason": [
          {
            "text": "Interoperability Testing and Training (non-clinical use)"
          }
        ],
        "text": {
          "status": "generated",
          "div": "<div xmlns=\"http://www.w3.org/1999/xhtml\">Provenance for SYNDERAI Synthetic Example Data Resource</div>"
        },
        "recorded": "2015-10-13T00:11:04Z"
      }
    },
    {
      "fullUrl": "urn:uuid:662610be-9c85-42ad-955f-97a1a281c09f",
      "resource": {
        "resourceType": "PractitionerRole",
        "id": "662610be-9c85-42ad-955f-97a1a281c09f",
        "meta": {
          "profile": [
            "http://hl7.eu/fhir/base/StructureDefinition/practitionerRole-eu"
          ]
        },
        "text": {
          "status": "generated",
          "div": "<div xmlns=\"http://www.w3.org/1999/xhtml\">Laboratory Role Id: 662610be-9c85-42ad-955f-97a1a281c09f</div>"
        },
        "practitioner": {
          "reference": "urn:uuid:62727cf7-ac30-48a3-976e-7003e7ff00bf"
        }
      }
    },
    {
      "fullUrl": "urn:uuid:62727cf7-ac30-48a3-976e-7003e7ff00bf",
      "resource": {
        "resourceType": "Practitioner",
        "id": "62727cf7-ac30-48a3-976e-7003e7ff00bf",
        "meta": {
          "profile": [
            "http://hl7.eu/fhir/base/StructureDefinition/practitioner-eu"
          ]
        },
        "identifier": [
          {
            "assigner": {
              "display": "HL7 Europe"
            },
            "system": "urn:oid:2.16.840.1.113883.2.51.999",
            "value": "cf198d8b-05a4-4271-b95a-caf73b389a84"
          }
        ],
        "name": [
          {
            "prefix": [
              "dr"
            ],
            "given": [
              "Ex"
            ],
            "family": "Ample"
          }
        ],
        "address": [
          {
            "line": [
              "Laboratoire Central Europenne",
              "Boulevard du Jardin Botanique 32"
            ],
            "postalCode": "1000",
            "city": "Brussels",
            "country": "Belgium"
          }
        ],
        "text": {
          "status": "generated",
          "div": "<div xmlns=\"http://www.w3.org/1999/xhtml\">Laboratory: Laboratoire Central Europenne, 1000 Brussels, Belgium</div>"
        }
      }
    }
  ],
  "type": "document",
  "timestamp": "2015-10-13T00:11:04Z"
}
