{
  "resourceType": "Bundle",
  "id": "ca51ca8d-a542-4c3c-a2ab-0e8cca399367",
  "meta": {
    "profile": [
      "http://hl7.eu/fhir/laboratory/StructureDefinition/Bundle-eu-lab"
    ]
  },
  "identifier": {
    "assigner": {
      "display": "HL7 Europe"
    },
    "system": "urn:oid:2.16.840.1.113883.2.51.999",
    "value": "6149ca03-ec12-434c-81f0-a32c0628abe5"
  },
  "entry": [
    {
      "fullUrl": "urn:uuid:66b4feae-c950-4179-9bdc-280d4afb9ba1",
      "resource": {
        "resourceType": "Composition",
        "id": "66b4feae-c950-4179-9bdc-280d4afb9ba1",
        "meta": {
          "profile": [
            "http://hl7.eu/fhir/laboratory/StructureDefinition/Composition-eu-lab"
          ]
        },
        "identifier": {
          "assigner": {
            "display": "HL7 Europe"
          },
          "system": "urn:oid:2.16.840.1.113883.2.51.999",
          "value": "87fe2c45-6eff-47da-b6ec-5dafcb26e990"
        },
        "author": [
          {
            "reference": "urn:uuid:dc317bad-8dc6-4186-bef3-e77852d50da8"
          }
        ],
        "category": [
          {
            "coding": [
              {
                "code": "26436-6",
                "system": "http://loinc.org",
                "display": "Laboratory studies (set)"
              }
            ]
          }
        ],
        "type": {
          "coding": [
            {
              "code": "11502-2",
              "system": "http://loinc.org",
              "display": "Laboratory report"
            }
          ],
          "text": "Laboratory Report"
        },
        "section": [
          {
            "code": {
              "coding": [
                {
                  "code": "26436-6",
                  "system": "http://loinc.org",
                  "display": "Laboratory studies (set)"
                }
              ],
              "text": "Laboratory studies"
            },
            "section": [
              {
                "code": {
                  "coding": [
                    {
                      "code": "$18719-5",
                      "system": "http://loinc.org",
                      "display": "Chemistry studies (set)"
                    }
                  ],
                  "text": "Chemistry"
                },
                "entry": [
                  {
                    "reference": "urn:uuid:3dfbf5eb-3624-4de1-8ed7-e201c175fea1"
                  },
                  {
                    "reference": "urn:uuid:c8aa37e2-4e93-431b-bde5-d34ac3e82e6b"
                  },
                  {
                    "reference": "urn:uuid:0f150944-3c91-449e-ae06-0af3ceac47ee"
                  },
                  {
                    "reference": "urn:uuid:1ea089f8-b3f6-43d0-be2c-1b68736f0915"
                  },
                  {
                    "reference": "urn:uuid:2c98e0f2-5694-4b4c-a119-80287336ffec"
                  },
                  {
                    "reference": "urn:uuid:b0617731-d063-45f1-8e1f-0c2a3dd451e9"
                  },
                  {
                    "reference": "urn:uuid:396da190-cc33-4fd8-8af6-31c8ec53e04e"
                  },
                  {
                    "reference": "urn:uuid:cc7d9b09-7b26-4bcc-ae49-3ffff468727a"
                  },
                  {
                    "reference": "urn:uuid:e504fff7-cb8d-4859-a831-80dbfa628f4c"
                  },
                  {
                    "reference": "urn:uuid:697ce55e-d564-4f5e-a496-15450faeba53"
                  },
                  {
                    "reference": "urn:uuid:92d56a07-52cc-4bc9-a360-9fad275275dd"
                  },
                  {
                    "reference": "urn:uuid:ac305fb5-b35b-41e4-ab67-c8791eaace54"
                  },
                  {
                    "reference": "urn:uuid:15d9c78d-50f0-4716-bf38-022bf1e63100"
                  },
                  {
                    "reference": "urn:uuid:f7dcc7dc-4c68-4013-9c64-76102876f1be"
                  },
                  {
                    "reference": "urn:uuid:0a5b5bb9-b6ea-4a51-a5fa-9f61746ce0b0"
                  },
                  {
                    "reference": "urn:uuid:2421dec8-a492-4b8d-92a6-86d243df64f4"
                  },
                  {
                    "reference": "urn:uuid:6e809228-088d-4515-967d-dbcee019f89e"
                  },
                  {
                    "reference": "urn:uuid:c3e5a3bd-27d6-416e-ac5c-7f30567f3528"
                  }
                ],
                "text": {
                  "status": "generated",
                  "div": "<div xmlns=\"http://www.w3.org/1999/xhtml\"><h3>Chemistry</h3><table class=\"hl7__eu__lab__report\"><thead><tr><th>Test</th><th>02-OCT-2020</th><th>Reference&#xA0;Range</th><th>Unit</th></tr></thead><tbody><tr><td>Glucose [Mass/volume] in Serum or Plasma</td><td>99.6</td><td>70 - 140</td><td>mg/dL</td></tr><tr><td>Urea nitrogen [Mass/volume] in Serum or Plasma</td><td>18.5</td><td>7 - 20</td><td>mg/dL</td></tr><tr><td>Creatinine [Mass/volume] in Serum or Plasma</td><td><strong>2.1 H</strong></td><td>0.9 - 1.3</td><td>mg/dL</td></tr><tr><td>Calcium [Mass/volume] in Serum or Plasma</td><td>10.2</td><td>8.5 - 10.5</td><td>mg/dL</td></tr><tr><td>Sodium [Moles/volume] in Serum or Plasma</td><td>138.5</td><td>135 - 145</td><td>mmol/L</td></tr><tr><td>Potassium [Moles/volume] in Serum or Plasma</td><td>4.8</td><td>3.5 - 5.3</td><td>mmol/L</td></tr><tr><td>Chloride [Moles/volume] in Serum or Plasma</td><td><strong>108.8 H</strong></td><td>98 - 107</td><td>mmol/L</td></tr><tr><td>Carbon dioxide, total [Moles/volume] in Serum or Plasma</td><td>23.0</td><td>22 - 33</td><td>mmol/L</td></tr><tr><td>Ketones [Presence] in Urine by Test strip</td><td>Urine ketone test = ++</td><td></td><td></td></tr><tr><td>Hemoglobin A1c/Hemoglobin.total in Blood</td><td><strong>3.0 L</strong></td><td>4.3 - 6</td><td>%</td></tr><tr><td>Glucose [Mass/volume] in Blood</td><td>99.6</td><td>70 - 140</td><td>mg/dL</td></tr><tr><td>Urea nitrogen [Mass/volume] in Blood</td><td>18.5</td><td>7 - 20</td><td>mg/dL</td></tr><tr><td>Creatinine [Mass/volume] in Blood</td><td><strong>2.7 H</strong></td><td>0.9 - 1.3</td><td>mg/dL</td></tr><tr><td>Calcium [Mass/volume] in Blood</td><td>10.2</td><td>8.5 - 10.5</td><td>mg/dL</td></tr><tr><td>Sodium [Moles/volume] in Blood</td><td>138.5</td><td>135 - 145</td><td>mmol/L</td></tr><tr><td>Potassium [Moles/volume] in Blood</td><td>4.8</td><td>3.5 - 5.1</td><td>mmol/L</td></tr><tr><td>Chloride [Moles/volume] in Blood</td><td><strong>108.8 H</strong></td><td>98 - 108</td><td>mmol/L</td></tr><tr><td>Carbon dioxide, total [Moles/volume] in Blood</td><td>23.0</td><td>22 - 29</td><td>mmol/L</td></tr></tbody></table></div>"
                },
                "title": "Chemistry"
              },
              {
                "code": {
                  "coding": [
                    {
                      "code": "$18729-4",
                      "system": "http://loinc.org",
                      "display": "Urinalysis studies (set)"
                    }
                  ],
                  "text": "Urinalysis"
                },
                "entry": [
                  {
                    "reference": "urn:uuid:f538c57f-b17c-4145-b652-3fbed9890b2e"
                  },
                  {
                    "reference": "urn:uuid:415929a5-e5a5-4cbe-9d68-51b9ccbdb021"
                  },
                  {
                    "reference": "urn:uuid:27eff4a1-447b-4bd1-a5b3-37b670858c88"
                  },
                  {
                    "reference": "urn:uuid:cc66d0da-867a-4d37-8bca-39669575a741"
                  },
                  {
                    "reference": "urn:uuid:e9c27535-c861-4ed6-8b71-d7e4471601f5"
                  },
                  {
                    "reference": "urn:uuid:6d400836-b7f7-4c90-ae51-5cf5c47a6a91"
                  },
                  {
                    "reference": "urn:uuid:1d8b1d78-d7de-4e57-befa-8d140b769973"
                  },
                  {
                    "reference": "urn:uuid:93749420-33a3-4235-bc50-1a93b201f8fd"
                  },
                  {
                    "reference": "urn:uuid:fce01d99-9d39-40f4-be35-f15b51d00941"
                  },
                  {
                    "reference": "urn:uuid:3e4e15de-0059-41ab-94dd-9f91a28d5555"
                  },
                  {
                    "reference": "urn:uuid:60b13639-b622-4105-84a2-d9cd68b76601"
                  },
                  {
                    "reference": "urn:uuid:b259fae7-0d44-4ffc-ade2-112cd6902583"
                  }
                ],
                "text": {
                  "status": "generated",
                  "div": "<div xmlns=\"http://www.w3.org/1999/xhtml\"><h3>Urinalysis</h3><table class=\"hl7__eu__lab__report\"><thead><tr><th>Test</th><th>02-OCT-2020</th><th>Reference&#xA0;Range</th><th>Unit</th></tr></thead><tbody><tr><td>Glucose [Mass/volume] in Urine by Test strip</td><td><strong>1.4 H</strong></td><td>0 - 0.8</td><td>mg/dL</td></tr><tr><td>Glucose [Presence] in Urine by Test strip</td><td>++</td><td></td><td></td></tr><tr><td>Bilirubin.total [Mass/volume] in Urine by Test strip</td><td>0.6</td><td>0 - 1.9</td><td>mg/dL</td></tr><tr><td>Bilirubin.total [Presence] in Urine by Test strip</td><td>Finding of bilirubin in urine</td><td></td><td></td></tr><tr><td>Ketones [Mass/volume] in Urine by Test strip</td><td><strong>5.5 H</strong></td><td>0 - 3</td><td>mg/dL</td></tr><tr><td>Specific gravity of Urine by Test strip</td><td><strong>1.0 L</strong></td><td>1.01 - 1.03</td><td>{nominal}</td></tr><tr><td>pH of Urine by Test strip</td><td>6.9</td><td>4.5 - 7.5</td><td>pH</td></tr><tr><td>Protein [Mass/volume] in Urine by Test strip</td><td><strong>255.4 H</strong></td><td>0 - 149</td><td>mg/dL</td></tr><tr><td>Protein [Presence] in Urine by Test strip</td><td>Urine protein test = ++</td><td></td><td></td></tr><tr><td>Nitrite [Presence] in Urine by Test strip</td><td>Urine nitrite negative</td><td></td><td></td></tr><tr><td>Hemoglobin [Presence] in Urine by Test strip</td><td>Urine blood test = negative</td><td></td><td></td></tr><tr><td>Leukocyte esterase [Presence] in Urine by Test strip</td><td>Urine leukocyte test negative</td><td></td><td></td></tr></tbody></table></div>"
                },
                "title": "Urinalysis"
              },
              {
                "code": {
                  "coding": [
                    {
                      "code": "$LP7846-1",
                      "system": "http://loinc.org",
                      "display": "Specimen information"
                    }
                  ],
                  "text": "Specimen information"
                },
                "entry": [
                  {
                    "reference": "urn:uuid:ebc674cd-e15a-4858-96dc-f97bbe8af02c"
                  },
                  {
                    "reference": "urn:uuid:6b6c70f4-8b91-4417-b443-49a87d378512"
                  },
                  {
                    "reference": "urn:uuid:1c7734fc-ce0f-4272-a7cc-d2e52ffa6601"
                  },
                  {
                    "reference": "urn:uuid:6036e6ee-2ba6-4d25-affa-8b2a118db39f"
                  }
                ],
                "text": {
                  "status": "generated",
                  "div": "<div xmlns=\"http://www.w3.org/1999/xhtml\"><h3>Specimen information</h3><table class=\"hl7__eu__lab__report\"><thead><tr><th>Test</th><th>02-OCT-2020</th><th>Specimen</th><th></th></tr></thead><tbody><tr><td>Appearance of Urine</td><td>Cloudy urine</td><td>Urine</td><td></td></tr><tr><td>Odor of Urine</td><td>Urine smell ammoniacal</td><td>Urine</td><td></td></tr><tr><td>Clarity of Urine</td><td>Translucent</td><td>Urine</td><td></td></tr><tr><td>Color of Urine</td><td>Brown color</td><td>Urine</td><td></td></tr></tbody></table></div>"
                },
                "title": "Specimen information"
              }
            ],
            "title": "Laboratory Report"
          },
          {
            "text": {
              "status": "generated",
              "div": "<div xmlns=\"http://www.w3.org/1999/xhtml\"><h3>Annotation</h3><table class=\"hl7__eu__lab__report\"><tr><th>Conclusion and Recommendations based on this report and previous findings known to us</th></tr><tr><td>The patient shows elevated creatinine, suggesting impaired renal function, and high chloride. Urinalysis reveals proteinuria, glycosuria, ketonuria, low specific gravity, and abnormal urine appearance (cloudy, brown, ammoniacal), but no evidence of infection. HbA1c is low despite glycosuria, possibly due to anemia or recent changes in glucose control. Findings are consistent with renal dysfunction, possible nephrotic syndrome or acute kidney injury, and metabolic derangements. Further clinical correlation and nephrology evaluation are recommended.</td></tr></table></div>"
            },
            "code": {
              "coding": [
                {
                  "system": "http://loinc.org",
                  "code": "48767-8",
                  "display": "Annotation comment"
                }
              ]
            },
            "title": "Annotation comment"
          }
        ],
        "status": "final",
        "subject": {
          "reference": "urn:uuid:d7b0ef64-4457-43af-a9df-ceeb17b21460",
          "display": "Victor Lagarde"
        },
        "date": "2020-10-02T06:48:18Z",
        "title": "Laboratory Report",
        "confidentiality": "N"
      }
    },
    {
      "fullUrl": "urn:uuid:f9d9e525-0bb2-4d01-8bbb-4d3cca8cc5db",
      "resource": {
        "resourceType": "DiagnosticReport",
        "id": "f9d9e525-0bb2-4d01-8bbb-4d3cca8cc5db",
        "meta": {
          "profile": [
            "http://hl7.eu/fhir/laboratory/StructureDefinition/DiagnosticReport-eu-lab"
          ]
        },
        "identifier": [
          {
            "assigner": {
              "display": "HL7 Europe"
            },
            "system": "urn:oid:2.16.840.1.113883.2.51.999",
            "value": "d79d221f-b2e5-4872-8632-60ab1866ffe2"
          }
        ],
        "extension": [
          {
            "url": "http://hl7.org/fhir/5.0/StructureDefinition/extension-DiagnosticReport.composition",
            "valueReference": {
              "reference": "urn:uuid:87fe2c45-6eff-47da-b6ec-5dafcb26e990"
            }
          }
        ],
        "category": [
          {
            "coding": [
              {
                "code": "26436-6",
                "system": "http://loinc.org",
                "display": "Laboratory studies (set)"
              }
            ]
          }
        ],
        "specimen": [
          {
            "reference": "urn:uuid:decbedb3-b621-409f-a60f-a7d6065e54a8"
          },
          {
            "reference": "urn:uuid:0ff1177e-d93d-437f-b996-28e5c1c79c61"
          },
          {
            "reference": "urn:uuid:4a8c0bad-2545-40e7-b375-468a7afe1d1e"
          }
        ],
        "result": [
          {
            "reference": "urn:uuid:3dfbf5eb-3624-4de1-8ed7-e201c175fea1"
          },
          {
            "reference": "urn:uuid:c8aa37e2-4e93-431b-bde5-d34ac3e82e6b"
          },
          {
            "reference": "urn:uuid:0f150944-3c91-449e-ae06-0af3ceac47ee"
          },
          {
            "reference": "urn:uuid:1ea089f8-b3f6-43d0-be2c-1b68736f0915"
          },
          {
            "reference": "urn:uuid:2c98e0f2-5694-4b4c-a119-80287336ffec"
          },
          {
            "reference": "urn:uuid:b0617731-d063-45f1-8e1f-0c2a3dd451e9"
          },
          {
            "reference": "urn:uuid:396da190-cc33-4fd8-8af6-31c8ec53e04e"
          },
          {
            "reference": "urn:uuid:cc7d9b09-7b26-4bcc-ae49-3ffff468727a"
          },
          {
            "reference": "urn:uuid:ebc674cd-e15a-4858-96dc-f97bbe8af02c"
          },
          {
            "reference": "urn:uuid:6b6c70f4-8b91-4417-b443-49a87d378512"
          },
          {
            "reference": "urn:uuid:1c7734fc-ce0f-4272-a7cc-d2e52ffa6601"
          },
          {
            "reference": "urn:uuid:6036e6ee-2ba6-4d25-affa-8b2a118db39f"
          },
          {
            "reference": "urn:uuid:f538c57f-b17c-4145-b652-3fbed9890b2e"
          },
          {
            "reference": "urn:uuid:415929a5-e5a5-4cbe-9d68-51b9ccbdb021"
          },
          {
            "reference": "urn:uuid:27eff4a1-447b-4bd1-a5b3-37b670858c88"
          },
          {
            "reference": "urn:uuid:cc66d0da-867a-4d37-8bca-39669575a741"
          },
          {
            "reference": "urn:uuid:e9c27535-c861-4ed6-8b71-d7e4471601f5"
          },
          {
            "reference": "urn:uuid:e504fff7-cb8d-4859-a831-80dbfa628f4c"
          },
          {
            "reference": "urn:uuid:6d400836-b7f7-4c90-ae51-5cf5c47a6a91"
          },
          {
            "reference": "urn:uuid:1d8b1d78-d7de-4e57-befa-8d140b769973"
          },
          {
            "reference": "urn:uuid:93749420-33a3-4235-bc50-1a93b201f8fd"
          },
          {
            "reference": "urn:uuid:fce01d99-9d39-40f4-be35-f15b51d00941"
          },
          {
            "reference": "urn:uuid:3e4e15de-0059-41ab-94dd-9f91a28d5555"
          },
          {
            "reference": "urn:uuid:60b13639-b622-4105-84a2-d9cd68b76601"
          },
          {
            "reference": "urn:uuid:b259fae7-0d44-4ffc-ade2-112cd6902583"
          },
          {
            "reference": "urn:uuid:697ce55e-d564-4f5e-a496-15450faeba53"
          },
          {
            "reference": "urn:uuid:92d56a07-52cc-4bc9-a360-9fad275275dd"
          },
          {
            "reference": "urn:uuid:ac305fb5-b35b-41e4-ab67-c8791eaace54"
          },
          {
            "reference": "urn:uuid:15d9c78d-50f0-4716-bf38-022bf1e63100"
          },
          {
            "reference": "urn:uuid:f7dcc7dc-4c68-4013-9c64-76102876f1be"
          },
          {
            "reference": "urn:uuid:0a5b5bb9-b6ea-4a51-a5fa-9f61746ce0b0"
          },
          {
            "reference": "urn:uuid:2421dec8-a492-4b8d-92a6-86d243df64f4"
          },
          {
            "reference": "urn:uuid:6e809228-088d-4515-967d-dbcee019f89e"
          },
          {
            "reference": "urn:uuid:c3e5a3bd-27d6-416e-ac5c-7f30567f3528"
          }
        ],
        "status": "registered",
        "code": {
          "coding": [
            {
              "code": "11502-2",
              "system": "http://loinc.org",
              "display": "Laboratory report"
            }
          ]
        },
        "subject": {
          "reference": "urn:uuid:d7b0ef64-4457-43af-a9df-ceeb17b21460",
          "display": "Victor Lagarde"
        }
      }
    },
    {
      "fullUrl": "urn:uuid:d7b0ef64-4457-43af-a9df-ceeb17b21460",
      "resource": {
        "resourceType": "Patient",
        "id": "d7b0ef64-4457-43af-a9df-ceeb17b21460",
        "meta": {
          "security": [
            {
              "system": "http://terminology.hl7.org/CodeSystem/v3-ActReason",
              "code": "HTEST"
            },
            {
              "system": "http://terminology.hl7.org/CodeSystem/v3-ActReason",
              "code": "TRAIN"
            }
          ],
          "tag": [
            {
              "system": "https://synderai.net/fhir/CodeSystem/tags",
              "code": "synthetic",
              "display": "SYNDERAI Synthetic data"
            }
          ],
          "profile": [
            "http://hl7.eu/fhir/base/StructureDefinition/patient-eu-core"
          ]
        },
        "identifier": [
          {
            "type": {
              "coding": [
                {
                  "code": "PT",
                  "system": "http://terminology.hl7.org/CodeSystem/v2-0203"
                }
              ]
            },
            "system": "http://ec.europa.eu/identifier/eci",
            "value": "9925-001801-9"
          },
          {
            "type": {
              "coding": [
                {
                  "code": "MR",
                  "system": "http://terminology.hl7.org/CodeSystem/v2-0203"
                }
              ]
            },
            "system": "http://local.setting.eu/identifier",
            "value": "22c2dfd0-ac57-8833-2532-848f180896a4"
          }
        ],
        "name": [
          {
            "family": "Lagarde"
          },
          {
            "given": [
              "Victor"
            ]
          },
          {
            "text": "Victor Lagarde"
          }
        ],
        "address": [
          {
            "line": [
              "avenue Robert"
            ],
            "use": "home",
            "type": "physical",
            "postalCode": "80300",
            "city": "Albert",
            "country": "France"
          }
        ],
        "telecom": [
          {
            "system": "phone",
            "value": "0177941801"
          }
        ],
        "extension": [
          {
            "url": "http://hl7.org/fhir/StructureDefinition/patient-nationality",
            "valueCodeableConcept": {
              "coding": [
                {
                  "code": "FR",
                  "system": "http://hl7.org/fhir/ValueSet/country"
                }
              ]
            }
          }
        ],
        "text": {
          "status": "generated",
          "div": "<div xmlns=\"http://www.w3.org/1999/xhtml\"><table class=\"hl7__ips\"><tr><td>Victor Lagarde</td><td>male</td><td>31-Aug-1939</td></tr></table></div>"
        },
        "gender": "male",
        "birthDate": "1939-08-31"
      }
    },
    {
      "fullUrl": "urn:uuid:2b9e0027-4578-4a39-a3ae-bd3dca8b1507",
      "resource": {
        "resourceType": "ServiceRequest",
        "id": "2b9e0027-4578-4a39-a3ae-bd3dca8b1507",
        "meta": {
          "profile": [
            "http://hl7.eu/fhir/laboratory/StructureDefinition/ServiceRequest-eu-lab"
          ]
        },
        "identifier": [
          {
            "system": "http://example.org",
            "value": "d68e1d5b-96ec-44d7-9e6d-f2403fd1fb3b"
          }
        ],
        "specimen": [
          {
            "reference": "urn:uuid:decbedb3-b621-409f-a60f-a7d6065e54a8"
          },
          {
            "reference": "urn:uuid:0ff1177e-d93d-437f-b996-28e5c1c79c61"
          },
          {
            "reference": "urn:uuid:4a8c0bad-2545-40e7-b375-468a7afe1d1e"
          }
        ],
        "reasonCode": [
          {
            "coding": [
              {
                "code": "433144002",
                "system": "http://snomed.info/sct",
                "display": "Chronic kidney disease stage 3"
              }
            ]
          },
          {
            "coding": [
              {
                "code": "157141000119108",
                "system": "http://snomed.info/sct",
                "display": "Proteinuria due to type 2 diabetes mellitus"
              }
            ]
          },
          {
            "coding": [
              {
                "code": "431856006",
                "system": "http://snomed.info/sct",
                "display": "Chronic kidney disease stage 2"
              }
            ]
          },
          {
            "coding": [
              {
                "code": "90781000119102",
                "system": "http://snomed.info/sct",
                "display": "Microalbuminuria due to type 2 diabetes mellitus"
              }
            ]
          },
          {
            "coding": [
              {
                "code": "127013003",
                "system": "http://snomed.info/sct",
                "display": "Disorder of kidney due to diabetes mellitus"
              }
            ]
          },
          {
            "coding": [
              {
                "code": "431855005",
                "system": "http://snomed.info/sct",
                "display": "Chronic kidney disease stage 1"
              }
            ]
          },
          {
            "coding": [
              {
                "code": "55822004",
                "system": "http://snomed.info/sct",
                "display": "Hyperlipidemia"
              }
            ]
          },
          {
            "coding": [
              {
                "code": "59621000",
                "system": "http://snomed.info/sct",
                "display": "Essential hypertension"
              }
            ]
          },
          {
            "coding": [
              {
                "code": "237602007",
                "system": "http://snomed.info/sct",
                "display": "Metabolic syndrome X"
              }
            ]
          },
          {
            "coding": [
              {
                "code": "414545008",
                "system": "http://snomed.info/sct",
                "display": "Ischemic heart disease"
              }
            ]
          },
          {
            "coding": [
              {
                "code": "40055000",
                "system": "http://snomed.info/sct",
                "display": "Chronic sinusitis"
              }
            ]
          },
          {
            "coding": [
              {
                "code": "15777000",
                "system": "http://snomed.info/sct",
                "display": "Prediabetes"
              }
            ]
          },
          {
            "coding": [
              {
                "code": "271737000",
                "system": "http://snomed.info/sct",
                "display": "Anemia"
              }
            ]
          }
        ],
        "status": "active",
        "intent": "order",
        "code": {
          "coding": [
            {
              "code": "108252007",
              "system": "http://snomed.info/sct",
              "display": "Laboratory procedure"
            }
          ]
        },
        "subject": {
          "reference": "urn:uuid:d7b0ef64-4457-43af-a9df-ceeb17b21460",
          "display": "Victor Lagarde"
        },
        "requester": {
          "reference": "urn:uuid:df9b169a-1ddb-445d-93f3-42644b4bc98d"
        }
      }
    },
    {
      "fullUrl": "urn:uuid:df9b169a-1ddb-445d-93f3-42644b4bc98d",
      "resource": {
        "resourceType": "PractitionerRole",
        "id": "df9b169a-1ddb-445d-93f3-42644b4bc98d",
        "meta": {
          "profile": [
            "http://hl7.eu/fhir/base/StructureDefinition/practitionerRole-eu"
          ]
        },
        "text": {
          "status": "generated",
          "div": "<div xmlns=\"http://www.w3.org/1999/xhtml\">Provider Role Id: df9b169a-1ddb-445d-93f3-42644b4bc98d</div>"
        },
        "organization": {
          "reference": "urn:uuid:9ddc2def-09ae-452c-a8f9-8be8994e529a"
        }
      }
    },
    {
      "fullUrl": "urn:uuid:9ddc2def-09ae-452c-a8f9-8be8994e529a",
      "resource": {
        "resourceType": "Organization",
        "id": "9ddc2def-09ae-452c-a8f9-8be8994e529a",
        "meta": {
          "profile": [
            "http://hl7.eu/fhir/base/StructureDefinition/organization-eu"
          ]
        },
        "identifier": [
          {
            "assigner": {
              "display": "HL7 Europe"
            },
            "system": "urn:oid:2.16.840.1.113883.2.51.999",
            "value": "f7211106-700c-431a-aea0-2cd13e16b1d0"
          }
        ],
        "address": [
          {
            "city": "Auxerre",
            "postalCode": "89000",
            "country": "France"
          }
        ],
        "text": {
          "status": "generated",
          "div": "<div xmlns=\"http://www.w3.org/1999/xhtml\">Provider Organization: Thiriot Didier (Cardiologie)</div>"
        },
        "name": "Thiriot Didier (Cardiologie)"
      }
    },
    {
      "fullUrl": "urn:uuid:decbedb3-b621-409f-a60f-a7d6065e54a8",
      "resource": {
        "resourceType": "Specimen",
        "id": "decbedb3-b621-409f-a60f-a7d6065e54a8",
        "meta": {
          "profile": [
            "http://hl7.eu/fhir/laboratory/StructureDefinition/Specimen-eu-lab"
          ]
        },
        "collection": {
          "collectedDateTime": "2020-10-02"
        },
        "text": {
          "status": "generated",
          "div": "<div xmlns=\"http://www.w3.org/1999/xhtml\"><table class=\"hl7__eu__lab__report\"><tr><th>Specimen</th><th>Collection Date</th></tr><tr><td>Acellular blood (serum or plasma) specimen</td><td><span class=\"nb\">02-Oct-2020</span></td></tr></table></div>"
        },
        "type": {
          "coding": [
            {
              "code": "122592007",
              "system": "http://snomed.info/sct",
              "display": "Acellular blood (serum or plasma) specimen"
            }
          ]
        }
      }
    },
    {
      "fullUrl": "urn:uuid:0ff1177e-d93d-437f-b996-28e5c1c79c61",
      "resource": {
        "resourceType": "Specimen",
        "id": "0ff1177e-d93d-437f-b996-28e5c1c79c61",
        "meta": {
          "profile": [
            "http://hl7.eu/fhir/laboratory/StructureDefinition/Specimen-eu-lab"
          ]
        },
        "collection": {
          "collectedDateTime": "2020-10-02"
        },
        "text": {
          "status": "generated",
          "div": "<div xmlns=\"http://www.w3.org/1999/xhtml\"><table class=\"hl7__eu__lab__report\"><tr><th>Specimen</th><th>Collection Date</th></tr><tr><td>Urine specimen</td><td><span class=\"nb\">02-Oct-2020</span></td></tr></table></div>"
        },
        "type": {
          "coding": [
            {
              "code": "122575003",
              "system": "http://snomed.info/sct",
              "display": "Urine specimen"
            }
          ]
        }
      }
    },
    {
      "fullUrl": "urn:uuid:4a8c0bad-2545-40e7-b375-468a7afe1d1e",
      "resource": {
        "resourceType": "Specimen",
        "id": "4a8c0bad-2545-40e7-b375-468a7afe1d1e",
        "meta": {
          "profile": [
            "http://hl7.eu/fhir/laboratory/StructureDefinition/Specimen-eu-lab"
          ]
        },
        "collection": {
          "collectedDateTime": "2020-10-02"
        },
        "text": {
          "status": "generated",
          "div": "<div xmlns=\"http://www.w3.org/1999/xhtml\"><table class=\"hl7__eu__lab__report\"><tr><th>Specimen</th><th>Collection Date</th></tr><tr><td>Whole blood specimen (specimen)</td><td><span class=\"nb\">02-Oct-2020</span></td></tr></table></div>"
        },
        "type": {
          "coding": [
            {
              "code": "258580003",
              "system": "http://snomed.info/sct",
              "display": "Whole blood specimen (specimen)"
            }
          ]
        }
      }
    },
    {
      "fullUrl": "urn:uuid:3dfbf5eb-3624-4de1-8ed7-e201c175fea1",
      "resource": {
        "resourceType": "Observation",
        "id": "3dfbf5eb-3624-4de1-8ed7-e201c175fea1",
        "meta": {
          "profile": [
            "http://hl7.eu/fhir/laboratory/StructureDefinition/Observation-resultslab-eu-lab"
          ]
        },
        "performer": [
          {
            "display": "The Central European Lab"
          }
        ],
        "category": [
          {
            "coding": [
              {
                "system": "http://terminology.hl7.org/CodeSystem/observation-category",
                "code": "laboratory"
              }
            ]
          }
        ],
        "code": {
          "coding": [
            {
              "code": "2345-7",
              "system": "http://loinc.org",
              "display": "Glucose [Mass/volume] in Serum or Plasma"
            }
          ],
          "text": "Glucose [Mass/volume] in Serum or Plasma"
        },
        "valueQuantity": {
          "system": "http://unitsofmeasure.org",
          "value": 99.6,
          "unit": "mg/dL",
          "code": "mg/dL"
        },
        "referenceRange": [
          {
            "low": {
              "value": 70,
              "code": "mg/dL",
              "system": "http://unitsofmeasure.org"
            }
          },
          {
            "high": {
              "value": 140,
              "code": "mg/dL",
              "system": "http://unitsofmeasure.org"
            }
          }
        ],
        "text": {
          "status": "generated",
          "div": "<div xmlns=\"http://www.w3.org/1999/xhtml\"><table class=\"hl7__eu__lab__report\"><tr><th>Test</th><th>02-Oct-2020</th><th>Reference&#xA0;Range</th><th>Unit</th></tr><tr><td>Glucose [Mass/volume] in Serum or Plasma</td><td>99.6</td><td>70 - 140</td><td></td><td>mg/dL</td></tr></table></div>"
        },
        "status": "final",
        "subject": {
          "reference": "urn:uuid:d7b0ef64-4457-43af-a9df-ceeb17b21460",
          "display": "Victor Lagarde"
        },
        "effectiveDateTime": "2020-10-02T04:48:18Z",
        "specimen": {
          "reference": "urn:uuid:decbedb3-b621-409f-a60f-a7d6065e54a8"
        }
      }
    },
    {
      "fullUrl": "urn:uuid:c8aa37e2-4e93-431b-bde5-d34ac3e82e6b",
      "resource": {
        "resourceType": "Observation",
        "id": "c8aa37e2-4e93-431b-bde5-d34ac3e82e6b",
        "meta": {
          "profile": [
            "http://hl7.eu/fhir/laboratory/StructureDefinition/Observation-resultslab-eu-lab"
          ]
        },
        "performer": [
          {
            "display": "The Central European Lab"
          }
        ],
        "category": [
          {
            "coding": [
              {
                "system": "http://terminology.hl7.org/CodeSystem/observation-category",
                "code": "laboratory"
              }
            ]
          }
        ],
        "code": {
          "coding": [
            {
              "code": "3094-0",
              "system": "http://loinc.org",
              "display": "Urea nitrogen [Mass/volume] in Serum or Plasma"
            }
          ],
          "text": "Urea nitrogen [Mass/volume] in Serum or Plasma"
        },
        "valueQuantity": {
          "system": "http://unitsofmeasure.org",
          "value": 18.5,
          "unit": "mg/dL",
          "code": "mg/dL"
        },
        "referenceRange": [
          {
            "low": {
              "value": 7,
              "code": "mg/dL",
              "system": "http://unitsofmeasure.org"
            }
          },
          {
            "high": {
              "value": 20,
              "code": "mg/dL",
              "system": "http://unitsofmeasure.org"
            }
          }
        ],
        "text": {
          "status": "generated",
          "div": "<div xmlns=\"http://www.w3.org/1999/xhtml\"><table class=\"hl7__eu__lab__report\"><tr><th>Test</th><th>02-Oct-2020</th><th>Reference&#xA0;Range</th><th>Unit</th></tr><tr><td>Urea nitrogen [Mass/volume] in Serum or Plasma</td><td>18.5</td><td>7 - 20</td><td></td><td>mg/dL</td></tr></table></div>"
        },
        "status": "final",
        "subject": {
          "reference": "urn:uuid:d7b0ef64-4457-43af-a9df-ceeb17b21460",
          "display": "Victor Lagarde"
        },
        "effectiveDateTime": "2020-10-02T04:48:18Z",
        "specimen": {
          "reference": "urn:uuid:decbedb3-b621-409f-a60f-a7d6065e54a8"
        }
      }
    },
    {
      "fullUrl": "urn:uuid:0f150944-3c91-449e-ae06-0af3ceac47ee",
      "resource": {
        "resourceType": "Observation",
        "id": "0f150944-3c91-449e-ae06-0af3ceac47ee",
        "meta": {
          "profile": [
            "http://hl7.eu/fhir/laboratory/StructureDefinition/Observation-resultslab-eu-lab"
          ]
        },
        "performer": [
          {
            "display": "The Central European Lab"
          }
        ],
        "category": [
          {
            "coding": [
              {
                "system": "http://terminology.hl7.org/CodeSystem/observation-category",
                "code": "laboratory"
              }
            ]
          }
        ],
        "code": {
          "coding": [
            {
              "code": "2160-0",
              "system": "http://loinc.org",
              "display": "Creatinine [Mass/volume] in Serum or Plasma"
            }
          ],
          "text": "Creatinine [Mass/volume] in Serum or Plasma"
        },
        "valueQuantity": {
          "system": "http://unitsofmeasure.org",
          "value": 2.1,
          "unit": "mg/dL",
          "code": "mg/dL"
        },
        "referenceRange": [
          {
            "low": {
              "value": 0.9,
              "code": "mg/dL",
              "system": "http://unitsofmeasure.org"
            }
          },
          {
            "high": {
              "value": 1.3,
              "code": "mg/dL",
              "system": "http://unitsofmeasure.org"
            }
          }
        ],
        "interpretation": [
          {
            "coding": [
              {
                "code": "H",
                "system": "http://terminology.hl7.org/CodeSystem/v3-ObservationInterpretation",
                "display": "High"
              }
            ]
          }
        ],
        "text": {
          "status": "generated",
          "div": "<div xmlns=\"http://www.w3.org/1999/xhtml\"><table class=\"hl7__eu__lab__report\"><tr><th>Test</th><th>02-Oct-2020</th><th>Reference&#xA0;Range</th><th>Unit</th></tr><tr><td>Creatinine [Mass/volume] in Serum or Plasma</td><td>2.1</td><td>0.9 - 1.3</td><td>H</td><td>mg/dL</td></tr></table></div>"
        },
        "status": "final",
        "subject": {
          "reference": "urn:uuid:d7b0ef64-4457-43af-a9df-ceeb17b21460",
          "display": "Victor Lagarde"
        },
        "effectiveDateTime": "2020-10-02T04:48:18Z",
        "specimen": {
          "reference": "urn:uuid:decbedb3-b621-409f-a60f-a7d6065e54a8"
        }
      }
    },
    {
      "fullUrl": "urn:uuid:1ea089f8-b3f6-43d0-be2c-1b68736f0915",
      "resource": {
        "resourceType": "Observation",
        "id": "1ea089f8-b3f6-43d0-be2c-1b68736f0915",
        "meta": {
          "profile": [
            "http://hl7.eu/fhir/laboratory/StructureDefinition/Observation-resultslab-eu-lab"
          ]
        },
        "performer": [
          {
            "display": "The Central European Lab"
          }
        ],
        "category": [
          {
            "coding": [
              {
                "system": "http://terminology.hl7.org/CodeSystem/observation-category",
                "code": "laboratory"
              }
            ]
          }
        ],
        "code": {
          "coding": [
            {
              "code": "17861-6",
              "system": "http://loinc.org",
              "display": "Calcium [Mass/volume] in Serum or Plasma"
            }
          ],
          "text": "Calcium [Mass/volume] in Serum or Plasma"
        },
        "valueQuantity": {
          "system": "http://unitsofmeasure.org",
          "value": 10.2,
          "unit": "mg/dL",
          "code": "mg/dL"
        },
        "referenceRange": [
          {
            "low": {
              "value": 8.5,
              "code": "mg/dL",
              "system": "http://unitsofmeasure.org"
            }
          },
          {
            "high": {
              "value": 10.5,
              "code": "mg/dL",
              "system": "http://unitsofmeasure.org"
            }
          }
        ],
        "text": {
          "status": "generated",
          "div": "<div xmlns=\"http://www.w3.org/1999/xhtml\"><table class=\"hl7__eu__lab__report\"><tr><th>Test</th><th>02-Oct-2020</th><th>Reference&#xA0;Range</th><th>Unit</th></tr><tr><td>Calcium [Mass/volume] in Serum or Plasma</td><td>10.2</td><td>8.5 - 10.5</td><td></td><td>mg/dL</td></tr></table></div>"
        },
        "status": "final",
        "subject": {
          "reference": "urn:uuid:d7b0ef64-4457-43af-a9df-ceeb17b21460",
          "display": "Victor Lagarde"
        },
        "effectiveDateTime": "2020-10-02T04:48:18Z",
        "specimen": {
          "reference": "urn:uuid:decbedb3-b621-409f-a60f-a7d6065e54a8"
        }
      }
    },
    {
      "fullUrl": "urn:uuid:2c98e0f2-5694-4b4c-a119-80287336ffec",
      "resource": {
        "resourceType": "Observation",
        "id": "2c98e0f2-5694-4b4c-a119-80287336ffec",
        "meta": {
          "profile": [
            "http://hl7.eu/fhir/laboratory/StructureDefinition/Observation-resultslab-eu-lab"
          ]
        },
        "performer": [
          {
            "display": "The Central European Lab"
          }
        ],
        "category": [
          {
            "coding": [
              {
                "system": "http://terminology.hl7.org/CodeSystem/observation-category",
                "code": "laboratory"
              }
            ]
          }
        ],
        "code": {
          "coding": [
            {
              "code": "2951-2",
              "system": "http://loinc.org",
              "display": "Sodium [Moles/volume] in Serum or Plasma"
            }
          ],
          "text": "Sodium [Moles/volume] in Serum or Plasma"
        },
        "valueQuantity": {
          "system": "http://unitsofmeasure.org",
          "value": 138.5,
          "unit": "mmol/L",
          "code": "mmol/L"
        },
        "referenceRange": [
          {
            "low": {
              "value": 135,
              "code": "mmol/L",
              "system": "http://unitsofmeasure.org"
            }
          },
          {
            "high": {
              "value": 145,
              "code": "mmol/L",
              "system": "http://unitsofmeasure.org"
            }
          }
        ],
        "text": {
          "status": "generated",
          "div": "<div xmlns=\"http://www.w3.org/1999/xhtml\"><table class=\"hl7__eu__lab__report\"><tr><th>Test</th><th>02-Oct-2020</th><th>Reference&#xA0;Range</th><th>Unit</th></tr><tr><td>Sodium [Moles/volume] in Serum or Plasma</td><td>138.5</td><td>135 - 145</td><td></td><td>mmol/L</td></tr></table></div>"
        },
        "status": "final",
        "subject": {
          "reference": "urn:uuid:d7b0ef64-4457-43af-a9df-ceeb17b21460",
          "display": "Victor Lagarde"
        },
        "effectiveDateTime": "2020-10-02T04:48:18Z",
        "specimen": {
          "reference": "urn:uuid:decbedb3-b621-409f-a60f-a7d6065e54a8"
        }
      }
    },
    {
      "fullUrl": "urn:uuid:b0617731-d063-45f1-8e1f-0c2a3dd451e9",
      "resource": {
        "resourceType": "Observation",
        "id": "b0617731-d063-45f1-8e1f-0c2a3dd451e9",
        "meta": {
          "profile": [
            "http://hl7.eu/fhir/laboratory/StructureDefinition/Observation-resultslab-eu-lab"
          ]
        },
        "performer": [
          {
            "display": "The Central European Lab"
          }
        ],
        "category": [
          {
            "coding": [
              {
                "system": "http://terminology.hl7.org/CodeSystem/observation-category",
                "code": "laboratory"
              }
            ]
          }
        ],
        "code": {
          "coding": [
            {
              "code": "2823-3",
              "system": "http://loinc.org",
              "display": "Potassium [Moles/volume] in Serum or Plasma"
            }
          ],
          "text": "Potassium [Moles/volume] in Serum or Plasma"
        },
        "valueQuantity": {
          "system": "http://unitsofmeasure.org",
          "value": 4.8,
          "unit": "mmol/L",
          "code": "mmol/L"
        },
        "referenceRange": [
          {
            "low": {
              "value": 3.5,
              "code": "mmol/L",
              "system": "http://unitsofmeasure.org"
            }
          },
          {
            "high": {
              "value": 5.3,
              "code": "mmol/L",
              "system": "http://unitsofmeasure.org"
            }
          }
        ],
        "text": {
          "status": "generated",
          "div": "<div xmlns=\"http://www.w3.org/1999/xhtml\"><table class=\"hl7__eu__lab__report\"><tr><th>Test</th><th>02-Oct-2020</th><th>Reference&#xA0;Range</th><th>Unit</th></tr><tr><td>Potassium [Moles/volume] in Serum or Plasma</td><td>4.8</td><td>3.5 - 5.3</td><td></td><td>mmol/L</td></tr></table></div>"
        },
        "status": "final",
        "subject": {
          "reference": "urn:uuid:d7b0ef64-4457-43af-a9df-ceeb17b21460",
          "display": "Victor Lagarde"
        },
        "effectiveDateTime": "2020-10-02T04:48:18Z",
        "specimen": {
          "reference": "urn:uuid:decbedb3-b621-409f-a60f-a7d6065e54a8"
        }
      }
    },
    {
      "fullUrl": "urn:uuid:396da190-cc33-4fd8-8af6-31c8ec53e04e",
      "resource": {
        "resourceType": "Observation",
        "id": "396da190-cc33-4fd8-8af6-31c8ec53e04e",
        "meta": {
          "profile": [
            "http://hl7.eu/fhir/laboratory/StructureDefinition/Observation-resultslab-eu-lab"
          ]
        },
        "performer": [
          {
            "display": "The Central European Lab"
          }
        ],
        "category": [
          {
            "coding": [
              {
                "system": "http://terminology.hl7.org/CodeSystem/observation-category",
                "code": "laboratory"
              }
            ]
          }
        ],
        "code": {
          "coding": [
            {
              "code": "2075-0",
              "system": "http://loinc.org",
              "display": "Chloride [Moles/volume] in Serum or Plasma"
            }
          ],
          "text": "Chloride [Moles/volume] in Serum or Plasma"
        },
        "valueQuantity": {
          "system": "http://unitsofmeasure.org",
          "value": 108.8,
          "unit": "mmol/L",
          "code": "mmol/L"
        },
        "referenceRange": [
          {
            "low": {
              "value": 98,
              "code": "mmol/L",
              "system": "http://unitsofmeasure.org"
            }
          },
          {
            "high": {
              "value": 107,
              "code": "mmol/L",
              "system": "http://unitsofmeasure.org"
            }
          }
        ],
        "interpretation": [
          {
            "coding": [
              {
                "code": "H",
                "system": "http://terminology.hl7.org/CodeSystem/v3-ObservationInterpretation",
                "display": "High"
              }
            ]
          }
        ],
        "text": {
          "status": "generated",
          "div": "<div xmlns=\"http://www.w3.org/1999/xhtml\"><table class=\"hl7__eu__lab__report\"><tr><th>Test</th><th>02-Oct-2020</th><th>Reference&#xA0;Range</th><th>Unit</th></tr><tr><td>Chloride [Moles/volume] in Serum or Plasma</td><td>108.8</td><td>98 - 107</td><td>H</td><td>mmol/L</td></tr></table></div>"
        },
        "status": "final",
        "subject": {
          "reference": "urn:uuid:d7b0ef64-4457-43af-a9df-ceeb17b21460",
          "display": "Victor Lagarde"
        },
        "effectiveDateTime": "2020-10-02T04:48:18Z",
        "specimen": {
          "reference": "urn:uuid:decbedb3-b621-409f-a60f-a7d6065e54a8"
        }
      }
    },
    {
      "fullUrl": "urn:uuid:cc7d9b09-7b26-4bcc-ae49-3ffff468727a",
      "resource": {
        "resourceType": "Observation",
        "id": "cc7d9b09-7b26-4bcc-ae49-3ffff468727a",
        "meta": {
          "profile": [
            "http://hl7.eu/fhir/laboratory/StructureDefinition/Observation-resultslab-eu-lab"
          ]
        },
        "performer": [
          {
            "display": "The Central European Lab"
          }
        ],
        "category": [
          {
            "coding": [
              {
                "system": "http://terminology.hl7.org/CodeSystem/observation-category",
                "code": "laboratory"
              }
            ]
          }
        ],
        "code": {
          "coding": [
            {
              "code": "2028-9",
              "system": "http://loinc.org",
              "display": "Carbon dioxide, total [Moles/volume] in Serum or Plasma"
            }
          ],
          "text": "Carbon dioxide, total [Moles/volume] in Serum or Plasma"
        },
        "valueQuantity": {
          "system": "http://unitsofmeasure.org",
          "value": 23,
          "unit": "mmol/L",
          "code": "mmol/L"
        },
        "referenceRange": [
          {
            "low": {
              "value": 22,
              "code": "mmol/L",
              "system": "http://unitsofmeasure.org"
            }
          },
          {
            "high": {
              "value": 33,
              "code": "mmol/L",
              "system": "http://unitsofmeasure.org"
            }
          }
        ],
        "text": {
          "status": "generated",
          "div": "<div xmlns=\"http://www.w3.org/1999/xhtml\"><table class=\"hl7__eu__lab__report\"><tr><th>Test</th><th>02-Oct-2020</th><th>Reference&#xA0;Range</th><th>Unit</th></tr><tr><td>Carbon dioxide, total [Moles/volume] in Serum or Plasma</td><td>23.0</td><td>22 - 33</td><td></td><td>mmol/L</td></tr></table></div>"
        },
        "status": "final",
        "subject": {
          "reference": "urn:uuid:d7b0ef64-4457-43af-a9df-ceeb17b21460",
          "display": "Victor Lagarde"
        },
        "effectiveDateTime": "2020-10-02T04:48:18Z",
        "specimen": {
          "reference": "urn:uuid:decbedb3-b621-409f-a60f-a7d6065e54a8"
        }
      }
    },
    {
      "fullUrl": "urn:uuid:ebc674cd-e15a-4858-96dc-f97bbe8af02c",
      "resource": {
        "resourceType": "Observation",
        "id": "ebc674cd-e15a-4858-96dc-f97bbe8af02c",
        "meta": {
          "profile": [
            "http://hl7.eu/fhir/laboratory/StructureDefinition/Observation-resultslab-eu-lab"
          ]
        },
        "performer": [
          {
            "display": "The Central European Lab"
          }
        ],
        "category": [
          {
            "coding": [
              {
                "system": "http://terminology.hl7.org/CodeSystem/observation-category",
                "code": "laboratory"
              }
            ]
          }
        ],
        "code": {
          "coding": [
            {
              "code": "5767-9",
              "system": "http://loinc.org",
              "display": "Appearance of Urine"
            }
          ],
          "text": "Appearance of Urine"
        },
        "text": {
          "status": "generated",
          "div": "<div xmlns=\"http://www.w3.org/1999/xhtml\"><table class=\"hl7__eu__lab__report\"><tr><th>Test</th><th>02-Oct-2020</th><th>Reference&#xA0;Range</th><th>Unit</th></tr><tr><td>Appearance of Urine</td></tr></table></div>"
        },
        "status": "final",
        "subject": {
          "reference": "urn:uuid:d7b0ef64-4457-43af-a9df-ceeb17b21460",
          "display": "Victor Lagarde"
        },
        "effectiveDateTime": "2020-10-02T04:48:18Z",
        "specimen": {
          "reference": "urn:uuid:0ff1177e-d93d-437f-b996-28e5c1c79c61"
        }
      }
    },
    {
      "fullUrl": "urn:uuid:6b6c70f4-8b91-4417-b443-49a87d378512",
      "resource": {
        "resourceType": "Observation",
        "id": "6b6c70f4-8b91-4417-b443-49a87d378512",
        "meta": {
          "profile": [
            "http://hl7.eu/fhir/laboratory/StructureDefinition/Observation-resultslab-eu-lab"
          ]
        },
        "performer": [
          {
            "display": "The Central European Lab"
          }
        ],
        "category": [
          {
            "coding": [
              {
                "system": "http://terminology.hl7.org/CodeSystem/observation-category",
                "code": "laboratory"
              }
            ]
          }
        ],
        "code": {
          "coding": [
            {
              "code": "34533-0",
              "system": "http://loinc.org",
              "display": "Odor of Urine"
            }
          ],
          "text": "Odor of Urine"
        },
        "text": {
          "status": "generated",
          "div": "<div xmlns=\"http://www.w3.org/1999/xhtml\"><table class=\"hl7__eu__lab__report\"><tr><th>Test</th><th>02-Oct-2020</th><th>Reference&#xA0;Range</th><th>Unit</th></tr><tr><td>Odor of Urine</td></tr></table></div>"
        },
        "status": "final",
        "subject": {
          "reference": "urn:uuid:d7b0ef64-4457-43af-a9df-ceeb17b21460",
          "display": "Victor Lagarde"
        },
        "effectiveDateTime": "2020-10-02T04:48:18Z",
        "specimen": {
          "reference": "urn:uuid:0ff1177e-d93d-437f-b996-28e5c1c79c61"
        }
      }
    },
    {
      "fullUrl": "urn:uuid:1c7734fc-ce0f-4272-a7cc-d2e52ffa6601",
      "resource": {
        "resourceType": "Observation",
        "id": "1c7734fc-ce0f-4272-a7cc-d2e52ffa6601",
        "meta": {
          "profile": [
            "http://hl7.eu/fhir/laboratory/StructureDefinition/Observation-resultslab-eu-lab"
          ]
        },
        "performer": [
          {
            "display": "The Central European Lab"
          }
        ],
        "category": [
          {
            "coding": [
              {
                "system": "http://terminology.hl7.org/CodeSystem/observation-category",
                "code": "laboratory"
              }
            ]
          }
        ],
        "code": {
          "coding": [
            {
              "code": "32167-9",
              "system": "http://loinc.org",
              "display": "Clarity of Urine"
            }
          ],
          "text": "Clarity of Urine"
        },
        "text": {
          "status": "generated",
          "div": "<div xmlns=\"http://www.w3.org/1999/xhtml\"><table class=\"hl7__eu__lab__report\"><tr><th>Test</th><th>02-Oct-2020</th><th>Reference&#xA0;Range</th><th>Unit</th></tr><tr><td>Clarity of Urine</td></tr></table></div>"
        },
        "status": "final",
        "subject": {
          "reference": "urn:uuid:d7b0ef64-4457-43af-a9df-ceeb17b21460",
          "display": "Victor Lagarde"
        },
        "effectiveDateTime": "2020-10-02T04:48:18Z",
        "specimen": {
          "reference": "urn:uuid:0ff1177e-d93d-437f-b996-28e5c1c79c61"
        }
      }
    },
    {
      "fullUrl": "urn:uuid:6036e6ee-2ba6-4d25-affa-8b2a118db39f",
      "resource": {
        "resourceType": "Observation",
        "id": "6036e6ee-2ba6-4d25-affa-8b2a118db39f",
        "meta": {
          "profile": [
            "http://hl7.eu/fhir/laboratory/StructureDefinition/Observation-resultslab-eu-lab"
          ]
        },
        "performer": [
          {
            "display": "The Central European Lab"
          }
        ],
        "category": [
          {
            "coding": [
              {
                "system": "http://terminology.hl7.org/CodeSystem/observation-category",
                "code": "laboratory"
              }
            ]
          }
        ],
        "code": {
          "coding": [
            {
              "code": "5778-6",
              "system": "http://loinc.org",
              "display": "Color of Urine"
            }
          ],
          "text": "Color of Urine"
        },
        "text": {
          "status": "generated",
          "div": "<div xmlns=\"http://www.w3.org/1999/xhtml\"><table class=\"hl7__eu__lab__report\"><tr><th>Test</th><th>02-Oct-2020</th><th>Reference&#xA0;Range</th><th>Unit</th></tr><tr><td>Color of Urine</td></tr></table></div>"
        },
        "status": "final",
        "subject": {
          "reference": "urn:uuid:d7b0ef64-4457-43af-a9df-ceeb17b21460",
          "display": "Victor Lagarde"
        },
        "effectiveDateTime": "2020-10-02T04:48:18Z",
        "specimen": {
          "reference": "urn:uuid:0ff1177e-d93d-437f-b996-28e5c1c79c61"
        }
      }
    },
    {
      "fullUrl": "urn:uuid:f538c57f-b17c-4145-b652-3fbed9890b2e",
      "resource": {
        "resourceType": "Observation",
        "id": "f538c57f-b17c-4145-b652-3fbed9890b2e",
        "meta": {
          "profile": [
            "http://hl7.eu/fhir/laboratory/StructureDefinition/Observation-resultslab-eu-lab"
          ]
        },
        "performer": [
          {
            "display": "The Central European Lab"
          }
        ],
        "category": [
          {
            "coding": [
              {
                "system": "http://terminology.hl7.org/CodeSystem/observation-category",
                "code": "laboratory"
              }
            ]
          }
        ],
        "code": {
          "coding": [
            {
              "code": "5792-7",
              "system": "http://loinc.org",
              "display": "Glucose [Mass/volume] in Urine by Test strip"
            }
          ],
          "text": "Glucose [Mass/volume] in Urine by Test strip"
        },
        "valueQuantity": {
          "system": "http://unitsofmeasure.org",
          "value": 1.4,
          "unit": "mg/dL",
          "code": "mg/dL"
        },
        "referenceRange": [
          {
            "low": {
              "value": 0,
              "code": "mg/dL",
              "system": "http://unitsofmeasure.org"
            }
          },
          {
            "high": {
              "value": 0.8,
              "code": "mg/dL",
              "system": "http://unitsofmeasure.org"
            }
          }
        ],
        "interpretation": [
          {
            "coding": [
              {
                "code": "H",
                "system": "http://terminology.hl7.org/CodeSystem/v3-ObservationInterpretation",
                "display": "High"
              }
            ]
          }
        ],
        "text": {
          "status": "generated",
          "div": "<div xmlns=\"http://www.w3.org/1999/xhtml\"><table class=\"hl7__eu__lab__report\"><tr><th>Test</th><th>02-Oct-2020</th><th>Reference&#xA0;Range</th><th>Unit</th></tr><tr><td>Glucose [Mass/volume] in Urine by Test strip</td><td>1.4</td><td>0 - 0.8</td><td>H</td><td>mg/dL</td></tr></table></div>"
        },
        "status": "final",
        "subject": {
          "reference": "urn:uuid:d7b0ef64-4457-43af-a9df-ceeb17b21460",
          "display": "Victor Lagarde"
        },
        "effectiveDateTime": "2020-10-02T04:48:18Z",
        "specimen": {
          "reference": "urn:uuid:0ff1177e-d93d-437f-b996-28e5c1c79c61"
        }
      }
    },
    {
      "fullUrl": "urn:uuid:415929a5-e5a5-4cbe-9d68-51b9ccbdb021",
      "resource": {
        "resourceType": "Observation",
        "id": "415929a5-e5a5-4cbe-9d68-51b9ccbdb021",
        "meta": {
          "profile": [
            "http://hl7.eu/fhir/laboratory/StructureDefinition/Observation-resultslab-eu-lab"
          ]
        },
        "performer": [
          {
            "display": "The Central European Lab"
          }
        ],
        "category": [
          {
            "coding": [
              {
                "system": "http://terminology.hl7.org/CodeSystem/observation-category",
                "code": "laboratory"
              }
            ]
          }
        ],
        "code": {
          "coding": [
            {
              "code": "25428-4",
              "system": "http://loinc.org",
              "display": "Glucose [Presence] in Urine by Test strip"
            }
          ],
          "text": "Glucose [Presence] in Urine by Test strip"
        },
        "text": {
          "status": "generated",
          "div": "<div xmlns=\"http://www.w3.org/1999/xhtml\"><table class=\"hl7__eu__lab__report\"><tr><th>Test</th><th>02-Oct-2020</th><th>Reference&#xA0;Range</th><th>Unit</th></tr><tr><td>Glucose [Presence] in Urine by Test strip</td></tr></table></div>"
        },
        "status": "final",
        "subject": {
          "reference": "urn:uuid:d7b0ef64-4457-43af-a9df-ceeb17b21460",
          "display": "Victor Lagarde"
        },
        "effectiveDateTime": "2020-10-02T04:48:18Z",
        "specimen": {
          "reference": "urn:uuid:0ff1177e-d93d-437f-b996-28e5c1c79c61"
        }
      }
    },
    {
      "fullUrl": "urn:uuid:27eff4a1-447b-4bd1-a5b3-37b670858c88",
      "resource": {
        "resourceType": "Observation",
        "id": "27eff4a1-447b-4bd1-a5b3-37b670858c88",
        "meta": {
          "profile": [
            "http://hl7.eu/fhir/laboratory/StructureDefinition/Observation-resultslab-eu-lab"
          ]
        },
        "performer": [
          {
            "display": "The Central European Lab"
          }
        ],
        "category": [
          {
            "coding": [
              {
                "system": "http://terminology.hl7.org/CodeSystem/observation-category",
                "code": "laboratory"
              }
            ]
          }
        ],
        "code": {
          "coding": [
            {
              "code": "20505-4",
              "system": "http://loinc.org",
              "display": "Bilirubin.total [Mass/volume] in Urine by Test strip"
            }
          ],
          "text": "Bilirubin.total [Mass/volume] in Urine by Test strip"
        },
        "valueQuantity": {
          "system": "http://unitsofmeasure.org",
          "value": 0.6,
          "unit": "mg/dL",
          "code": "mg/dL"
        },
        "referenceRange": [
          {
            "low": {
              "value": 0,
              "code": "mg/dL",
              "system": "http://unitsofmeasure.org"
            }
          },
          {
            "high": {
              "value": 1.9,
              "code": "mg/dL",
              "system": "http://unitsofmeasure.org"
            }
          }
        ],
        "text": {
          "status": "generated",
          "div": "<div xmlns=\"http://www.w3.org/1999/xhtml\"><table class=\"hl7__eu__lab__report\"><tr><th>Test</th><th>02-Oct-2020</th><th>Reference&#xA0;Range</th><th>Unit</th></tr><tr><td>Bilirubin.total [Mass/volume] in Urine by Test strip</td><td>0.6</td><td>0 - 1.9</td><td></td><td>mg/dL</td></tr></table></div>"
        },
        "status": "final",
        "subject": {
          "reference": "urn:uuid:d7b0ef64-4457-43af-a9df-ceeb17b21460",
          "display": "Victor Lagarde"
        },
        "effectiveDateTime": "2020-10-02T04:48:18Z",
        "specimen": {
          "reference": "urn:uuid:0ff1177e-d93d-437f-b996-28e5c1c79c61"
        }
      }
    },
    {
      "fullUrl": "urn:uuid:cc66d0da-867a-4d37-8bca-39669575a741",
      "resource": {
        "resourceType": "Observation",
        "id": "cc66d0da-867a-4d37-8bca-39669575a741",
        "meta": {
          "profile": [
            "http://hl7.eu/fhir/laboratory/StructureDefinition/Observation-resultslab-eu-lab"
          ]
        },
        "performer": [
          {
            "display": "The Central European Lab"
          }
        ],
        "category": [
          {
            "coding": [
              {
                "system": "http://terminology.hl7.org/CodeSystem/observation-category",
                "code": "laboratory"
              }
            ]
          }
        ],
        "code": {
          "coding": [
            {
              "code": "5770-3",
              "system": "http://loinc.org",
              "display": "Bilirubin.total [Presence] in Urine by Test strip"
            }
          ],
          "text": "Bilirubin.total [Presence] in Urine by Test strip"
        },
        "text": {
          "status": "generated",
          "div": "<div xmlns=\"http://www.w3.org/1999/xhtml\"><table class=\"hl7__eu__lab__report\"><tr><th>Test</th><th>02-Oct-2020</th><th>Reference&#xA0;Range</th><th>Unit</th></tr><tr><td>Bilirubin.total [Presence] in Urine by Test strip</td></tr></table></div>"
        },
        "status": "final",
        "subject": {
          "reference": "urn:uuid:d7b0ef64-4457-43af-a9df-ceeb17b21460",
          "display": "Victor Lagarde"
        },
        "effectiveDateTime": "2020-10-02T04:48:18Z",
        "specimen": {
          "reference": "urn:uuid:0ff1177e-d93d-437f-b996-28e5c1c79c61"
        }
      }
    },
    {
      "fullUrl": "urn:uuid:e9c27535-c861-4ed6-8b71-d7e4471601f5",
      "resource": {
        "resourceType": "Observation",
        "id": "e9c27535-c861-4ed6-8b71-d7e4471601f5",
        "meta": {
          "profile": [
            "http://hl7.eu/fhir/laboratory/StructureDefinition/Observation-resultslab-eu-lab"
          ]
        },
        "performer": [
          {
            "display": "The Central European Lab"
          }
        ],
        "category": [
          {
            "coding": [
              {
                "system": "http://terminology.hl7.org/CodeSystem/observation-category",
                "code": "laboratory"
              }
            ]
          }
        ],
        "code": {
          "coding": [
            {
              "code": "5797-6",
              "system": "http://loinc.org",
              "display": "Ketones [Mass/volume] in Urine by Test strip"
            }
          ],
          "text": "Ketones [Mass/volume] in Urine by Test strip"
        },
        "valueQuantity": {
          "system": "http://unitsofmeasure.org",
          "value": 5.5,
          "unit": "mg/dL",
          "code": "mg/dL"
        },
        "referenceRange": [
          {
            "low": {
              "value": 0,
              "code": "mg/dL",
              "system": "http://unitsofmeasure.org"
            }
          },
          {
            "high": {
              "value": 3,
              "code": "mg/dL",
              "system": "http://unitsofmeasure.org"
            }
          }
        ],
        "interpretation": [
          {
            "coding": [
              {
                "code": "H",
                "system": "http://terminology.hl7.org/CodeSystem/v3-ObservationInterpretation",
                "display": "High"
              }
            ]
          }
        ],
        "text": {
          "status": "generated",
          "div": "<div xmlns=\"http://www.w3.org/1999/xhtml\"><table class=\"hl7__eu__lab__report\"><tr><th>Test</th><th>02-Oct-2020</th><th>Reference&#xA0;Range</th><th>Unit</th></tr><tr><td>Ketones [Mass/volume] in Urine by Test strip</td><td>5.5</td><td>0 - 3</td><td>H</td><td>mg/dL</td></tr></table></div>"
        },
        "status": "final",
        "subject": {
          "reference": "urn:uuid:d7b0ef64-4457-43af-a9df-ceeb17b21460",
          "display": "Victor Lagarde"
        },
        "effectiveDateTime": "2020-10-02T04:48:18Z",
        "specimen": {
          "reference": "urn:uuid:0ff1177e-d93d-437f-b996-28e5c1c79c61"
        }
      }
    },
    {
      "fullUrl": "urn:uuid:e504fff7-cb8d-4859-a831-80dbfa628f4c",
      "resource": {
        "resourceType": "Observation",
        "id": "e504fff7-cb8d-4859-a831-80dbfa628f4c",
        "meta": {
          "profile": [
            "http://hl7.eu/fhir/laboratory/StructureDefinition/Observation-resultslab-eu-lab"
          ]
        },
        "performer": [
          {
            "display": "The Central European Lab"
          }
        ],
        "category": [
          {
            "coding": [
              {
                "system": "http://terminology.hl7.org/CodeSystem/observation-category",
                "code": "laboratory"
              }
            ]
          }
        ],
        "code": {
          "coding": [
            {
              "code": "2514-8",
              "system": "http://loinc.org",
              "display": "Ketones [Presence] in Urine by Test strip"
            }
          ],
          "text": "Ketones [Presence] in Urine by Test strip"
        },
        "text": {
          "status": "generated",
          "div": "<div xmlns=\"http://www.w3.org/1999/xhtml\"><table class=\"hl7__eu__lab__report\"><tr><th>Test</th><th>02-Oct-2020</th><th>Reference&#xA0;Range</th><th>Unit</th></tr><tr><td>Ketones [Presence] in Urine by Test strip</td></tr></table></div>"
        },
        "status": "final",
        "subject": {
          "reference": "urn:uuid:d7b0ef64-4457-43af-a9df-ceeb17b21460",
          "display": "Victor Lagarde"
        },
        "effectiveDateTime": "2020-10-02T04:48:18Z",
        "specimen": {
          "reference": "urn:uuid:0ff1177e-d93d-437f-b996-28e5c1c79c61"
        }
      }
    },
    {
      "fullUrl": "urn:uuid:6d400836-b7f7-4c90-ae51-5cf5c47a6a91",
      "resource": {
        "resourceType": "Observation",
        "id": "6d400836-b7f7-4c90-ae51-5cf5c47a6a91",
        "meta": {
          "profile": [
            "http://hl7.eu/fhir/laboratory/StructureDefinition/Observation-resultslab-eu-lab"
          ]
        },
        "performer": [
          {
            "display": "The Central European Lab"
          }
        ],
        "category": [
          {
            "coding": [
              {
                "system": "http://terminology.hl7.org/CodeSystem/observation-category",
                "code": "laboratory"
              }
            ]
          }
        ],
        "code": {
          "coding": [
            {
              "code": "5811-5",
              "system": "http://loinc.org",
              "display": "Specific gravity of Urine by Test strip"
            }
          ],
          "text": "Specific gravity of Urine by Test strip"
        },
        "valueQuantity": {
          "system": "http://unitsofmeasure.org",
          "value": 1,
          "unit": "{nominal}",
          "code": "{nominal}"
        },
        "referenceRange": [
          {
            "low": {
              "value": 1.01,
              "code": "g/mL",
              "system": "http://unitsofmeasure.org"
            }
          },
          {
            "high": {
              "value": 1.03,
              "code": "g/mL",
              "system": "http://unitsofmeasure.org"
            }
          }
        ],
        "interpretation": [
          {
            "coding": [
              {
                "code": "L",
                "system": "http://terminology.hl7.org/CodeSystem/v3-ObservationInterpretation",
                "display": "Low"
              }
            ]
          }
        ],
        "text": {
          "status": "generated",
          "div": "<div xmlns=\"http://www.w3.org/1999/xhtml\"><table class=\"hl7__eu__lab__report\"><tr><th>Test</th><th>02-Oct-2020</th><th>Reference&#xA0;Range</th><th>Unit</th></tr><tr><td>Specific gravity of Urine by Test strip</td><td>1.0</td><td>1.01 - 1.03</td><td>L</td><td>{nominal}</td></tr></table></div>"
        },
        "status": "final",
        "subject": {
          "reference": "urn:uuid:d7b0ef64-4457-43af-a9df-ceeb17b21460",
          "display": "Victor Lagarde"
        },
        "effectiveDateTime": "2020-10-02T04:48:18Z",
        "specimen": {
          "reference": "urn:uuid:0ff1177e-d93d-437f-b996-28e5c1c79c61"
        }
      }
    },
    {
      "fullUrl": "urn:uuid:1d8b1d78-d7de-4e57-befa-8d140b769973",
      "resource": {
        "resourceType": "Observation",
        "id": "1d8b1d78-d7de-4e57-befa-8d140b769973",
        "meta": {
          "profile": [
            "http://hl7.eu/fhir/laboratory/StructureDefinition/Observation-resultslab-eu-lab"
          ]
        },
        "performer": [
          {
            "display": "The Central European Lab"
          }
        ],
        "category": [
          {
            "coding": [
              {
                "system": "http://terminology.hl7.org/CodeSystem/observation-category",
                "code": "laboratory"
              }
            ]
          }
        ],
        "code": {
          "coding": [
            {
              "code": "5803-2",
              "system": "http://loinc.org",
              "display": "pH of Urine by Test strip"
            }
          ],
          "text": "pH of Urine by Test strip"
        },
        "valueQuantity": {
          "system": "http://unitsofmeasure.org",
          "value": 6.9,
          "unit": "pH",
          "code": "pH"
        },
        "referenceRange": [
          {
            "low": {
              "value": 4.5,
              "code": "pH",
              "system": "http://unitsofmeasure.org"
            }
          },
          {
            "high": {
              "value": 7.5,
              "code": "pH",
              "system": "http://unitsofmeasure.org"
            }
          }
        ],
        "text": {
          "status": "generated",
          "div": "<div xmlns=\"http://www.w3.org/1999/xhtml\"><table class=\"hl7__eu__lab__report\"><tr><th>Test</th><th>02-Oct-2020</th><th>Reference&#xA0;Range</th><th>Unit</th></tr><tr><td>pH of Urine by Test strip</td><td>6.9</td><td>4.5 - 7.5</td><td></td><td>pH</td></tr></table></div>"
        },
        "status": "final",
        "subject": {
          "reference": "urn:uuid:d7b0ef64-4457-43af-a9df-ceeb17b21460",
          "display": "Victor Lagarde"
        },
        "effectiveDateTime": "2020-10-02T04:48:18Z",
        "specimen": {
          "reference": "urn:uuid:0ff1177e-d93d-437f-b996-28e5c1c79c61"
        }
      }
    },
    {
      "fullUrl": "urn:uuid:93749420-33a3-4235-bc50-1a93b201f8fd",
      "resource": {
        "resourceType": "Observation",
        "id": "93749420-33a3-4235-bc50-1a93b201f8fd",
        "meta": {
          "profile": [
            "http://hl7.eu/fhir/laboratory/StructureDefinition/Observation-resultslab-eu-lab"
          ]
        },
        "performer": [
          {
            "display": "The Central European Lab"
          }
        ],
        "category": [
          {
            "coding": [
              {
                "system": "http://terminology.hl7.org/CodeSystem/observation-category",
                "code": "laboratory"
              }
            ]
          }
        ],
        "code": {
          "coding": [
            {
              "code": "5804-0",
              "system": "http://loinc.org",
              "display": "Protein [Mass/volume] in Urine by Test strip"
            }
          ],
          "text": "Protein [Mass/volume] in Urine by Test strip"
        },
        "valueQuantity": {
          "system": "http://unitsofmeasure.org",
          "value": 255.4,
          "unit": "mg/dL",
          "code": "mg/dL"
        },
        "referenceRange": [
          {
            "low": {
              "value": 0,
              "code": "mg/dL",
              "system": "http://unitsofmeasure.org"
            }
          },
          {
            "high": {
              "value": 149,
              "code": "mg/dL",
              "system": "http://unitsofmeasure.org"
            }
          }
        ],
        "interpretation": [
          {
            "coding": [
              {
                "code": "H",
                "system": "http://terminology.hl7.org/CodeSystem/v3-ObservationInterpretation",
                "display": "High"
              }
            ]
          }
        ],
        "text": {
          "status": "generated",
          "div": "<div xmlns=\"http://www.w3.org/1999/xhtml\"><table class=\"hl7__eu__lab__report\"><tr><th>Test</th><th>02-Oct-2020</th><th>Reference&#xA0;Range</th><th>Unit</th></tr><tr><td>Protein [Mass/volume] in Urine by Test strip</td><td>255.4</td><td>0 - 149</td><td>H</td><td>mg/dL</td></tr></table></div>"
        },
        "status": "final",
        "subject": {
          "reference": "urn:uuid:d7b0ef64-4457-43af-a9df-ceeb17b21460",
          "display": "Victor Lagarde"
        },
        "effectiveDateTime": "2020-10-02T04:48:18Z",
        "specimen": {
          "reference": "urn:uuid:0ff1177e-d93d-437f-b996-28e5c1c79c61"
        }
      }
    },
    {
      "fullUrl": "urn:uuid:fce01d99-9d39-40f4-be35-f15b51d00941",
      "resource": {
        "resourceType": "Observation",
        "id": "fce01d99-9d39-40f4-be35-f15b51d00941",
        "meta": {
          "profile": [
            "http://hl7.eu/fhir/laboratory/StructureDefinition/Observation-resultslab-eu-lab"
          ]
        },
        "performer": [
          {
            "display": "The Central European Lab"
          }
        ],
        "category": [
          {
            "coding": [
              {
                "system": "http://terminology.hl7.org/CodeSystem/observation-category",
                "code": "laboratory"
              }
            ]
          }
        ],
        "code": {
          "coding": [
            {
              "code": "20454-5",
              "system": "http://loinc.org",
              "display": "Protein [Presence] in Urine by Test strip"
            }
          ],
          "text": "Protein [Presence] in Urine by Test strip"
        },
        "text": {
          "status": "generated",
          "div": "<div xmlns=\"http://www.w3.org/1999/xhtml\"><table class=\"hl7__eu__lab__report\"><tr><th>Test</th><th>02-Oct-2020</th><th>Reference&#xA0;Range</th><th>Unit</th></tr><tr><td>Protein [Presence] in Urine by Test strip</td></tr></table></div>"
        },
        "status": "final",
        "subject": {
          "reference": "urn:uuid:d7b0ef64-4457-43af-a9df-ceeb17b21460",
          "display": "Victor Lagarde"
        },
        "effectiveDateTime": "2020-10-02T04:48:18Z",
        "specimen": {
          "reference": "urn:uuid:0ff1177e-d93d-437f-b996-28e5c1c79c61"
        }
      }
    },
    {
      "fullUrl": "urn:uuid:3e4e15de-0059-41ab-94dd-9f91a28d5555",
      "resource": {
        "resourceType": "Observation",
        "id": "3e4e15de-0059-41ab-94dd-9f91a28d5555",
        "meta": {
          "profile": [
            "http://hl7.eu/fhir/laboratory/StructureDefinition/Observation-resultslab-eu-lab"
          ]
        },
        "performer": [
          {
            "display": "The Central European Lab"
          }
        ],
        "category": [
          {
            "coding": [
              {
                "system": "http://terminology.hl7.org/CodeSystem/observation-category",
                "code": "laboratory"
              }
            ]
          }
        ],
        "code": {
          "coding": [
            {
              "code": "5802-4",
              "system": "http://loinc.org",
              "display": "Nitrite [Presence] in Urine by Test strip"
            }
          ],
          "text": "Nitrite [Presence] in Urine by Test strip"
        },
        "text": {
          "status": "generated",
          "div": "<div xmlns=\"http://www.w3.org/1999/xhtml\"><table class=\"hl7__eu__lab__report\"><tr><th>Test</th><th>02-Oct-2020</th><th>Reference&#xA0;Range</th><th>Unit</th></tr><tr><td>Nitrite [Presence] in Urine by Test strip</td></tr></table></div>"
        },
        "status": "final",
        "subject": {
          "reference": "urn:uuid:d7b0ef64-4457-43af-a9df-ceeb17b21460",
          "display": "Victor Lagarde"
        },
        "effectiveDateTime": "2020-10-02T04:48:18Z",
        "specimen": {
          "reference": "urn:uuid:0ff1177e-d93d-437f-b996-28e5c1c79c61"
        }
      }
    },
    {
      "fullUrl": "urn:uuid:60b13639-b622-4105-84a2-d9cd68b76601",
      "resource": {
        "resourceType": "Observation",
        "id": "60b13639-b622-4105-84a2-d9cd68b76601",
        "meta": {
          "profile": [
            "http://hl7.eu/fhir/laboratory/StructureDefinition/Observation-resultslab-eu-lab"
          ]
        },
        "performer": [
          {
            "display": "The Central European Lab"
          }
        ],
        "category": [
          {
            "coding": [
              {
                "system": "http://terminology.hl7.org/CodeSystem/observation-category",
                "code": "laboratory"
              }
            ]
          }
        ],
        "code": {
          "coding": [
            {
              "code": "5794-3",
              "system": "http://loinc.org",
              "display": "Hemoglobin [Presence] in Urine by Test strip"
            }
          ],
          "text": "Hemoglobin [Presence] in Urine by Test strip"
        },
        "text": {
          "status": "generated",
          "div": "<div xmlns=\"http://www.w3.org/1999/xhtml\"><table class=\"hl7__eu__lab__report\"><tr><th>Test</th><th>02-Oct-2020</th><th>Reference&#xA0;Range</th><th>Unit</th></tr><tr><td>Hemoglobin [Presence] in Urine by Test strip</td></tr></table></div>"
        },
        "status": "final",
        "subject": {
          "reference": "urn:uuid:d7b0ef64-4457-43af-a9df-ceeb17b21460",
          "display": "Victor Lagarde"
        },
        "effectiveDateTime": "2020-10-02T04:48:18Z",
        "specimen": {
          "reference": "urn:uuid:0ff1177e-d93d-437f-b996-28e5c1c79c61"
        }
      }
    },
    {
      "fullUrl": "urn:uuid:b259fae7-0d44-4ffc-ade2-112cd6902583",
      "resource": {
        "resourceType": "Observation",
        "id": "b259fae7-0d44-4ffc-ade2-112cd6902583",
        "meta": {
          "profile": [
            "http://hl7.eu/fhir/laboratory/StructureDefinition/Observation-resultslab-eu-lab"
          ]
        },
        "performer": [
          {
            "display": "The Central European Lab"
          }
        ],
        "category": [
          {
            "coding": [
              {
                "system": "http://terminology.hl7.org/CodeSystem/observation-category",
                "code": "laboratory"
              }
            ]
          }
        ],
        "code": {
          "coding": [
            {
              "code": "5799-2",
              "system": "http://loinc.org",
              "display": "Leukocyte esterase [Presence] in Urine by Test strip"
            }
          ],
          "text": "Leukocyte esterase [Presence] in Urine by Test strip"
        },
        "text": {
          "status": "generated",
          "div": "<div xmlns=\"http://www.w3.org/1999/xhtml\"><table class=\"hl7__eu__lab__report\"><tr><th>Test</th><th>02-Oct-2020</th><th>Reference&#xA0;Range</th><th>Unit</th></tr><tr><td>Leukocyte esterase [Presence] in Urine by Test strip</td></tr></table></div>"
        },
        "status": "final",
        "subject": {
          "reference": "urn:uuid:d7b0ef64-4457-43af-a9df-ceeb17b21460",
          "display": "Victor Lagarde"
        },
        "effectiveDateTime": "2020-10-02T04:48:18Z",
        "specimen": {
          "reference": "urn:uuid:0ff1177e-d93d-437f-b996-28e5c1c79c61"
        }
      }
    },
    {
      "fullUrl": "urn:uuid:697ce55e-d564-4f5e-a496-15450faeba53",
      "resource": {
        "resourceType": "Observation",
        "id": "697ce55e-d564-4f5e-a496-15450faeba53",
        "meta": {
          "profile": [
            "http://hl7.eu/fhir/laboratory/StructureDefinition/Observation-resultslab-eu-lab"
          ]
        },
        "performer": [
          {
            "display": "The Central European Lab"
          }
        ],
        "category": [
          {
            "coding": [
              {
                "system": "http://terminology.hl7.org/CodeSystem/observation-category",
                "code": "laboratory"
              }
            ]
          }
        ],
        "code": {
          "coding": [
            {
              "code": "4548-4",
              "system": "http://loinc.org",
              "display": "Hemoglobin A1c/Hemoglobin.total in Blood"
            }
          ],
          "text": "Hemoglobin A1c/Hemoglobin.total in Blood"
        },
        "valueQuantity": {
          "system": "http://unitsofmeasure.org",
          "value": 3,
          "unit": "%",
          "code": "%"
        },
        "referenceRange": [
          {
            "low": {
              "value": 4.3,
              "code": "%",
              "system": "http://unitsofmeasure.org"
            }
          },
          {
            "high": {
              "value": 6,
              "code": "%",
              "system": "http://unitsofmeasure.org"
            }
          }
        ],
        "interpretation": [
          {
            "coding": [
              {
                "code": "L",
                "system": "http://terminology.hl7.org/CodeSystem/v3-ObservationInterpretation",
                "display": "Low"
              }
            ]
          }
        ],
        "text": {
          "status": "generated",
          "div": "<div xmlns=\"http://www.w3.org/1999/xhtml\"><table class=\"hl7__eu__lab__report\"><tr><th>Test</th><th>02-Oct-2020</th><th>Reference&#xA0;Range</th><th>Unit</th></tr><tr><td>Hemoglobin A1c/Hemoglobin.total in Blood</td><td>3.0</td><td>4.3 - 6</td><td>L</td><td>%</td></tr></table></div>"
        },
        "status": "final",
        "subject": {
          "reference": "urn:uuid:d7b0ef64-4457-43af-a9df-ceeb17b21460",
          "display": "Victor Lagarde"
        },
        "effectiveDateTime": "2020-10-02T04:48:18Z",
        "specimen": {
          "reference": "urn:uuid:4a8c0bad-2545-40e7-b375-468a7afe1d1e"
        }
      }
    },
    {
      "fullUrl": "urn:uuid:92d56a07-52cc-4bc9-a360-9fad275275dd",
      "resource": {
        "resourceType": "Observation",
        "id": "92d56a07-52cc-4bc9-a360-9fad275275dd",
        "meta": {
          "profile": [
            "http://hl7.eu/fhir/laboratory/StructureDefinition/Observation-resultslab-eu-lab"
          ]
        },
        "performer": [
          {
            "display": "The Central European Lab"
          }
        ],
        "category": [
          {
            "coding": [
              {
                "system": "http://terminology.hl7.org/CodeSystem/observation-category",
                "code": "laboratory"
              }
            ]
          }
        ],
        "code": {
          "coding": [
            {
              "code": "2339-0",
              "system": "http://loinc.org",
              "display": "Glucose [Mass/volume] in Blood"
            }
          ],
          "text": "Glucose [Mass/volume] in Blood"
        },
        "valueQuantity": {
          "system": "http://unitsofmeasure.org",
          "value": 99.6,
          "unit": "mg/dL",
          "code": "mg/dL"
        },
        "referenceRange": [
          {
            "low": {
              "value": 70,
              "code": "mg/dL",
              "system": "http://unitsofmeasure.org"
            }
          },
          {
            "high": {
              "value": 140,
              "code": "mg/dL",
              "system": "http://unitsofmeasure.org"
            }
          }
        ],
        "text": {
          "status": "generated",
          "div": "<div xmlns=\"http://www.w3.org/1999/xhtml\"><table class=\"hl7__eu__lab__report\"><tr><th>Test</th><th>02-Oct-2020</th><th>Reference&#xA0;Range</th><th>Unit</th></tr><tr><td>Glucose [Mass/volume] in Blood</td><td>99.6</td><td>70 - 140</td><td></td><td>mg/dL</td></tr></table></div>"
        },
        "status": "final",
        "subject": {
          "reference": "urn:uuid:d7b0ef64-4457-43af-a9df-ceeb17b21460",
          "display": "Victor Lagarde"
        },
        "effectiveDateTime": "2020-10-02T04:48:18Z",
        "specimen": {
          "reference": "urn:uuid:4a8c0bad-2545-40e7-b375-468a7afe1d1e"
        }
      }
    },
    {
      "fullUrl": "urn:uuid:ac305fb5-b35b-41e4-ab67-c8791eaace54",
      "resource": {
        "resourceType": "Observation",
        "id": "ac305fb5-b35b-41e4-ab67-c8791eaace54",
        "meta": {
          "profile": [
            "http://hl7.eu/fhir/laboratory/StructureDefinition/Observation-resultslab-eu-lab"
          ]
        },
        "performer": [
          {
            "display": "The Central European Lab"
          }
        ],
        "category": [
          {
            "coding": [
              {
                "system": "http://terminology.hl7.org/CodeSystem/observation-category",
                "code": "laboratory"
              }
            ]
          }
        ],
        "code": {
          "coding": [
            {
              "code": "6299-2",
              "system": "http://loinc.org",
              "display": "Urea nitrogen [Mass/volume] in Blood"
            }
          ],
          "text": "Urea nitrogen [Mass/volume] in Blood"
        },
        "valueQuantity": {
          "system": "http://unitsofmeasure.org",
          "value": 18.5,
          "unit": "mg/dL",
          "code": "mg/dL"
        },
        "referenceRange": [
          {
            "low": {
              "value": 7,
              "code": "mg/dL",
              "system": "http://unitsofmeasure.org"
            }
          },
          {
            "high": {
              "value": 20,
              "code": "mg/dL",
              "system": "http://unitsofmeasure.org"
            }
          }
        ],
        "text": {
          "status": "generated",
          "div": "<div xmlns=\"http://www.w3.org/1999/xhtml\"><table class=\"hl7__eu__lab__report\"><tr><th>Test</th><th>02-Oct-2020</th><th>Reference&#xA0;Range</th><th>Unit</th></tr><tr><td>Urea nitrogen [Mass/volume] in Blood</td><td>18.5</td><td>7 - 20</td><td></td><td>mg/dL</td></tr></table></div>"
        },
        "status": "final",
        "subject": {
          "reference": "urn:uuid:d7b0ef64-4457-43af-a9df-ceeb17b21460",
          "display": "Victor Lagarde"
        },
        "effectiveDateTime": "2020-10-02T04:48:18Z",
        "specimen": {
          "reference": "urn:uuid:4a8c0bad-2545-40e7-b375-468a7afe1d1e"
        }
      }
    },
    {
      "fullUrl": "urn:uuid:15d9c78d-50f0-4716-bf38-022bf1e63100",
      "resource": {
        "resourceType": "Observation",
        "id": "15d9c78d-50f0-4716-bf38-022bf1e63100",
        "meta": {
          "profile": [
            "http://hl7.eu/fhir/laboratory/StructureDefinition/Observation-resultslab-eu-lab"
          ]
        },
        "performer": [
          {
            "display": "The Central European Lab"
          }
        ],
        "category": [
          {
            "coding": [
              {
                "system": "http://terminology.hl7.org/CodeSystem/observation-category",
                "code": "laboratory"
              }
            ]
          }
        ],
        "code": {
          "coding": [
            {
              "code": "38483-4",
              "system": "http://loinc.org",
              "display": "Creatinine [Mass/volume] in Blood"
            }
          ],
          "text": "Creatinine [Mass/volume] in Blood"
        },
        "valueQuantity": {
          "system": "http://unitsofmeasure.org",
          "value": 2.7,
          "unit": "mg/dL",
          "code": "mg/dL"
        },
        "referenceRange": [
          {
            "low": {
              "value": 0.9,
              "code": "mg/dL",
              "system": "http://unitsofmeasure.org"
            }
          },
          {
            "high": {
              "value": 1.3,
              "code": "mg/dL",
              "system": "http://unitsofmeasure.org"
            }
          }
        ],
        "interpretation": [
          {
            "coding": [
              {
                "code": "H",
                "system": "http://terminology.hl7.org/CodeSystem/v3-ObservationInterpretation",
                "display": "High"
              }
            ]
          }
        ],
        "text": {
          "status": "generated",
          "div": "<div xmlns=\"http://www.w3.org/1999/xhtml\"><table class=\"hl7__eu__lab__report\"><tr><th>Test</th><th>02-Oct-2020</th><th>Reference&#xA0;Range</th><th>Unit</th></tr><tr><td>Creatinine [Mass/volume] in Blood</td><td>2.7</td><td>0.9 - 1.3</td><td>H</td><td>mg/dL</td></tr></table></div>"
        },
        "status": "final",
        "subject": {
          "reference": "urn:uuid:d7b0ef64-4457-43af-a9df-ceeb17b21460",
          "display": "Victor Lagarde"
        },
        "effectiveDateTime": "2020-10-02T04:48:18Z",
        "specimen": {
          "reference": "urn:uuid:4a8c0bad-2545-40e7-b375-468a7afe1d1e"
        }
      }
    },
    {
      "fullUrl": "urn:uuid:f7dcc7dc-4c68-4013-9c64-76102876f1be",
      "resource": {
        "resourceType": "Observation",
        "id": "f7dcc7dc-4c68-4013-9c64-76102876f1be",
        "meta": {
          "profile": [
            "http://hl7.eu/fhir/laboratory/StructureDefinition/Observation-resultslab-eu-lab"
          ]
        },
        "performer": [
          {
            "display": "The Central European Lab"
          }
        ],
        "category": [
          {
            "coding": [
              {
                "system": "http://terminology.hl7.org/CodeSystem/observation-category",
                "code": "laboratory"
              }
            ]
          }
        ],
        "code": {
          "coding": [
            {
              "code": "49765-1",
              "system": "http://loinc.org",
              "display": "Calcium [Mass/volume] in Blood"
            }
          ],
          "text": "Calcium [Mass/volume] in Blood"
        },
        "valueQuantity": {
          "system": "http://unitsofmeasure.org",
          "value": 10.2,
          "unit": "mg/dL",
          "code": "mg/dL"
        },
        "referenceRange": [
          {
            "low": {
              "value": 8.5,
              "code": "mg/dL",
              "system": "http://unitsofmeasure.org"
            }
          },
          {
            "high": {
              "value": 10.5,
              "code": "mg/dL",
              "system": "http://unitsofmeasure.org"
            }
          }
        ],
        "text": {
          "status": "generated",
          "div": "<div xmlns=\"http://www.w3.org/1999/xhtml\"><table class=\"hl7__eu__lab__report\"><tr><th>Test</th><th>02-Oct-2020</th><th>Reference&#xA0;Range</th><th>Unit</th></tr><tr><td>Calcium [Mass/volume] in Blood</td><td>10.2</td><td>8.5 - 10.5</td><td></td><td>mg/dL</td></tr></table></div>"
        },
        "status": "final",
        "subject": {
          "reference": "urn:uuid:d7b0ef64-4457-43af-a9df-ceeb17b21460",
          "display": "Victor Lagarde"
        },
        "effectiveDateTime": "2020-10-02T04:48:18Z",
        "specimen": {
          "reference": "urn:uuid:4a8c0bad-2545-40e7-b375-468a7afe1d1e"
        }
      }
    },
    {
      "fullUrl": "urn:uuid:0a5b5bb9-b6ea-4a51-a5fa-9f61746ce0b0",
      "resource": {
        "resourceType": "Observation",
        "id": "0a5b5bb9-b6ea-4a51-a5fa-9f61746ce0b0",
        "meta": {
          "profile": [
            "http://hl7.eu/fhir/laboratory/StructureDefinition/Observation-resultslab-eu-lab"
          ]
        },
        "performer": [
          {
            "display": "The Central European Lab"
          }
        ],
        "category": [
          {
            "coding": [
              {
                "system": "http://terminology.hl7.org/CodeSystem/observation-category",
                "code": "laboratory"
              }
            ]
          }
        ],
        "code": {
          "coding": [
            {
              "code": "2947-0",
              "system": "http://loinc.org",
              "display": "Sodium [Moles/volume] in Blood"
            }
          ],
          "text": "Sodium [Moles/volume] in Blood"
        },
        "valueQuantity": {
          "system": "http://unitsofmeasure.org",
          "value": 138.5,
          "unit": "mmol/L",
          "code": "mmol/L"
        },
        "referenceRange": [
          {
            "low": {
              "value": 135,
              "code": "mmol/L",
              "system": "http://unitsofmeasure.org"
            }
          },
          {
            "high": {
              "value": 145,
              "code": "mmol/L",
              "system": "http://unitsofmeasure.org"
            }
          }
        ],
        "text": {
          "status": "generated",
          "div": "<div xmlns=\"http://www.w3.org/1999/xhtml\"><table class=\"hl7__eu__lab__report\"><tr><th>Test</th><th>02-Oct-2020</th><th>Reference&#xA0;Range</th><th>Unit</th></tr><tr><td>Sodium [Moles/volume] in Blood</td><td>138.5</td><td>135 - 145</td><td></td><td>mmol/L</td></tr></table></div>"
        },
        "status": "final",
        "subject": {
          "reference": "urn:uuid:d7b0ef64-4457-43af-a9df-ceeb17b21460",
          "display": "Victor Lagarde"
        },
        "effectiveDateTime": "2020-10-02T04:48:18Z",
        "specimen": {
          "reference": "urn:uuid:4a8c0bad-2545-40e7-b375-468a7afe1d1e"
        }
      }
    },
    {
      "fullUrl": "urn:uuid:2421dec8-a492-4b8d-92a6-86d243df64f4",
      "resource": {
        "resourceType": "Observation",
        "id": "2421dec8-a492-4b8d-92a6-86d243df64f4",
        "meta": {
          "profile": [
            "http://hl7.eu/fhir/laboratory/StructureDefinition/Observation-resultslab-eu-lab"
          ]
        },
        "performer": [
          {
            "display": "The Central European Lab"
          }
        ],
        "category": [
          {
            "coding": [
              {
                "system": "http://terminology.hl7.org/CodeSystem/observation-category",
                "code": "laboratory"
              }
            ]
          }
        ],
        "code": {
          "coding": [
            {
              "code": "6298-4",
              "system": "http://loinc.org",
              "display": "Potassium [Moles/volume] in Blood"
            }
          ],
          "text": "Potassium [Moles/volume] in Blood"
        },
        "valueQuantity": {
          "system": "http://unitsofmeasure.org",
          "value": 4.8,
          "unit": "mmol/L",
          "code": "mmol/L"
        },
        "referenceRange": [
          {
            "low": {
              "value": 3.5,
              "code": "mmol/L",
              "system": "http://unitsofmeasure.org"
            }
          },
          {
            "high": {
              "value": 5.1,
              "code": "mmol/L",
              "system": "http://unitsofmeasure.org"
            }
          }
        ],
        "text": {
          "status": "generated",
          "div": "<div xmlns=\"http://www.w3.org/1999/xhtml\"><table class=\"hl7__eu__lab__report\"><tr><th>Test</th><th>02-Oct-2020</th><th>Reference&#xA0;Range</th><th>Unit</th></tr><tr><td>Potassium [Moles/volume] in Blood</td><td>4.8</td><td>3.5 - 5.1</td><td></td><td>mmol/L</td></tr></table></div>"
        },
        "status": "final",
        "subject": {
          "reference": "urn:uuid:d7b0ef64-4457-43af-a9df-ceeb17b21460",
          "display": "Victor Lagarde"
        },
        "effectiveDateTime": "2020-10-02T04:48:18Z",
        "specimen": {
          "reference": "urn:uuid:4a8c0bad-2545-40e7-b375-468a7afe1d1e"
        }
      }
    },
    {
      "fullUrl": "urn:uuid:6e809228-088d-4515-967d-dbcee019f89e",
      "resource": {
        "resourceType": "Observation",
        "id": "6e809228-088d-4515-967d-dbcee019f89e",
        "meta": {
          "profile": [
            "http://hl7.eu/fhir/laboratory/StructureDefinition/Observation-resultslab-eu-lab"
          ]
        },
        "performer": [
          {
            "display": "The Central European Lab"
          }
        ],
        "category": [
          {
            "coding": [
              {
                "system": "http://terminology.hl7.org/CodeSystem/observation-category",
                "code": "laboratory"
              }
            ]
          }
        ],
        "code": {
          "coding": [
            {
              "code": "2069-3",
              "system": "http://loinc.org",
              "display": "Chloride [Moles/volume] in Blood"
            }
          ],
          "text": "Chloride [Moles/volume] in Blood"
        },
        "valueQuantity": {
          "system": "http://unitsofmeasure.org",
          "value": 108.8,
          "unit": "mmol/L",
          "code": "mmol/L"
        },
        "referenceRange": [
          {
            "low": {
              "value": 98,
              "code": "mmol/L",
              "system": "http://unitsofmeasure.org"
            }
          },
          {
            "high": {
              "value": 108,
              "code": "mmol/L",
              "system": "http://unitsofmeasure.org"
            }
          }
        ],
        "interpretation": [
          {
            "coding": [
              {
                "code": "H",
                "system": "http://terminology.hl7.org/CodeSystem/v3-ObservationInterpretation",
                "display": "High"
              }
            ]
          }
        ],
        "text": {
          "status": "generated",
          "div": "<div xmlns=\"http://www.w3.org/1999/xhtml\"><table class=\"hl7__eu__lab__report\"><tr><th>Test</th><th>02-Oct-2020</th><th>Reference&#xA0;Range</th><th>Unit</th></tr><tr><td>Chloride [Moles/volume] in Blood</td><td>108.8</td><td>98 - 108</td><td>H</td><td>mmol/L</td></tr></table></div>"
        },
        "status": "final",
        "subject": {
          "reference": "urn:uuid:d7b0ef64-4457-43af-a9df-ceeb17b21460",
          "display": "Victor Lagarde"
        },
        "effectiveDateTime": "2020-10-02T04:48:18Z",
        "specimen": {
          "reference": "urn:uuid:4a8c0bad-2545-40e7-b375-468a7afe1d1e"
        }
      }
    },
    {
      "fullUrl": "urn:uuid:c3e5a3bd-27d6-416e-ac5c-7f30567f3528",
      "resource": {
        "resourceType": "Observation",
        "id": "c3e5a3bd-27d6-416e-ac5c-7f30567f3528",
        "meta": {
          "profile": [
            "http://hl7.eu/fhir/laboratory/StructureDefinition/Observation-resultslab-eu-lab"
          ]
        },
        "performer": [
          {
            "display": "The Central European Lab"
          }
        ],
        "category": [
          {
            "coding": [
              {
                "system": "http://terminology.hl7.org/CodeSystem/observation-category",
                "code": "laboratory"
              }
            ]
          }
        ],
        "code": {
          "coding": [
            {
              "code": "20565-8",
              "system": "http://loinc.org",
              "display": "Carbon dioxide, total [Moles/volume] in Blood"
            }
          ],
          "text": "Carbon dioxide, total [Moles/volume] in Blood"
        },
        "valueQuantity": {
          "system": "http://unitsofmeasure.org",
          "value": 23,
          "unit": "mmol/L",
          "code": "mmol/L"
        },
        "referenceRange": [
          {
            "low": {
              "value": 22,
              "code": "mmol/L",
              "system": "http://unitsofmeasure.org"
            }
          },
          {
            "high": {
              "value": 29,
              "code": "mmol/L",
              "system": "http://unitsofmeasure.org"
            }
          }
        ],
        "text": {
          "status": "generated",
          "div": "<div xmlns=\"http://www.w3.org/1999/xhtml\"><table class=\"hl7__eu__lab__report\"><tr><th>Test</th><th>02-Oct-2020</th><th>Reference&#xA0;Range</th><th>Unit</th></tr><tr><td>Carbon dioxide, total [Moles/volume] in Blood</td><td>23.0</td><td>22 - 29</td><td></td><td>mmol/L</td></tr></table></div>"
        },
        "status": "final",
        "subject": {
          "reference": "urn:uuid:d7b0ef64-4457-43af-a9df-ceeb17b21460",
          "display": "Victor Lagarde"
        },
        "effectiveDateTime": "2020-10-02T04:48:18Z",
        "specimen": {
          "reference": "urn:uuid:4a8c0bad-2545-40e7-b375-468a7afe1d1e"
        }
      }
    },
    {
      "fullUrl": "urn:uuid:28a3a4eb-debe-4c28-bf82-771df9ca500c",
      "resource": {
        "resourceType": "Device",
        "id": "28a3a4eb-debe-4c28-bf82-771df9ca500c",
        "deviceName": [
          {
            "name": "SYNDERAI Synthetic Generator",
            "type": "manufacturer-name"
          }
        ],
        "version": [
          {
            "value": "5.0"
          }
        ],
        "text": {
          "status": "generated",
          "div": "<div xmlns=\"http://www.w3.org/1999/xhtml\">SYNDERAI Synthetic Generator v5.0</div>"
        },
        "status": "active\"",
        "distinctIdentifier": "synderai-generator-50",
        "manufacturer": "SYNDERAI Project"
      }
    },
    {
      "fullUrl": "urn:uuid:50f696ce-9725-451b-bd89-24b3e6a79a9f",
      "resource": {
        "resourceType": "Provenance",
        "id": "50f696ce-9725-451b-bd89-24b3e6a79a9f",
        "target": [
          {
            "reference": "Patient/d7b0ef64-4457-43af-a9df-ceeb17b21460"
          },
          {
            "reference": "Bundle/ca51ca8d-a542-4c3c-a2ab-0e8cca399367"
          },
          {
            "reference": "Composition/66b4feae-c950-4179-9bdc-280d4afb9ba1"
          },
          {
            "reference": "PractitionerRole/dc317bad-8dc6-4186-bef3-e77852d50da8"
          },
          {
            "reference": "Practitioner/fa3461c9-e12d-4803-a9d6-07fd39733c74"
          },
          {
            "reference": "PractitionerRole/df9b169a-1ddb-445d-93f3-42644b4bc98d"
          },
          {
            "reference": "Organization/9ddc2def-09ae-452c-a8f9-8be8994e529a"
          }
        ],
        "activity": {
          "text": "Synthetic Example Data Generation"
        },
        "policy": [
          "https://synderai.net/synderai-synthetic-data-policy"
        ],
        "agent": [
          {
            "type": {
              "text": "author"
            },
            "who": {
              "reference": "Device/28a3a4eb-debe-4c28-bf82-771df9ca500c"
            }
          }
        ],
        "reason": [
          {
            "text": "Interoperability Testing and Training (non-clinical use)"
          }
        ],
        "text": {
          "status": "generated",
          "div": "<div xmlns=\"http://www.w3.org/1999/xhtml\">Provenance for SYNDERAI Synthetic Example Data Resource</div>"
        },
        "recorded": "2020-10-02T06:48:18Z"
      }
    },
    {
      "fullUrl": "urn:uuid:dc317bad-8dc6-4186-bef3-e77852d50da8",
      "resource": {
        "resourceType": "PractitionerRole",
        "id": "dc317bad-8dc6-4186-bef3-e77852d50da8",
        "meta": {
          "profile": [
            "http://hl7.eu/fhir/base/StructureDefinition/practitionerRole-eu"
          ]
        },
        "text": {
          "status": "generated",
          "div": "<div xmlns=\"http://www.w3.org/1999/xhtml\">Laboratory Role Id: dc317bad-8dc6-4186-bef3-e77852d50da8</div>"
        },
        "practitioner": {
          "reference": "urn:uuid:fa3461c9-e12d-4803-a9d6-07fd39733c74"
        }
      }
    },
    {
      "fullUrl": "urn:uuid:fa3461c9-e12d-4803-a9d6-07fd39733c74",
      "resource": {
        "resourceType": "Practitioner",
        "id": "fa3461c9-e12d-4803-a9d6-07fd39733c74",
        "meta": {
          "profile": [
            "http://hl7.eu/fhir/base/StructureDefinition/practitioner-eu"
          ]
        },
        "identifier": [
          {
            "assigner": {
              "display": "HL7 Europe"
            },
            "system": "urn:oid:2.16.840.1.113883.2.51.999",
            "value": "6225b3f7-6ed5-41a9-9adb-7ba4f28f6ae3"
          }
        ],
        "name": [
          {
            "prefix": [
              "dr"
            ],
            "given": [
              "Ex"
            ],
            "family": "Ample"
          }
        ],
        "address": [
          {
            "line": [
              "Laboratoire Central Europenne",
              "Boulevard du Jardin Botanique 32"
            ],
            "postalCode": "1000",
            "city": "Brussels",
            "country": "Belgium"
          }
        ],
        "text": {
          "status": "generated",
          "div": "<div xmlns=\"http://www.w3.org/1999/xhtml\">Laboratory: Laboratoire Central Europenne, 1000 Brussels, Belgium</div>"
        }
      }
    }
  ],
  "type": "document",
  "timestamp": "2020-10-02T06:48:18Z"
}
