{
  "resourceType": "Bundle",
  "id": "c1bdc420-b80f-4248-b0cd-a654db8ee644",
  "meta": {
    "profile": [
      "http://hl7.eu/fhir/laboratory/StructureDefinition/Bundle-eu-lab"
    ]
  },
  "identifier": {
    "assigner": {
      "display": "HL7 Europe"
    },
    "system": "urn:oid:2.16.840.1.113883.2.51.999",
    "value": "6e2600f6-c85c-43bf-95e2-2e3ad62250f8"
  },
  "entry": [
    {
      "fullUrl": "urn:uuid:8744cf84-8933-40e8-88ad-e5b27796d7b8",
      "resource": {
        "resourceType": "Composition",
        "id": "8744cf84-8933-40e8-88ad-e5b27796d7b8",
        "meta": {
          "profile": [
            "http://hl7.eu/fhir/laboratory/StructureDefinition/Composition-eu-lab"
          ]
        },
        "identifier": {
          "assigner": {
            "display": "HL7 Europe"
          },
          "system": "urn:oid:2.16.840.1.113883.2.51.999",
          "value": "2acef21e-9039-4c6c-b376-8d82c21d8b0f"
        },
        "author": [
          {
            "reference": "urn:uuid:95888709-f512-46e0-a8c1-a43d7034aff4"
          }
        ],
        "category": [
          {
            "coding": [
              {
                "code": "26436-6",
                "system": "http://loinc.org",
                "display": "Laboratory studies (set)"
              }
            ]
          }
        ],
        "type": {
          "coding": [
            {
              "code": "11502-2",
              "system": "http://loinc.org",
              "display": "Laboratory report"
            }
          ],
          "text": "Laboratory Report"
        },
        "section": [
          {
            "code": {
              "coding": [
                {
                  "code": "26436-6",
                  "system": "http://loinc.org",
                  "display": "Laboratory studies (set)"
                }
              ],
              "text": "Laboratory studies"
            },
            "section": [
              {
                "code": {
                  "coding": [
                    {
                      "code": "$18719-5",
                      "system": "http://loinc.org",
                      "display": "Chemistry studies (set)"
                    }
                  ],
                  "text": "Chemistry"
                },
                "entry": [
                  {
                    "reference": "urn:uuid:8b70b179-0ff4-41ca-aef8-fe8352d6b05d"
                  },
                  {
                    "reference": "urn:uuid:c48e4e80-7fc6-4218-a33a-7c43a9550e86"
                  },
                  {
                    "reference": "urn:uuid:4c5cefeb-a9e1-4f41-bf3c-c254c32b8f80"
                  },
                  {
                    "reference": "urn:uuid:595beda5-5a1b-4ee2-9855-3f7764287d56"
                  },
                  {
                    "reference": "urn:uuid:109bfe37-93f0-4eec-b324-25a39cf55d54"
                  },
                  {
                    "reference": "urn:uuid:904e7e10-9fcf-4ffe-9566-1f3b82539ed3"
                  },
                  {
                    "reference": "urn:uuid:3c2d20fb-50ee-4ced-a8b9-a198b5755d56"
                  },
                  {
                    "reference": "urn:uuid:4bec76d0-a0a7-4c5a-b34b-39ef2edbbe72"
                  },
                  {
                    "reference": "urn:uuid:d23c9fe7-4f2c-42b3-a423-7db98a3f9723"
                  },
                  {
                    "reference": "urn:uuid:49209900-4248-4e90-9a9a-57d4e07e5ffa"
                  },
                  {
                    "reference": "urn:uuid:b8c0fc6b-099d-47db-8f20-f9b2ae7d1bae"
                  },
                  {
                    "reference": "urn:uuid:086661b7-45e9-4167-accc-91f2eb0d6dc3"
                  },
                  {
                    "reference": "urn:uuid:450efe91-14c5-4fc5-bac9-ce487397c248"
                  },
                  {
                    "reference": "urn:uuid:cf978156-79d6-402e-b492-ae6df86c61ae"
                  },
                  {
                    "reference": "urn:uuid:598c36a8-998f-41a2-b241-5b34b4281027"
                  },
                  {
                    "reference": "urn:uuid:5a19743a-7764-4d59-a423-8458edc45d2e"
                  },
                  {
                    "reference": "urn:uuid:2ad1ea2a-2adc-4d5b-b955-ef67e8822b68"
                  },
                  {
                    "reference": "urn:uuid:b2025d4c-6259-47ac-8e44-51d4058faec1"
                  },
                  {
                    "reference": "urn:uuid:4f8c4f13-0678-4bed-a0ae-eb2f492784dd"
                  }
                ],
                "text": {
                  "status": "generated",
                  "div": "<div xmlns=\"http://www.w3.org/1999/xhtml\"><h3>Chemistry</h3><table class=\"hl7__eu__lab__report\"><thead><tr><th>Test</th><th>27-MAY-2018</th><th>Reference&#xA0;Range</th><th>Unit</th></tr></thead><tbody><tr><td>Glucose [Mass/volume] in Blood</td><td>97.2</td><td>70 - 140</td><td>mg/dL</td></tr><tr><td>Urea nitrogen [Mass/volume] in Blood</td><td>7.4</td><td>7 - 20</td><td>mg/dL</td></tr><tr><td>Creatinine [Mass/volume] in Blood</td><td><strong>3.2 H</strong></td><td>0.6 - 1.3</td><td>mg/dL</td></tr><tr><td>Calcium [Mass/volume] in Blood</td><td>9.6</td><td>8.5 - 10.5</td><td>mg/dL</td></tr><tr><td>Sodium [Moles/volume] in Blood</td><td>143.1</td><td>135 - 145</td><td>mmol/L</td></tr><tr><td>Potassium [Moles/volume] in Blood</td><td>4.1</td><td>3.6 - 5.1</td><td>mmol/L</td></tr><tr><td>Chloride [Moles/volume] in Blood</td><td><strong>108.5 H</strong></td><td>98 - 107</td><td>mmol/L</td></tr><tr><td>Carbon dioxide, total [Moles/volume] in Blood</td><td><strong>20.3 L</strong></td><td>22 - 32</td><td>mmol/L</td></tr><tr><td>Protein [Mass/volume] in Serum or Plasma</td><td>6.6</td><td>6 - 8.3</td><td>g/dL</td></tr><tr><td>Albumin [Mass/volume] in Serum or Plasma</td><td>3.7</td><td>3.5 - 5</td><td>g/dL</td></tr><tr><td>Globulin [Mass/volume] in Serum by calculation</td><td>3.2</td><td>2 - 3.9</td><td>g/L</td></tr><tr><td>Bilirubin.total [Mass/volume] in Serum or Plasma</td><td>1.0</td><td>0.3 - 1.2</td><td>mg/dL</td></tr><tr><td>Alkaline phosphatase [Enzymatic activity/volume] in Serum or Plasma</td><td>131.6</td><td>32 - 150</td><td>U/L</td></tr><tr><td>Alanine aminotransferase [Enzymatic activity/volume] in Serum or Plasma</td><td>22.2</td><td>13 - 32</td><td>U/L</td></tr><tr><td>Aspartate aminotransferase [Enzymatic activity/volume] in Serum or Plasma</td><td><strong>7.7 L</strong></td><td>10 - 40</td><td>U/L</td></tr><tr><td>Cholesterol [Mass/volume] in Serum or Plasma</td><td>168.5</td><td>130 - 200</td><td>mg/dL</td></tr><tr><td>Triglyceride [Mass/volume] in Serum or Plasma</td><td>180.0</td><td>0 - 199</td><td>mg/dL</td></tr><tr><td>Cholesterol in LDL [Mass/volume] in Serum or Plasma by Direct assay</td><td>83.9</td><td>0 - 130</td><td>mg/dL</td></tr><tr><td>Cholesterol in HDL [Mass/volume] in Serum or Plasma</td><td>51.3</td><td>50 - 100</td><td>mg/dL</td></tr></tbody></table></div>"
                },
                "title": "Chemistry"
              }
            ],
            "title": "Laboratory Report"
          },
          {
            "text": {
              "status": "generated",
              "div": "<div xmlns=\"http://www.w3.org/1999/xhtml\"><h3>Annotation</h3><table class=\"hl7__eu__lab__report\"><tr><th>Conclusion and Recommendations based on this report and previous findings known to us</th></tr><tr><td>The patient shows significantly elevated creatinine, suggesting impaired renal function, with mild hyperchloremia and low total CO₂, which may indicate metabolic acidosis. Other parameters, including glucose, electrolytes, liver enzymes, and lipids, are within normal limits. Renal impairment should be further evaluated and correlated clinically.</td></tr></table></div>"
            },
            "code": {
              "coding": [
                {
                  "system": "http://loinc.org",
                  "code": "48767-8",
                  "display": "Annotation comment"
                }
              ]
            },
            "title": "Annotation comment"
          }
        ],
        "status": "final",
        "subject": {
          "reference": "urn:uuid:cf655f52-3e67-4aa4-af9b-f22218b24849",
          "display": "Aniela Prażmo"
        },
        "date": "2018-05-27T15:25:25Z",
        "title": "Laboratory Report",
        "confidentiality": "N"
      }
    },
    {
      "fullUrl": "urn:uuid:32875f8d-6b21-4384-bddb-2012b07c595c",
      "resource": {
        "resourceType": "DiagnosticReport",
        "id": "32875f8d-6b21-4384-bddb-2012b07c595c",
        "meta": {
          "profile": [
            "http://hl7.eu/fhir/laboratory/StructureDefinition/DiagnosticReport-eu-lab"
          ]
        },
        "identifier": [
          {
            "assigner": {
              "display": "HL7 Europe"
            },
            "system": "urn:oid:2.16.840.1.113883.2.51.999",
            "value": "7101965e-c3df-4d76-8b0e-6531407c91ba"
          }
        ],
        "extension": [
          {
            "url": "http://hl7.org/fhir/5.0/StructureDefinition/extension-DiagnosticReport.composition",
            "valueReference": {
              "reference": "urn:uuid:2acef21e-9039-4c6c-b376-8d82c21d8b0f"
            }
          }
        ],
        "category": [
          {
            "coding": [
              {
                "code": "26436-6",
                "system": "http://loinc.org",
                "display": "Laboratory studies (set)"
              }
            ]
          }
        ],
        "specimen": [
          {
            "reference": "urn:uuid:7bb646a2-d5f5-488c-b087-612f3e74862a"
          },
          {
            "reference": "urn:uuid:d73079a2-52f9-4315-8187-bd2fe27974da"
          },
          {
            "reference": "urn:uuid:d0fb2061-cfbf-4064-90a5-c06ca6114610"
          }
        ],
        "result": [
          {
            "reference": "urn:uuid:8b70b179-0ff4-41ca-aef8-fe8352d6b05d"
          },
          {
            "reference": "urn:uuid:c48e4e80-7fc6-4218-a33a-7c43a9550e86"
          },
          {
            "reference": "urn:uuid:4c5cefeb-a9e1-4f41-bf3c-c254c32b8f80"
          },
          {
            "reference": "urn:uuid:595beda5-5a1b-4ee2-9855-3f7764287d56"
          },
          {
            "reference": "urn:uuid:109bfe37-93f0-4eec-b324-25a39cf55d54"
          },
          {
            "reference": "urn:uuid:904e7e10-9fcf-4ffe-9566-1f3b82539ed3"
          },
          {
            "reference": "urn:uuid:3c2d20fb-50ee-4ced-a8b9-a198b5755d56"
          },
          {
            "reference": "urn:uuid:4bec76d0-a0a7-4c5a-b34b-39ef2edbbe72"
          },
          {
            "reference": "urn:uuid:d23c9fe7-4f2c-42b3-a423-7db98a3f9723"
          },
          {
            "reference": "urn:uuid:49209900-4248-4e90-9a9a-57d4e07e5ffa"
          },
          {
            "reference": "urn:uuid:b8c0fc6b-099d-47db-8f20-f9b2ae7d1bae"
          },
          {
            "reference": "urn:uuid:086661b7-45e9-4167-accc-91f2eb0d6dc3"
          },
          {
            "reference": "urn:uuid:450efe91-14c5-4fc5-bac9-ce487397c248"
          },
          {
            "reference": "urn:uuid:cf978156-79d6-402e-b492-ae6df86c61ae"
          },
          {
            "reference": "urn:uuid:598c36a8-998f-41a2-b241-5b34b4281027"
          },
          {
            "reference": "urn:uuid:5a19743a-7764-4d59-a423-8458edc45d2e"
          },
          {
            "reference": "urn:uuid:2ad1ea2a-2adc-4d5b-b955-ef67e8822b68"
          },
          {
            "reference": "urn:uuid:b2025d4c-6259-47ac-8e44-51d4058faec1"
          },
          {
            "reference": "urn:uuid:4f8c4f13-0678-4bed-a0ae-eb2f492784dd"
          }
        ],
        "status": "registered",
        "code": {
          "coding": [
            {
              "code": "11502-2",
              "system": "http://loinc.org",
              "display": "Laboratory report"
            }
          ]
        },
        "subject": {
          "reference": "urn:uuid:cf655f52-3e67-4aa4-af9b-f22218b24849",
          "display": "Aniela Prażmo"
        }
      }
    },
    {
      "fullUrl": "urn:uuid:cf655f52-3e67-4aa4-af9b-f22218b24849",
      "resource": {
        "resourceType": "Patient",
        "id": "cf655f52-3e67-4aa4-af9b-f22218b24849",
        "meta": {
          "security": [
            {
              "system": "http://terminology.hl7.org/CodeSystem/v3-ActReason",
              "code": "HTEST"
            },
            {
              "system": "http://terminology.hl7.org/CodeSystem/v3-ActReason",
              "code": "TRAIN"
            }
          ],
          "tag": [
            {
              "system": "https://synderai.net/fhir/CodeSystem/tags",
              "code": "synthetic",
              "display": "SYNDERAI Synthetic data"
            }
          ],
          "profile": [
            "http://hl7.eu/fhir/base/StructureDefinition/patient-eu-core"
          ]
        },
        "identifier": [
          {
            "type": {
              "coding": [
                {
                  "code": "PT",
                  "system": "http://terminology.hl7.org/CodeSystem/v2-0203"
                }
              ]
            },
            "system": "http://ec.europa.eu/identifier/eci",
            "value": "9657-869171-7"
          },
          {
            "type": {
              "coding": [
                {
                  "code": "MR",
                  "system": "http://terminology.hl7.org/CodeSystem/v2-0203"
                }
              ]
            },
            "system": "http://local.setting.eu/identifier",
            "value": "ab00158c-e2d0-01e4-6cf5-730949937551"
          }
        ],
        "name": [
          {
            "family": "Prażmo"
          },
          {
            "given": [
              "Aniela"
            ]
          },
          {
            "text": "Aniela Prażmo"
          }
        ],
        "address": [
          {
            "line": [
              "pl. Kołłątaja 62/43"
            ],
            "use": "home",
            "type": "physical",
            "postalCode": "97-200",
            "city": "Tomaszów Mazowiecki",
            "country": "Poland"
          }
        ],
        "telecom": [
          {
            "system": "phone",
            "value": "+48 782 809 233"
          }
        ],
        "extension": [
          {
            "url": "http://hl7.org/fhir/StructureDefinition/patient-nationality",
            "valueCodeableConcept": {
              "coding": [
                {
                  "code": "PL",
                  "system": "http://hl7.org/fhir/ValueSet/country"
                }
              ]
            }
          }
        ],
        "text": {
          "status": "generated",
          "div": "<div xmlns=\"http://www.w3.org/1999/xhtml\"><table class=\"hl7__ips\"><tr><td>Aniela Prażmo</td><td>female</td><td>08-Feb-1941</td></tr></table></div>"
        },
        "gender": "female",
        "birthDate": "1941-02-08"
      }
    },
    {
      "fullUrl": "urn:uuid:56afb3d7-639f-49aa-9f2e-100fcd7c8786",
      "resource": {
        "resourceType": "ServiceRequest",
        "id": "56afb3d7-639f-49aa-9f2e-100fcd7c8786",
        "meta": {
          "profile": [
            "http://hl7.eu/fhir/laboratory/StructureDefinition/ServiceRequest-eu-lab"
          ]
        },
        "identifier": [
          {
            "system": "http://example.org",
            "value": "daff8f8a-7b9a-4069-8e62-70274455aa49"
          }
        ],
        "specimen": [
          {
            "reference": "urn:uuid:7bb646a2-d5f5-488c-b087-612f3e74862a"
          },
          {
            "reference": "urn:uuid:d73079a2-52f9-4315-8187-bd2fe27974da"
          },
          {
            "reference": "urn:uuid:d0fb2061-cfbf-4064-90a5-c06ca6114610"
          }
        ],
        "reasonCode": [
          {
            "coding": [
              {
                "code": "64859006",
                "system": "http://snomed.info/sct",
                "display": "Osteoporosis"
              }
            ]
          },
          {
            "coding": [
              {
                "code": "55822004",
                "system": "http://snomed.info/sct",
                "display": "Hyperlipidemia"
              }
            ]
          },
          {
            "coding": [
              {
                "code": "414545008",
                "system": "http://snomed.info/sct",
                "display": "Ischemic heart disease"
              }
            ]
          },
          {
            "coding": [
              {
                "code": "59621000",
                "system": "http://snomed.info/sct",
                "display": "Essential hypertension"
              }
            ]
          },
          {
            "coding": [
              {
                "code": "40055000",
                "system": "http://snomed.info/sct",
                "display": "Chronic sinusitis"
              }
            ]
          }
        ],
        "status": "active",
        "intent": "order",
        "code": {
          "coding": [
            {
              "code": "108252007",
              "system": "http://snomed.info/sct",
              "display": "Laboratory procedure"
            }
          ]
        },
        "subject": {
          "reference": "urn:uuid:cf655f52-3e67-4aa4-af9b-f22218b24849",
          "display": "Aniela Prażmo"
        },
        "requester": {
          "reference": "urn:uuid:66690b78-7327-4fcc-b46e-75373b07cb50"
        }
      }
    },
    {
      "fullUrl": "urn:uuid:66690b78-7327-4fcc-b46e-75373b07cb50",
      "resource": {
        "resourceType": "PractitionerRole",
        "id": "66690b78-7327-4fcc-b46e-75373b07cb50",
        "meta": {
          "profile": [
            "http://hl7.eu/fhir/base/StructureDefinition/practitionerRole-eu"
          ]
        },
        "text": {
          "status": "generated",
          "div": "<div xmlns=\"http://www.w3.org/1999/xhtml\">Provider Role Id: 66690b78-7327-4fcc-b46e-75373b07cb50</div>"
        },
        "organization": {
          "reference": "urn:uuid:08ce6fda-2ec8-43b9-bc1b-41fede1d0bc0"
        }
      }
    },
    {
      "fullUrl": "urn:uuid:08ce6fda-2ec8-43b9-bc1b-41fede1d0bc0",
      "resource": {
        "resourceType": "Organization",
        "id": "08ce6fda-2ec8-43b9-bc1b-41fede1d0bc0",
        "meta": {
          "profile": [
            "http://hl7.eu/fhir/base/StructureDefinition/organization-eu"
          ]
        },
        "identifier": [
          {
            "assigner": {
              "display": "HL7 Europe"
            },
            "system": "urn:oid:2.16.840.1.113883.2.51.999",
            "value": "cd16bd5a-ef3d-4eb7-92f5-6e2bbb812fc3"
          }
        ],
        "address": [
          {
            "city": "Tomaszów Mazowiecki",
            "postalCode": "97-200",
            "country": "Poland"
          }
        ],
        "text": {
          "status": "generated",
          "div": "<div xmlns=\"http://www.w3.org/1999/xhtml\">Provider Organization: Poradnia rehabilitacyjna</div>"
        },
        "name": "Poradnia rehabilitacyjna"
      }
    },
    {
      "fullUrl": "urn:uuid:7bb646a2-d5f5-488c-b087-612f3e74862a",
      "resource": {
        "resourceType": "Specimen",
        "id": "7bb646a2-d5f5-488c-b087-612f3e74862a",
        "meta": {
          "profile": [
            "http://hl7.eu/fhir/laboratory/StructureDefinition/Specimen-eu-lab"
          ]
        },
        "collection": {
          "collectedDateTime": "2018-05-27"
        },
        "text": {
          "status": "generated",
          "div": "<div xmlns=\"http://www.w3.org/1999/xhtml\"><table class=\"hl7__eu__lab__report\"><tr><th>Specimen</th><th>Collection Date</th></tr><tr><td>Whole blood specimen (specimen)</td><td><span class=\"nb\">27-May-2018</span></td></tr></table></div>"
        },
        "type": {
          "coding": [
            {
              "code": "258580003",
              "system": "http://snomed.info/sct",
              "display": "Whole blood specimen (specimen)"
            }
          ]
        }
      }
    },
    {
      "fullUrl": "urn:uuid:d73079a2-52f9-4315-8187-bd2fe27974da",
      "resource": {
        "resourceType": "Specimen",
        "id": "d73079a2-52f9-4315-8187-bd2fe27974da",
        "meta": {
          "profile": [
            "http://hl7.eu/fhir/laboratory/StructureDefinition/Specimen-eu-lab"
          ]
        },
        "collection": {
          "collectedDateTime": "2018-05-27"
        },
        "text": {
          "status": "generated",
          "div": "<div xmlns=\"http://www.w3.org/1999/xhtml\"><table class=\"hl7__eu__lab__report\"><tr><th>Specimen</th><th>Collection Date</th></tr><tr><td>Acellular blood (serum or plasma) specimen</td><td><span class=\"nb\">27-May-2018</span></td></tr></table></div>"
        },
        "type": {
          "coding": [
            {
              "code": "122592007",
              "system": "http://snomed.info/sct",
              "display": "Acellular blood (serum or plasma) specimen"
            }
          ]
        }
      }
    },
    {
      "fullUrl": "urn:uuid:d0fb2061-cfbf-4064-90a5-c06ca6114610",
      "resource": {
        "resourceType": "Specimen",
        "id": "d0fb2061-cfbf-4064-90a5-c06ca6114610",
        "meta": {
          "profile": [
            "http://hl7.eu/fhir/laboratory/StructureDefinition/Specimen-eu-lab"
          ]
        },
        "collection": {
          "collectedDateTime": "2018-05-27"
        },
        "text": {
          "status": "generated",
          "div": "<div xmlns=\"http://www.w3.org/1999/xhtml\"><table class=\"hl7__eu__lab__report\"><tr><th>Specimen</th><th>Collection Date</th></tr><tr><td>Serum specimen</td><td><span class=\"nb\">27-May-2018</span></td></tr></table></div>"
        },
        "type": {
          "coding": [
            {
              "code": "119364003",
              "system": "http://snomed.info/sct",
              "display": "Serum specimen"
            }
          ]
        }
      }
    },
    {
      "fullUrl": "urn:uuid:8b70b179-0ff4-41ca-aef8-fe8352d6b05d",
      "resource": {
        "resourceType": "Observation",
        "id": "8b70b179-0ff4-41ca-aef8-fe8352d6b05d",
        "meta": {
          "profile": [
            "http://hl7.eu/fhir/laboratory/StructureDefinition/Observation-resultslab-eu-lab"
          ]
        },
        "performer": [
          {
            "display": "The Central European Lab"
          }
        ],
        "category": [
          {
            "coding": [
              {
                "system": "http://terminology.hl7.org/CodeSystem/observation-category",
                "code": "laboratory"
              }
            ]
          }
        ],
        "code": {
          "coding": [
            {
              "code": "2339-0",
              "system": "http://loinc.org",
              "display": "Glucose [Mass/volume] in Blood"
            }
          ],
          "text": "Glucose [Mass/volume] in Blood"
        },
        "valueQuantity": {
          "system": "http://unitsofmeasure.org",
          "value": 97.2,
          "unit": "mg/dL",
          "code": "mg/dL"
        },
        "referenceRange": [
          {
            "low": {
              "value": 70,
              "code": "mg/dL",
              "system": "http://unitsofmeasure.org"
            }
          },
          {
            "high": {
              "value": 140,
              "code": "mg/dL",
              "system": "http://unitsofmeasure.org"
            }
          }
        ],
        "text": {
          "status": "generated",
          "div": "<div xmlns=\"http://www.w3.org/1999/xhtml\"><table class=\"hl7__eu__lab__report\"><tr><th>Test</th><th>27-May-2018</th><th>Reference&#xA0;Range</th><th>Unit</th></tr><tr><td>Glucose [Mass/volume] in Blood</td><td>97.2</td><td>70 - 140</td><td></td><td>mg/dL</td></tr></table></div>"
        },
        "status": "final",
        "subject": {
          "reference": "urn:uuid:cf655f52-3e67-4aa4-af9b-f22218b24849",
          "display": "Aniela Prażmo"
        },
        "effectiveDateTime": "2018-05-27T13:25:25Z",
        "specimen": {
          "reference": "urn:uuid:7bb646a2-d5f5-488c-b087-612f3e74862a"
        }
      }
    },
    {
      "fullUrl": "urn:uuid:c48e4e80-7fc6-4218-a33a-7c43a9550e86",
      "resource": {
        "resourceType": "Observation",
        "id": "c48e4e80-7fc6-4218-a33a-7c43a9550e86",
        "meta": {
          "profile": [
            "http://hl7.eu/fhir/laboratory/StructureDefinition/Observation-resultslab-eu-lab"
          ]
        },
        "performer": [
          {
            "display": "The Central European Lab"
          }
        ],
        "category": [
          {
            "coding": [
              {
                "system": "http://terminology.hl7.org/CodeSystem/observation-category",
                "code": "laboratory"
              }
            ]
          }
        ],
        "code": {
          "coding": [
            {
              "code": "6299-2",
              "system": "http://loinc.org",
              "display": "Urea nitrogen [Mass/volume] in Blood"
            }
          ],
          "text": "Urea nitrogen [Mass/volume] in Blood"
        },
        "valueQuantity": {
          "system": "http://unitsofmeasure.org",
          "value": 7.4,
          "unit": "mg/dL",
          "code": "mg/dL"
        },
        "referenceRange": [
          {
            "low": {
              "value": 7,
              "code": "mg/dL",
              "system": "http://unitsofmeasure.org"
            }
          },
          {
            "high": {
              "value": 20,
              "code": "mg/dL",
              "system": "http://unitsofmeasure.org"
            }
          }
        ],
        "text": {
          "status": "generated",
          "div": "<div xmlns=\"http://www.w3.org/1999/xhtml\"><table class=\"hl7__eu__lab__report\"><tr><th>Test</th><th>27-May-2018</th><th>Reference&#xA0;Range</th><th>Unit</th></tr><tr><td>Urea nitrogen [Mass/volume] in Blood</td><td>7.4</td><td>7 - 20</td><td></td><td>mg/dL</td></tr></table></div>"
        },
        "status": "final",
        "subject": {
          "reference": "urn:uuid:cf655f52-3e67-4aa4-af9b-f22218b24849",
          "display": "Aniela Prażmo"
        },
        "effectiveDateTime": "2018-05-27T13:25:25Z",
        "specimen": {
          "reference": "urn:uuid:7bb646a2-d5f5-488c-b087-612f3e74862a"
        }
      }
    },
    {
      "fullUrl": "urn:uuid:4c5cefeb-a9e1-4f41-bf3c-c254c32b8f80",
      "resource": {
        "resourceType": "Observation",
        "id": "4c5cefeb-a9e1-4f41-bf3c-c254c32b8f80",
        "meta": {
          "profile": [
            "http://hl7.eu/fhir/laboratory/StructureDefinition/Observation-resultslab-eu-lab"
          ]
        },
        "performer": [
          {
            "display": "The Central European Lab"
          }
        ],
        "category": [
          {
            "coding": [
              {
                "system": "http://terminology.hl7.org/CodeSystem/observation-category",
                "code": "laboratory"
              }
            ]
          }
        ],
        "code": {
          "coding": [
            {
              "code": "38483-4",
              "system": "http://loinc.org",
              "display": "Creatinine [Mass/volume] in Blood"
            }
          ],
          "text": "Creatinine [Mass/volume] in Blood"
        },
        "valueQuantity": {
          "system": "http://unitsofmeasure.org",
          "value": 3.2,
          "unit": "mg/dL",
          "code": "mg/dL"
        },
        "referenceRange": [
          {
            "low": {
              "value": 0.6,
              "code": "mg/dL",
              "system": "http://unitsofmeasure.org"
            }
          },
          {
            "high": {
              "value": 1.3,
              "code": "mg/dL",
              "system": "http://unitsofmeasure.org"
            }
          }
        ],
        "interpretation": [
          {
            "coding": [
              {
                "code": "H",
                "system": "http://terminology.hl7.org/CodeSystem/v3-ObservationInterpretation",
                "display": "High"
              }
            ]
          }
        ],
        "text": {
          "status": "generated",
          "div": "<div xmlns=\"http://www.w3.org/1999/xhtml\"><table class=\"hl7__eu__lab__report\"><tr><th>Test</th><th>27-May-2018</th><th>Reference&#xA0;Range</th><th>Unit</th></tr><tr><td>Creatinine [Mass/volume] in Blood</td><td>3.2</td><td>0.6 - 1.3</td><td>H</td><td>mg/dL</td></tr></table></div>"
        },
        "status": "final",
        "subject": {
          "reference": "urn:uuid:cf655f52-3e67-4aa4-af9b-f22218b24849",
          "display": "Aniela Prażmo"
        },
        "effectiveDateTime": "2018-05-27T13:25:25Z",
        "specimen": {
          "reference": "urn:uuid:7bb646a2-d5f5-488c-b087-612f3e74862a"
        }
      }
    },
    {
      "fullUrl": "urn:uuid:595beda5-5a1b-4ee2-9855-3f7764287d56",
      "resource": {
        "resourceType": "Observation",
        "id": "595beda5-5a1b-4ee2-9855-3f7764287d56",
        "meta": {
          "profile": [
            "http://hl7.eu/fhir/laboratory/StructureDefinition/Observation-resultslab-eu-lab"
          ]
        },
        "performer": [
          {
            "display": "The Central European Lab"
          }
        ],
        "category": [
          {
            "coding": [
              {
                "system": "http://terminology.hl7.org/CodeSystem/observation-category",
                "code": "laboratory"
              }
            ]
          }
        ],
        "code": {
          "coding": [
            {
              "code": "49765-1",
              "system": "http://loinc.org",
              "display": "Calcium [Mass/volume] in Blood"
            }
          ],
          "text": "Calcium [Mass/volume] in Blood"
        },
        "valueQuantity": {
          "system": "http://unitsofmeasure.org",
          "value": 9.6,
          "unit": "mg/dL",
          "code": "mg/dL"
        },
        "referenceRange": [
          {
            "low": {
              "value": 8.5,
              "code": "mg/dL",
              "system": "http://unitsofmeasure.org"
            }
          },
          {
            "high": {
              "value": 10.5,
              "code": "mg/dL",
              "system": "http://unitsofmeasure.org"
            }
          }
        ],
        "text": {
          "status": "generated",
          "div": "<div xmlns=\"http://www.w3.org/1999/xhtml\"><table class=\"hl7__eu__lab__report\"><tr><th>Test</th><th>27-May-2018</th><th>Reference&#xA0;Range</th><th>Unit</th></tr><tr><td>Calcium [Mass/volume] in Blood</td><td>9.6</td><td>8.5 - 10.5</td><td></td><td>mg/dL</td></tr></table></div>"
        },
        "status": "final",
        "subject": {
          "reference": "urn:uuid:cf655f52-3e67-4aa4-af9b-f22218b24849",
          "display": "Aniela Prażmo"
        },
        "effectiveDateTime": "2018-05-27T13:25:25Z",
        "specimen": {
          "reference": "urn:uuid:7bb646a2-d5f5-488c-b087-612f3e74862a"
        }
      }
    },
    {
      "fullUrl": "urn:uuid:109bfe37-93f0-4eec-b324-25a39cf55d54",
      "resource": {
        "resourceType": "Observation",
        "id": "109bfe37-93f0-4eec-b324-25a39cf55d54",
        "meta": {
          "profile": [
            "http://hl7.eu/fhir/laboratory/StructureDefinition/Observation-resultslab-eu-lab"
          ]
        },
        "performer": [
          {
            "display": "The Central European Lab"
          }
        ],
        "category": [
          {
            "coding": [
              {
                "system": "http://terminology.hl7.org/CodeSystem/observation-category",
                "code": "laboratory"
              }
            ]
          }
        ],
        "code": {
          "coding": [
            {
              "code": "2947-0",
              "system": "http://loinc.org",
              "display": "Sodium [Moles/volume] in Blood"
            }
          ],
          "text": "Sodium [Moles/volume] in Blood"
        },
        "valueQuantity": {
          "system": "http://unitsofmeasure.org",
          "value": 143.1,
          "unit": "mmol/L",
          "code": "mmol/L"
        },
        "referenceRange": [
          {
            "low": {
              "value": 135,
              "code": "mmol/L",
              "system": "http://unitsofmeasure.org"
            }
          },
          {
            "high": {
              "value": 145,
              "code": "mmol/L",
              "system": "http://unitsofmeasure.org"
            }
          }
        ],
        "text": {
          "status": "generated",
          "div": "<div xmlns=\"http://www.w3.org/1999/xhtml\"><table class=\"hl7__eu__lab__report\"><tr><th>Test</th><th>27-May-2018</th><th>Reference&#xA0;Range</th><th>Unit</th></tr><tr><td>Sodium [Moles/volume] in Blood</td><td>143.1</td><td>135 - 145</td><td></td><td>mmol/L</td></tr></table></div>"
        },
        "status": "final",
        "subject": {
          "reference": "urn:uuid:cf655f52-3e67-4aa4-af9b-f22218b24849",
          "display": "Aniela Prażmo"
        },
        "effectiveDateTime": "2018-05-27T13:25:25Z",
        "specimen": {
          "reference": "urn:uuid:7bb646a2-d5f5-488c-b087-612f3e74862a"
        }
      }
    },
    {
      "fullUrl": "urn:uuid:904e7e10-9fcf-4ffe-9566-1f3b82539ed3",
      "resource": {
        "resourceType": "Observation",
        "id": "904e7e10-9fcf-4ffe-9566-1f3b82539ed3",
        "meta": {
          "profile": [
            "http://hl7.eu/fhir/laboratory/StructureDefinition/Observation-resultslab-eu-lab"
          ]
        },
        "performer": [
          {
            "display": "The Central European Lab"
          }
        ],
        "category": [
          {
            "coding": [
              {
                "system": "http://terminology.hl7.org/CodeSystem/observation-category",
                "code": "laboratory"
              }
            ]
          }
        ],
        "code": {
          "coding": [
            {
              "code": "6298-4",
              "system": "http://loinc.org",
              "display": "Potassium [Moles/volume] in Blood"
            }
          ],
          "text": "Potassium [Moles/volume] in Blood"
        },
        "valueQuantity": {
          "system": "http://unitsofmeasure.org",
          "value": 4.1,
          "unit": "mmol/L",
          "code": "mmol/L"
        },
        "referenceRange": [
          {
            "low": {
              "value": 3.6,
              "code": "mmol/L",
              "system": "http://unitsofmeasure.org"
            }
          },
          {
            "high": {
              "value": 5.1,
              "code": "mmol/L",
              "system": "http://unitsofmeasure.org"
            }
          }
        ],
        "text": {
          "status": "generated",
          "div": "<div xmlns=\"http://www.w3.org/1999/xhtml\"><table class=\"hl7__eu__lab__report\"><tr><th>Test</th><th>27-May-2018</th><th>Reference&#xA0;Range</th><th>Unit</th></tr><tr><td>Potassium [Moles/volume] in Blood</td><td>4.1</td><td>3.6 - 5.1</td><td></td><td>mmol/L</td></tr></table></div>"
        },
        "status": "final",
        "subject": {
          "reference": "urn:uuid:cf655f52-3e67-4aa4-af9b-f22218b24849",
          "display": "Aniela Prażmo"
        },
        "effectiveDateTime": "2018-05-27T13:25:25Z",
        "specimen": {
          "reference": "urn:uuid:7bb646a2-d5f5-488c-b087-612f3e74862a"
        }
      }
    },
    {
      "fullUrl": "urn:uuid:3c2d20fb-50ee-4ced-a8b9-a198b5755d56",
      "resource": {
        "resourceType": "Observation",
        "id": "3c2d20fb-50ee-4ced-a8b9-a198b5755d56",
        "meta": {
          "profile": [
            "http://hl7.eu/fhir/laboratory/StructureDefinition/Observation-resultslab-eu-lab"
          ]
        },
        "performer": [
          {
            "display": "The Central European Lab"
          }
        ],
        "category": [
          {
            "coding": [
              {
                "system": "http://terminology.hl7.org/CodeSystem/observation-category",
                "code": "laboratory"
              }
            ]
          }
        ],
        "code": {
          "coding": [
            {
              "code": "2069-3",
              "system": "http://loinc.org",
              "display": "Chloride [Moles/volume] in Blood"
            }
          ],
          "text": "Chloride [Moles/volume] in Blood"
        },
        "valueQuantity": {
          "system": "http://unitsofmeasure.org",
          "value": 108.5,
          "unit": "mmol/L",
          "code": "mmol/L"
        },
        "referenceRange": [
          {
            "low": {
              "value": 98,
              "code": "mmol/L",
              "system": "http://unitsofmeasure.org"
            }
          },
          {
            "high": {
              "value": 107,
              "code": "mmol/L",
              "system": "http://unitsofmeasure.org"
            }
          }
        ],
        "interpretation": [
          {
            "coding": [
              {
                "code": "H",
                "system": "http://terminology.hl7.org/CodeSystem/v3-ObservationInterpretation",
                "display": "High"
              }
            ]
          }
        ],
        "text": {
          "status": "generated",
          "div": "<div xmlns=\"http://www.w3.org/1999/xhtml\"><table class=\"hl7__eu__lab__report\"><tr><th>Test</th><th>27-May-2018</th><th>Reference&#xA0;Range</th><th>Unit</th></tr><tr><td>Chloride [Moles/volume] in Blood</td><td>108.5</td><td>98 - 107</td><td>H</td><td>mmol/L</td></tr></table></div>"
        },
        "status": "final",
        "subject": {
          "reference": "urn:uuid:cf655f52-3e67-4aa4-af9b-f22218b24849",
          "display": "Aniela Prażmo"
        },
        "effectiveDateTime": "2018-05-27T13:25:25Z",
        "specimen": {
          "reference": "urn:uuid:7bb646a2-d5f5-488c-b087-612f3e74862a"
        }
      }
    },
    {
      "fullUrl": "urn:uuid:4bec76d0-a0a7-4c5a-b34b-39ef2edbbe72",
      "resource": {
        "resourceType": "Observation",
        "id": "4bec76d0-a0a7-4c5a-b34b-39ef2edbbe72",
        "meta": {
          "profile": [
            "http://hl7.eu/fhir/laboratory/StructureDefinition/Observation-resultslab-eu-lab"
          ]
        },
        "performer": [
          {
            "display": "The Central European Lab"
          }
        ],
        "category": [
          {
            "coding": [
              {
                "system": "http://terminology.hl7.org/CodeSystem/observation-category",
                "code": "laboratory"
              }
            ]
          }
        ],
        "code": {
          "coding": [
            {
              "code": "20565-8",
              "system": "http://loinc.org",
              "display": "Carbon dioxide, total [Moles/volume] in Blood"
            }
          ],
          "text": "Carbon dioxide, total [Moles/volume] in Blood"
        },
        "valueQuantity": {
          "system": "http://unitsofmeasure.org",
          "value": 20.3,
          "unit": "mmol/L",
          "code": "mmol/L"
        },
        "referenceRange": [
          {
            "low": {
              "value": 22,
              "code": "mmol/L",
              "system": "http://unitsofmeasure.org"
            }
          },
          {
            "high": {
              "value": 32,
              "code": "mmol/L",
              "system": "http://unitsofmeasure.org"
            }
          }
        ],
        "interpretation": [
          {
            "coding": [
              {
                "code": "L",
                "system": "http://terminology.hl7.org/CodeSystem/v3-ObservationInterpretation",
                "display": "Low"
              }
            ]
          }
        ],
        "text": {
          "status": "generated",
          "div": "<div xmlns=\"http://www.w3.org/1999/xhtml\"><table class=\"hl7__eu__lab__report\"><tr><th>Test</th><th>27-May-2018</th><th>Reference&#xA0;Range</th><th>Unit</th></tr><tr><td>Carbon dioxide, total [Moles/volume] in Blood</td><td>20.3</td><td>22 - 32</td><td>L</td><td>mmol/L</td></tr></table></div>"
        },
        "status": "final",
        "subject": {
          "reference": "urn:uuid:cf655f52-3e67-4aa4-af9b-f22218b24849",
          "display": "Aniela Prażmo"
        },
        "effectiveDateTime": "2018-05-27T13:25:25Z",
        "specimen": {
          "reference": "urn:uuid:7bb646a2-d5f5-488c-b087-612f3e74862a"
        }
      }
    },
    {
      "fullUrl": "urn:uuid:d23c9fe7-4f2c-42b3-a423-7db98a3f9723",
      "resource": {
        "resourceType": "Observation",
        "id": "d23c9fe7-4f2c-42b3-a423-7db98a3f9723",
        "meta": {
          "profile": [
            "http://hl7.eu/fhir/laboratory/StructureDefinition/Observation-resultslab-eu-lab"
          ]
        },
        "performer": [
          {
            "display": "The Central European Lab"
          }
        ],
        "category": [
          {
            "coding": [
              {
                "system": "http://terminology.hl7.org/CodeSystem/observation-category",
                "code": "laboratory"
              }
            ]
          }
        ],
        "code": {
          "coding": [
            {
              "code": "2885-2",
              "system": "http://loinc.org",
              "display": "Protein [Mass/volume] in Serum or Plasma"
            }
          ],
          "text": "Protein [Mass/volume] in Serum or Plasma"
        },
        "valueQuantity": {
          "system": "http://unitsofmeasure.org",
          "value": 6.6,
          "unit": "g/dL",
          "code": "g/dL"
        },
        "referenceRange": [
          {
            "low": {
              "value": 6,
              "code": "g/dL",
              "system": "http://unitsofmeasure.org"
            }
          },
          {
            "high": {
              "value": 8.3,
              "code": "g/dL",
              "system": "http://unitsofmeasure.org"
            }
          }
        ],
        "text": {
          "status": "generated",
          "div": "<div xmlns=\"http://www.w3.org/1999/xhtml\"><table class=\"hl7__eu__lab__report\"><tr><th>Test</th><th>27-May-2018</th><th>Reference&#xA0;Range</th><th>Unit</th></tr><tr><td>Protein [Mass/volume] in Serum or Plasma</td><td>6.6</td><td>6 - 8.3</td><td></td><td>g/dL</td></tr></table></div>"
        },
        "status": "final",
        "subject": {
          "reference": "urn:uuid:cf655f52-3e67-4aa4-af9b-f22218b24849",
          "display": "Aniela Prażmo"
        },
        "effectiveDateTime": "2018-05-27T13:25:25Z",
        "specimen": {
          "reference": "urn:uuid:d73079a2-52f9-4315-8187-bd2fe27974da"
        }
      }
    },
    {
      "fullUrl": "urn:uuid:49209900-4248-4e90-9a9a-57d4e07e5ffa",
      "resource": {
        "resourceType": "Observation",
        "id": "49209900-4248-4e90-9a9a-57d4e07e5ffa",
        "meta": {
          "profile": [
            "http://hl7.eu/fhir/laboratory/StructureDefinition/Observation-resultslab-eu-lab"
          ]
        },
        "performer": [
          {
            "display": "The Central European Lab"
          }
        ],
        "category": [
          {
            "coding": [
              {
                "system": "http://terminology.hl7.org/CodeSystem/observation-category",
                "code": "laboratory"
              }
            ]
          }
        ],
        "code": {
          "coding": [
            {
              "code": "1751-7",
              "system": "http://loinc.org",
              "display": "Albumin [Mass/volume] in Serum or Plasma"
            }
          ],
          "text": "Albumin [Mass/volume] in Serum or Plasma"
        },
        "valueQuantity": {
          "system": "http://unitsofmeasure.org",
          "value": 3.7,
          "unit": "g/dL",
          "code": "g/dL"
        },
        "referenceRange": [
          {
            "low": {
              "value": 3.5,
              "code": "g/dL",
              "system": "http://unitsofmeasure.org"
            }
          },
          {
            "high": {
              "value": 5,
              "code": "g/dL",
              "system": "http://unitsofmeasure.org"
            }
          }
        ],
        "text": {
          "status": "generated",
          "div": "<div xmlns=\"http://www.w3.org/1999/xhtml\"><table class=\"hl7__eu__lab__report\"><tr><th>Test</th><th>27-May-2018</th><th>Reference&#xA0;Range</th><th>Unit</th></tr><tr><td>Albumin [Mass/volume] in Serum or Plasma</td><td>3.7</td><td>3.5 - 5</td><td></td><td>g/dL</td></tr></table></div>"
        },
        "status": "final",
        "subject": {
          "reference": "urn:uuid:cf655f52-3e67-4aa4-af9b-f22218b24849",
          "display": "Aniela Prażmo"
        },
        "effectiveDateTime": "2018-05-27T13:25:25Z",
        "specimen": {
          "reference": "urn:uuid:d73079a2-52f9-4315-8187-bd2fe27974da"
        }
      }
    },
    {
      "fullUrl": "urn:uuid:b8c0fc6b-099d-47db-8f20-f9b2ae7d1bae",
      "resource": {
        "resourceType": "Observation",
        "id": "b8c0fc6b-099d-47db-8f20-f9b2ae7d1bae",
        "meta": {
          "profile": [
            "http://hl7.eu/fhir/laboratory/StructureDefinition/Observation-resultslab-eu-lab"
          ]
        },
        "performer": [
          {
            "display": "The Central European Lab"
          }
        ],
        "category": [
          {
            "coding": [
              {
                "system": "http://terminology.hl7.org/CodeSystem/observation-category",
                "code": "laboratory"
              }
            ]
          }
        ],
        "code": {
          "coding": [
            {
              "code": "10834-0",
              "system": "http://loinc.org",
              "display": "Globulin [Mass/volume] in Serum by calculation"
            }
          ],
          "text": "Globulin [Mass/volume] in Serum by calculation"
        },
        "valueQuantity": {
          "system": "http://unitsofmeasure.org",
          "value": 3.2,
          "unit": "g/L",
          "code": "g/L"
        },
        "referenceRange": [
          {
            "low": {
              "value": 2,
              "code": "g/L",
              "system": "http://unitsofmeasure.org"
            }
          },
          {
            "high": {
              "value": 3.9,
              "code": "g/L",
              "system": "http://unitsofmeasure.org"
            }
          }
        ],
        "text": {
          "status": "generated",
          "div": "<div xmlns=\"http://www.w3.org/1999/xhtml\"><table class=\"hl7__eu__lab__report\"><tr><th>Test</th><th>27-May-2018</th><th>Reference&#xA0;Range</th><th>Unit</th></tr><tr><td>Globulin [Mass/volume] in Serum by calculation</td><td>3.2</td><td>2 - 3.9</td><td></td><td>g/L</td></tr></table></div>"
        },
        "status": "final",
        "subject": {
          "reference": "urn:uuid:cf655f52-3e67-4aa4-af9b-f22218b24849",
          "display": "Aniela Prażmo"
        },
        "effectiveDateTime": "2018-05-27T13:25:25Z",
        "specimen": {
          "reference": "urn:uuid:d0fb2061-cfbf-4064-90a5-c06ca6114610"
        }
      }
    },
    {
      "fullUrl": "urn:uuid:086661b7-45e9-4167-accc-91f2eb0d6dc3",
      "resource": {
        "resourceType": "Observation",
        "id": "086661b7-45e9-4167-accc-91f2eb0d6dc3",
        "meta": {
          "profile": [
            "http://hl7.eu/fhir/laboratory/StructureDefinition/Observation-resultslab-eu-lab"
          ]
        },
        "performer": [
          {
            "display": "The Central European Lab"
          }
        ],
        "category": [
          {
            "coding": [
              {
                "system": "http://terminology.hl7.org/CodeSystem/observation-category",
                "code": "laboratory"
              }
            ]
          }
        ],
        "code": {
          "coding": [
            {
              "code": "1975-2",
              "system": "http://loinc.org",
              "display": "Bilirubin.total [Mass/volume] in Serum or Plasma"
            }
          ],
          "text": "Bilirubin.total [Mass/volume] in Serum or Plasma"
        },
        "valueQuantity": {
          "system": "http://unitsofmeasure.org",
          "value": 1,
          "unit": "mg/dL",
          "code": "mg/dL"
        },
        "referenceRange": [
          {
            "low": {
              "value": 0.3,
              "code": "mg/dL",
              "system": "http://unitsofmeasure.org"
            }
          },
          {
            "high": {
              "value": 1.2,
              "code": "mg/dL",
              "system": "http://unitsofmeasure.org"
            }
          }
        ],
        "text": {
          "status": "generated",
          "div": "<div xmlns=\"http://www.w3.org/1999/xhtml\"><table class=\"hl7__eu__lab__report\"><tr><th>Test</th><th>27-May-2018</th><th>Reference&#xA0;Range</th><th>Unit</th></tr><tr><td>Bilirubin.total [Mass/volume] in Serum or Plasma</td><td>1.0</td><td>0.3 - 1.2</td><td></td><td>mg/dL</td></tr></table></div>"
        },
        "status": "final",
        "subject": {
          "reference": "urn:uuid:cf655f52-3e67-4aa4-af9b-f22218b24849",
          "display": "Aniela Prażmo"
        },
        "effectiveDateTime": "2018-05-27T13:25:25Z",
        "specimen": {
          "reference": "urn:uuid:d73079a2-52f9-4315-8187-bd2fe27974da"
        }
      }
    },
    {
      "fullUrl": "urn:uuid:450efe91-14c5-4fc5-bac9-ce487397c248",
      "resource": {
        "resourceType": "Observation",
        "id": "450efe91-14c5-4fc5-bac9-ce487397c248",
        "meta": {
          "profile": [
            "http://hl7.eu/fhir/laboratory/StructureDefinition/Observation-resultslab-eu-lab"
          ]
        },
        "performer": [
          {
            "display": "The Central European Lab"
          }
        ],
        "category": [
          {
            "coding": [
              {
                "system": "http://terminology.hl7.org/CodeSystem/observation-category",
                "code": "laboratory"
              }
            ]
          }
        ],
        "code": {
          "coding": [
            {
              "code": "6768-6",
              "system": "http://loinc.org",
              "display": "Alkaline phosphatase [Enzymatic activity/volume] in Serum or Plasma"
            }
          ],
          "text": "Alkaline phosphatase [Enzymatic activity/volume] in Serum or Plasma"
        },
        "valueQuantity": {
          "system": "http://unitsofmeasure.org",
          "value": 131.6,
          "unit": "U/L",
          "code": "U/L"
        },
        "referenceRange": [
          {
            "low": {
              "value": 32,
              "code": "U/L",
              "system": "http://unitsofmeasure.org"
            }
          },
          {
            "high": {
              "value": 150,
              "code": "U/L",
              "system": "http://unitsofmeasure.org"
            }
          }
        ],
        "text": {
          "status": "generated",
          "div": "<div xmlns=\"http://www.w3.org/1999/xhtml\"><table class=\"hl7__eu__lab__report\"><tr><th>Test</th><th>27-May-2018</th><th>Reference&#xA0;Range</th><th>Unit</th></tr><tr><td>Alkaline phosphatase [Enzymatic activity/volume] in Serum or Plasma</td><td>131.6</td><td>32 - 150</td><td></td><td>U/L</td></tr></table></div>"
        },
        "status": "final",
        "subject": {
          "reference": "urn:uuid:cf655f52-3e67-4aa4-af9b-f22218b24849",
          "display": "Aniela Prażmo"
        },
        "effectiveDateTime": "2018-05-27T13:25:25Z",
        "specimen": {
          "reference": "urn:uuid:d73079a2-52f9-4315-8187-bd2fe27974da"
        }
      }
    },
    {
      "fullUrl": "urn:uuid:cf978156-79d6-402e-b492-ae6df86c61ae",
      "resource": {
        "resourceType": "Observation",
        "id": "cf978156-79d6-402e-b492-ae6df86c61ae",
        "meta": {
          "profile": [
            "http://hl7.eu/fhir/laboratory/StructureDefinition/Observation-resultslab-eu-lab"
          ]
        },
        "performer": [
          {
            "display": "The Central European Lab"
          }
        ],
        "category": [
          {
            "coding": [
              {
                "system": "http://terminology.hl7.org/CodeSystem/observation-category",
                "code": "laboratory"
              }
            ]
          }
        ],
        "code": {
          "coding": [
            {
              "code": "1742-6",
              "system": "http://loinc.org",
              "display": "Alanine aminotransferase [Enzymatic activity/volume] in Serum or Plasma"
            }
          ],
          "text": "Alanine aminotransferase [Enzymatic activity/volume] in Serum or Plasma"
        },
        "valueQuantity": {
          "system": "http://unitsofmeasure.org",
          "value": 22.2,
          "unit": "U/L",
          "code": "U/L"
        },
        "referenceRange": [
          {
            "low": {
              "value": 13,
              "code": "U/L",
              "system": "http://unitsofmeasure.org"
            }
          },
          {
            "high": {
              "value": 32,
              "code": "U/L",
              "system": "http://unitsofmeasure.org"
            }
          }
        ],
        "text": {
          "status": "generated",
          "div": "<div xmlns=\"http://www.w3.org/1999/xhtml\"><table class=\"hl7__eu__lab__report\"><tr><th>Test</th><th>27-May-2018</th><th>Reference&#xA0;Range</th><th>Unit</th></tr><tr><td>Alanine aminotransferase [Enzymatic activity/volume] in Serum or Plasma</td><td>22.2</td><td>13 - 32</td><td></td><td>U/L</td></tr></table></div>"
        },
        "status": "final",
        "subject": {
          "reference": "urn:uuid:cf655f52-3e67-4aa4-af9b-f22218b24849",
          "display": "Aniela Prażmo"
        },
        "effectiveDateTime": "2018-05-27T13:25:25Z",
        "specimen": {
          "reference": "urn:uuid:d73079a2-52f9-4315-8187-bd2fe27974da"
        }
      }
    },
    {
      "fullUrl": "urn:uuid:598c36a8-998f-41a2-b241-5b34b4281027",
      "resource": {
        "resourceType": "Observation",
        "id": "598c36a8-998f-41a2-b241-5b34b4281027",
        "meta": {
          "profile": [
            "http://hl7.eu/fhir/laboratory/StructureDefinition/Observation-resultslab-eu-lab"
          ]
        },
        "performer": [
          {
            "display": "The Central European Lab"
          }
        ],
        "category": [
          {
            "coding": [
              {
                "system": "http://terminology.hl7.org/CodeSystem/observation-category",
                "code": "laboratory"
              }
            ]
          }
        ],
        "code": {
          "coding": [
            {
              "code": "1920-8",
              "system": "http://loinc.org",
              "display": "Aspartate aminotransferase [Enzymatic activity/volume] in Serum or Plasma"
            }
          ],
          "text": "Aspartate aminotransferase [Enzymatic activity/volume] in Serum or Plasma"
        },
        "valueQuantity": {
          "system": "http://unitsofmeasure.org",
          "value": 7.7,
          "unit": "U/L",
          "code": "U/L"
        },
        "referenceRange": [
          {
            "low": {
              "value": 10,
              "code": "U/L",
              "system": "http://unitsofmeasure.org"
            }
          },
          {
            "high": {
              "value": 40,
              "code": "U/L",
              "system": "http://unitsofmeasure.org"
            }
          }
        ],
        "interpretation": [
          {
            "coding": [
              {
                "code": "L",
                "system": "http://terminology.hl7.org/CodeSystem/v3-ObservationInterpretation",
                "display": "Low"
              }
            ]
          }
        ],
        "text": {
          "status": "generated",
          "div": "<div xmlns=\"http://www.w3.org/1999/xhtml\"><table class=\"hl7__eu__lab__report\"><tr><th>Test</th><th>27-May-2018</th><th>Reference&#xA0;Range</th><th>Unit</th></tr><tr><td>Aspartate aminotransferase [Enzymatic activity/volume] in Serum or Plasma</td><td>7.7</td><td>10 - 40</td><td>L</td><td>U/L</td></tr></table></div>"
        },
        "status": "final",
        "subject": {
          "reference": "urn:uuid:cf655f52-3e67-4aa4-af9b-f22218b24849",
          "display": "Aniela Prażmo"
        },
        "effectiveDateTime": "2018-05-27T13:25:25Z",
        "specimen": {
          "reference": "urn:uuid:d73079a2-52f9-4315-8187-bd2fe27974da"
        }
      }
    },
    {
      "fullUrl": "urn:uuid:5a19743a-7764-4d59-a423-8458edc45d2e",
      "resource": {
        "resourceType": "Observation",
        "id": "5a19743a-7764-4d59-a423-8458edc45d2e",
        "meta": {
          "profile": [
            "http://hl7.eu/fhir/laboratory/StructureDefinition/Observation-resultslab-eu-lab"
          ]
        },
        "performer": [
          {
            "display": "The Central European Lab"
          }
        ],
        "category": [
          {
            "coding": [
              {
                "system": "http://terminology.hl7.org/CodeSystem/observation-category",
                "code": "laboratory"
              }
            ]
          }
        ],
        "code": {
          "coding": [
            {
              "code": "2093-3",
              "system": "http://loinc.org",
              "display": "Cholesterol [Mass/volume] in Serum or Plasma"
            }
          ],
          "text": "Cholesterol [Mass/volume] in Serum or Plasma"
        },
        "valueQuantity": {
          "system": "http://unitsofmeasure.org",
          "value": 168.5,
          "unit": "mg/dL",
          "code": "mg/dL"
        },
        "referenceRange": [
          {
            "low": {
              "value": 130,
              "code": "mg/dL",
              "system": "http://unitsofmeasure.org"
            }
          },
          {
            "high": {
              "value": 200,
              "code": "mg/dL",
              "system": "http://unitsofmeasure.org"
            }
          }
        ],
        "text": {
          "status": "generated",
          "div": "<div xmlns=\"http://www.w3.org/1999/xhtml\"><table class=\"hl7__eu__lab__report\"><tr><th>Test</th><th>27-May-2018</th><th>Reference&#xA0;Range</th><th>Unit</th></tr><tr><td>Cholesterol [Mass/volume] in Serum or Plasma</td><td>168.5</td><td>130 - 200</td><td></td><td>mg/dL</td></tr></table></div>"
        },
        "status": "final",
        "subject": {
          "reference": "urn:uuid:cf655f52-3e67-4aa4-af9b-f22218b24849",
          "display": "Aniela Prażmo"
        },
        "effectiveDateTime": "2018-05-27T13:25:25Z",
        "specimen": {
          "reference": "urn:uuid:d73079a2-52f9-4315-8187-bd2fe27974da"
        }
      }
    },
    {
      "fullUrl": "urn:uuid:2ad1ea2a-2adc-4d5b-b955-ef67e8822b68",
      "resource": {
        "resourceType": "Observation",
        "id": "2ad1ea2a-2adc-4d5b-b955-ef67e8822b68",
        "meta": {
          "profile": [
            "http://hl7.eu/fhir/laboratory/StructureDefinition/Observation-resultslab-eu-lab"
          ]
        },
        "performer": [
          {
            "display": "The Central European Lab"
          }
        ],
        "category": [
          {
            "coding": [
              {
                "system": "http://terminology.hl7.org/CodeSystem/observation-category",
                "code": "laboratory"
              }
            ]
          }
        ],
        "code": {
          "coding": [
            {
              "code": "2571-8",
              "system": "http://loinc.org",
              "display": "Triglyceride [Mass/volume] in Serum or Plasma"
            }
          ],
          "text": "Triglyceride [Mass/volume] in Serum or Plasma"
        },
        "valueQuantity": {
          "system": "http://unitsofmeasure.org",
          "value": 180,
          "unit": "mg/dL",
          "code": "mg/dL"
        },
        "referenceRange": [
          {
            "low": {
              "value": 0,
              "code": "mg/dL",
              "system": "http://unitsofmeasure.org"
            }
          },
          {
            "high": {
              "value": 199,
              "code": "mg/dL",
              "system": "http://unitsofmeasure.org"
            }
          }
        ],
        "text": {
          "status": "generated",
          "div": "<div xmlns=\"http://www.w3.org/1999/xhtml\"><table class=\"hl7__eu__lab__report\"><tr><th>Test</th><th>27-May-2018</th><th>Reference&#xA0;Range</th><th>Unit</th></tr><tr><td>Triglyceride [Mass/volume] in Serum or Plasma</td><td>180.0</td><td>0 - 199</td><td></td><td>mg/dL</td></tr></table></div>"
        },
        "status": "final",
        "subject": {
          "reference": "urn:uuid:cf655f52-3e67-4aa4-af9b-f22218b24849",
          "display": "Aniela Prażmo"
        },
        "effectiveDateTime": "2018-05-27T13:25:25Z",
        "specimen": {
          "reference": "urn:uuid:d73079a2-52f9-4315-8187-bd2fe27974da"
        }
      }
    },
    {
      "fullUrl": "urn:uuid:b2025d4c-6259-47ac-8e44-51d4058faec1",
      "resource": {
        "resourceType": "Observation",
        "id": "b2025d4c-6259-47ac-8e44-51d4058faec1",
        "meta": {
          "profile": [
            "http://hl7.eu/fhir/laboratory/StructureDefinition/Observation-resultslab-eu-lab"
          ]
        },
        "performer": [
          {
            "display": "The Central European Lab"
          }
        ],
        "category": [
          {
            "coding": [
              {
                "system": "http://terminology.hl7.org/CodeSystem/observation-category",
                "code": "laboratory"
              }
            ]
          }
        ],
        "code": {
          "coding": [
            {
              "code": "18262-6",
              "system": "http://loinc.org",
              "display": "Cholesterol in LDL [Mass/volume] in Serum or Plasma by Direct assay"
            }
          ],
          "text": "Cholesterol in LDL [Mass/volume] in Serum or Plasma by Direct assay"
        },
        "valueQuantity": {
          "system": "http://unitsofmeasure.org",
          "value": 83.9,
          "unit": "mg/dL",
          "code": "mg/dL"
        },
        "referenceRange": [
          {
            "low": {
              "value": 0,
              "code": "mg/dL",
              "system": "http://unitsofmeasure.org"
            }
          },
          {
            "high": {
              "value": 130,
              "code": "mg/dL",
              "system": "http://unitsofmeasure.org"
            }
          }
        ],
        "text": {
          "status": "generated",
          "div": "<div xmlns=\"http://www.w3.org/1999/xhtml\"><table class=\"hl7__eu__lab__report\"><tr><th>Test</th><th>27-May-2018</th><th>Reference&#xA0;Range</th><th>Unit</th></tr><tr><td>Cholesterol in LDL [Mass/volume] in Serum or Plasma by Direct assay</td><td>83.9</td><td>0 - 130</td><td></td><td>mg/dL</td></tr></table></div>"
        },
        "status": "final",
        "subject": {
          "reference": "urn:uuid:cf655f52-3e67-4aa4-af9b-f22218b24849",
          "display": "Aniela Prażmo"
        },
        "effectiveDateTime": "2018-05-27T13:25:25Z",
        "specimen": {
          "reference": "urn:uuid:d73079a2-52f9-4315-8187-bd2fe27974da"
        }
      }
    },
    {
      "fullUrl": "urn:uuid:4f8c4f13-0678-4bed-a0ae-eb2f492784dd",
      "resource": {
        "resourceType": "Observation",
        "id": "4f8c4f13-0678-4bed-a0ae-eb2f492784dd",
        "meta": {
          "profile": [
            "http://hl7.eu/fhir/laboratory/StructureDefinition/Observation-resultslab-eu-lab"
          ]
        },
        "performer": [
          {
            "display": "The Central European Lab"
          }
        ],
        "category": [
          {
            "coding": [
              {
                "system": "http://terminology.hl7.org/CodeSystem/observation-category",
                "code": "laboratory"
              }
            ]
          }
        ],
        "code": {
          "coding": [
            {
              "code": "2085-9",
              "system": "http://loinc.org",
              "display": "Cholesterol in HDL [Mass/volume] in Serum or Plasma"
            }
          ],
          "text": "Cholesterol in HDL [Mass/volume] in Serum or Plasma"
        },
        "valueQuantity": {
          "system": "http://unitsofmeasure.org",
          "value": 51.3,
          "unit": "mg/dL",
          "code": "mg/dL"
        },
        "referenceRange": [
          {
            "low": {
              "value": 50,
              "code": "mg/dL",
              "system": "http://unitsofmeasure.org"
            }
          },
          {
            "high": {
              "value": 100,
              "code": "mg/dL",
              "system": "http://unitsofmeasure.org"
            }
          }
        ],
        "text": {
          "status": "generated",
          "div": "<div xmlns=\"http://www.w3.org/1999/xhtml\"><table class=\"hl7__eu__lab__report\"><tr><th>Test</th><th>27-May-2018</th><th>Reference&#xA0;Range</th><th>Unit</th></tr><tr><td>Cholesterol in HDL [Mass/volume] in Serum or Plasma</td><td>51.3</td><td>50 - 100</td><td></td><td>mg/dL</td></tr></table></div>"
        },
        "status": "final",
        "subject": {
          "reference": "urn:uuid:cf655f52-3e67-4aa4-af9b-f22218b24849",
          "display": "Aniela Prażmo"
        },
        "effectiveDateTime": "2018-05-27T13:25:25Z",
        "specimen": {
          "reference": "urn:uuid:d73079a2-52f9-4315-8187-bd2fe27974da"
        }
      }
    },
    {
      "fullUrl": "urn:uuid:50988de8-f6dd-4362-8a29-a6c54a9a763d",
      "resource": {
        "resourceType": "Device",
        "id": "50988de8-f6dd-4362-8a29-a6c54a9a763d",
        "deviceName": [
          {
            "name": "SYNDERAI Synthetic Generator",
            "type": "manufacturer-name"
          }
        ],
        "version": [
          {
            "value": "5.0"
          }
        ],
        "text": {
          "status": "generated",
          "div": "<div xmlns=\"http://www.w3.org/1999/xhtml\">SYNDERAI Synthetic Generator v5.0</div>"
        },
        "status": "active\"",
        "distinctIdentifier": "synderai-generator-50",
        "manufacturer": "SYNDERAI Project"
      }
    },
    {
      "fullUrl": "urn:uuid:4f762122-0c5f-479f-992e-958538b378a1",
      "resource": {
        "resourceType": "Provenance",
        "id": "4f762122-0c5f-479f-992e-958538b378a1",
        "target": [
          {
            "reference": "Patient/cf655f52-3e67-4aa4-af9b-f22218b24849"
          },
          {
            "reference": "Bundle/c1bdc420-b80f-4248-b0cd-a654db8ee644"
          },
          {
            "reference": "Composition/8744cf84-8933-40e8-88ad-e5b27796d7b8"
          },
          {
            "reference": "PractitionerRole/95888709-f512-46e0-a8c1-a43d7034aff4"
          },
          {
            "reference": "Practitioner/0d1c90dd-6180-4b61-8c89-6500db435d53"
          },
          {
            "reference": "PractitionerRole/66690b78-7327-4fcc-b46e-75373b07cb50"
          },
          {
            "reference": "Organization/08ce6fda-2ec8-43b9-bc1b-41fede1d0bc0"
          }
        ],
        "activity": {
          "text": "Synthetic Example Data Generation"
        },
        "policy": [
          "https://synderai.net/synderai-synthetic-data-policy"
        ],
        "agent": [
          {
            "type": {
              "text": "author"
            },
            "who": {
              "reference": "Device/50988de8-f6dd-4362-8a29-a6c54a9a763d"
            }
          }
        ],
        "reason": [
          {
            "text": "Interoperability Testing and Training (non-clinical use)"
          }
        ],
        "text": {
          "status": "generated",
          "div": "<div xmlns=\"http://www.w3.org/1999/xhtml\">Provenance for SYNDERAI Synthetic Example Data Resource</div>"
        },
        "recorded": "2018-05-27T15:25:25Z"
      }
    },
    {
      "fullUrl": "urn:uuid:95888709-f512-46e0-a8c1-a43d7034aff4",
      "resource": {
        "resourceType": "PractitionerRole",
        "id": "95888709-f512-46e0-a8c1-a43d7034aff4",
        "meta": {
          "profile": [
            "http://hl7.eu/fhir/base/StructureDefinition/practitionerRole-eu"
          ]
        },
        "text": {
          "status": "generated",
          "div": "<div xmlns=\"http://www.w3.org/1999/xhtml\">Laboratory Role Id: 95888709-f512-46e0-a8c1-a43d7034aff4</div>"
        },
        "practitioner": {
          "reference": "urn:uuid:0d1c90dd-6180-4b61-8c89-6500db435d53"
        }
      }
    },
    {
      "fullUrl": "urn:uuid:0d1c90dd-6180-4b61-8c89-6500db435d53",
      "resource": {
        "resourceType": "Practitioner",
        "id": "0d1c90dd-6180-4b61-8c89-6500db435d53",
        "meta": {
          "profile": [
            "http://hl7.eu/fhir/base/StructureDefinition/practitioner-eu"
          ]
        },
        "identifier": [
          {
            "assigner": {
              "display": "HL7 Europe"
            },
            "system": "urn:oid:2.16.840.1.113883.2.51.999",
            "value": "787b3141-c79b-4ab8-9259-1714239bc9e6"
          }
        ],
        "name": [
          {
            "prefix": [
              "dr"
            ],
            "given": [
              "Ex"
            ],
            "family": "Ample"
          }
        ],
        "address": [
          {
            "line": [
              "Laboratoire Central Européenne",
              "Boulevard du Jardin Botanique 32"
            ],
            "postalCode": "1000",
            "city": "Brussels",
            "country": "Belgium"
          }
        ],
        "text": {
          "status": "generated",
          "div": "<div xmlns=\"http://www.w3.org/1999/xhtml\">Laboratory: Laboratoire Central Européenne, 1000 Brussels, Belgium</div>"
        }
      }
    }
  ],
  "type": "document",
  "timestamp": "2018-05-27T15:25:25Z"
}
