{
  "resourceType": "Bundle",
  "id": "503cadd1-3b7e-4c76-87c7-62f180cad1a8",
  "meta": {
    "profile": [
      "http://hl7.eu/fhir/laboratory/StructureDefinition/Bundle-eu-lab"
    ]
  },
  "identifier": {
    "assigner": {
      "display": "HL7 Europe"
    },
    "system": "urn:oid:2.16.840.1.113883.2.51.999",
    "value": "11bbc0be-77eb-4140-93b4-06105897b17d"
  },
  "entry": [
    {
      "fullUrl": "urn:uuid:d258b430-4291-45f1-a849-0c46d223a990",
      "resource": {
        "resourceType": "Composition",
        "id": "d258b430-4291-45f1-a849-0c46d223a990",
        "meta": {
          "profile": [
            "http://hl7.eu/fhir/laboratory/StructureDefinition/Composition-eu-lab"
          ]
        },
        "identifier": {
          "assigner": {
            "display": "HL7 Europe"
          },
          "system": "urn:oid:2.16.840.1.113883.2.51.999",
          "value": "bcd3fb64-9da2-4713-a7f6-faeacc12c9af"
        },
        "author": [
          {
            "reference": "urn:uuid:94836d41-9a57-494b-bdda-09a19263cca6"
          }
        ],
        "category": [
          {
            "coding": [
              {
                "code": "26436-6",
                "system": "http://loinc.org",
                "display": "Laboratory studies (set)"
              }
            ]
          }
        ],
        "type": {
          "coding": [
            {
              "code": "11502-2",
              "system": "http://loinc.org",
              "display": "Laboratory report"
            }
          ],
          "text": "Laboratory Report"
        },
        "section": [
          {
            "code": {
              "coding": [
                {
                  "code": "26436-6",
                  "system": "http://loinc.org",
                  "display": "Laboratory studies (set)"
                }
              ],
              "text": "Laboratory studies"
            },
            "section": [
              {
                "code": {
                  "coding": [
                    {
                      "code": "$18719-5",
                      "system": "http://loinc.org",
                      "display": "Chemistry studies (set)"
                    }
                  ],
                  "text": "Chemistry"
                },
                "entry": [
                  {
                    "reference": "urn:uuid:dadee242-47df-4f21-921e-6b54b9a37b22"
                  },
                  {
                    "reference": "urn:uuid:e6ee92db-a309-404e-8fe9-d050770b3b24"
                  },
                  {
                    "reference": "urn:uuid:36be3073-cf49-44d8-87d1-8c1471511722"
                  },
                  {
                    "reference": "urn:uuid:72775de7-e9e0-482c-8654-f5fb6e020f98"
                  }
                ],
                "text": {
                  "status": "generated",
                  "div": "<div xmlns=\"http://www.w3.org/1999/xhtml\"><h3>Chemistry</h3><table class=\"hl7__eu__lab__report\"><thead><tr><th>Test</th><th>08-APR-2023</th><th>Reference&#xA0;Range</th><th>Unit</th></tr></thead><tbody><tr><td>Cholesterol [Mass/volume] in Serum or Plasma</td><td>194.8</td><td>125 - 200</td><td>mg/dL</td></tr><tr><td>Triglyceride [Mass/volume] in Serum or Plasma</td><td>133.5</td><td>35 - 150</td><td>mg/dL</td></tr><tr><td>Cholesterol in LDL [Mass/volume] in Serum or Plasma by Direct assay</td><td>118.0</td><td>0 - 130</td><td>mg/dL</td></tr><tr><td>Cholesterol in HDL [Mass/volume] in Serum or Plasma</td><td>50.1</td><td>40 - 60</td><td>mg/dL</td></tr></tbody></table></div>"
                },
                "title": "Chemistry"
              }
            ],
            "title": "Laboratory Report"
          },
          {
            "text": {
              "status": "generated",
              "div": "<div xmlns=\"http://www.w3.org/1999/xhtml\"><h3>Annotation</h3><table class=\"hl7__eu__lab__report\"><tr><th>Conclusion and Recommendations based on this report and previous findings known to us</th></tr><tr><td>All lipid parameters are within normal limits. Cholesterol, LDL, HDL, and triglycerides are in the desirable range, indicating no current dyslipidemia. No laboratory evidence of increased cardiovascular risk based on these results. Recommend routine follow-up as clinically indicated.</td></tr></table></div>"
            },
            "code": {
              "coding": [
                {
                  "system": "http://loinc.org",
                  "code": "48767-8",
                  "display": "Annotation comment"
                }
              ]
            },
            "title": "Annotation comment"
          }
        ],
        "status": "final",
        "subject": {
          "reference": "urn:uuid:eec6a8be-6aaa-4ec8-947a-78439b244c04",
          "display": "Pamela Dixon"
        },
        "date": "2023-04-08T20:20:37Z",
        "title": "Laboratory Report",
        "confidentiality": "N"
      }
    },
    {
      "fullUrl": "urn:uuid:5230e39a-23c4-4299-964f-a330b28ca4b0",
      "resource": {
        "resourceType": "DiagnosticReport",
        "id": "5230e39a-23c4-4299-964f-a330b28ca4b0",
        "meta": {
          "profile": [
            "http://hl7.eu/fhir/laboratory/StructureDefinition/DiagnosticReport-eu-lab"
          ]
        },
        "identifier": [
          {
            "assigner": {
              "display": "HL7 Europe"
            },
            "system": "urn:oid:2.16.840.1.113883.2.51.999",
            "value": "0ef5542d-a5e5-47dd-958b-a60921784964"
          }
        ],
        "extension": [
          {
            "url": "http://hl7.org/fhir/5.0/StructureDefinition/extension-DiagnosticReport.composition",
            "valueReference": {
              "reference": "urn:uuid:bcd3fb64-9da2-4713-a7f6-faeacc12c9af"
            }
          }
        ],
        "category": [
          {
            "coding": [
              {
                "code": "26436-6",
                "system": "http://loinc.org",
                "display": "Laboratory studies (set)"
              }
            ]
          }
        ],
        "specimen": [
          {
            "reference": "urn:uuid:821ef4bf-af94-4892-a59b-f0a78f0e8f84"
          }
        ],
        "result": [
          {
            "reference": "urn:uuid:dadee242-47df-4f21-921e-6b54b9a37b22"
          },
          {
            "reference": "urn:uuid:e6ee92db-a309-404e-8fe9-d050770b3b24"
          },
          {
            "reference": "urn:uuid:36be3073-cf49-44d8-87d1-8c1471511722"
          },
          {
            "reference": "urn:uuid:72775de7-e9e0-482c-8654-f5fb6e020f98"
          }
        ],
        "status": "registered",
        "code": {
          "coding": [
            {
              "code": "11502-2",
              "system": "http://loinc.org",
              "display": "Laboratory report"
            }
          ]
        },
        "subject": {
          "reference": "urn:uuid:eec6a8be-6aaa-4ec8-947a-78439b244c04",
          "display": "Pamela Dixon"
        }
      }
    },
    {
      "fullUrl": "urn:uuid:eec6a8be-6aaa-4ec8-947a-78439b244c04",
      "resource": {
        "resourceType": "Patient",
        "id": "eec6a8be-6aaa-4ec8-947a-78439b244c04",
        "meta": {
          "security": [
            {
              "system": "http://terminology.hl7.org/CodeSystem/v3-ActReason",
              "code": "HTEST"
            },
            {
              "system": "http://terminology.hl7.org/CodeSystem/v3-ActReason",
              "code": "TRAIN"
            }
          ],
          "tag": [
            {
              "system": "https://synderai.net/fhir/CodeSystem/tags",
              "code": "synthetic",
              "display": "SYNDERAI Synthetic data"
            }
          ],
          "profile": [
            "http://hl7.eu/fhir/base/StructureDefinition/patient-eu-core"
          ]
        },
        "identifier": [
          {
            "type": {
              "coding": [
                {
                  "code": "PT",
                  "system": "http://terminology.hl7.org/CodeSystem/v2-0203"
                }
              ]
            },
            "system": "http://ec.europa.eu/identifier/eci",
            "value": "6166-148600-3"
          },
          {
            "type": {
              "coding": [
                {
                  "code": "MR",
                  "system": "http://terminology.hl7.org/CodeSystem/v2-0203"
                }
              ]
            },
            "system": "http://local.setting.eu/identifier",
            "value": "aa6e2273-ade9-f985-ca21-1a30863d243e"
          }
        ],
        "name": [
          {
            "family": "Dixon"
          },
          {
            "given": [
              "Pamela"
            ]
          },
          {
            "text": "Pamela Dixon"
          }
        ],
        "address": [
          {
            "line": [
              "6 Diana landing"
            ],
            "use": "home",
            "type": "physical",
            "postalCode": "M14",
            "city": "Claireport",
            "country": "United Kingdom"
          }
        ],
        "telecom": [
          {
            "system": "phone",
            "value": "0121 496 0481"
          }
        ],
        "extension": [
          {
            "url": "http://hl7.org/fhir/StructureDefinition/patient-nationality",
            "valueCodeableConcept": {
              "coding": [
                {
                  "code": "GB",
                  "system": "http://hl7.org/fhir/ValueSet/country"
                }
              ]
            }
          }
        ],
        "text": {
          "status": "generated",
          "div": "<div xmlns=\"http://www.w3.org/1999/xhtml\"><table class=\"hl7__ips\"><tr><td>Pamela Dixon</td><td>female</td><td>01-Dec-1990</td></tr></table></div>"
        },
        "gender": "female",
        "birthDate": "1990-12-01"
      }
    },
    {
      "fullUrl": "urn:uuid:7d9dcbcb-3b14-4dbd-b746-57b486d7c432",
      "resource": {
        "resourceType": "ServiceRequest",
        "id": "7d9dcbcb-3b14-4dbd-b746-57b486d7c432",
        "meta": {
          "profile": [
            "http://hl7.eu/fhir/laboratory/StructureDefinition/ServiceRequest-eu-lab"
          ]
        },
        "identifier": [
          {
            "system": "http://example.org",
            "value": "62cac094-a322-4e6f-9319-116b0a8a21ac"
          }
        ],
        "specimen": [
          {
            "reference": "urn:uuid:821ef4bf-af94-4892-a59b-f0a78f0e8f84"
          }
        ],
        "status": "active",
        "intent": "order",
        "code": {
          "coding": [
            {
              "code": "108252007",
              "system": "http://snomed.info/sct",
              "display": "Laboratory procedure"
            }
          ]
        },
        "subject": {
          "reference": "urn:uuid:eec6a8be-6aaa-4ec8-947a-78439b244c04",
          "display": "Pamela Dixon"
        },
        "requester": {
          "reference": "urn:uuid:8fd0c915-600b-4796-96a4-4461e996051d"
        }
      }
    },
    {
      "fullUrl": "urn:uuid:8fd0c915-600b-4796-96a4-4461e996051d",
      "resource": {
        "resourceType": "PractitionerRole",
        "id": "8fd0c915-600b-4796-96a4-4461e996051d",
        "meta": {
          "profile": [
            "http://hl7.eu/fhir/base/StructureDefinition/practitionerRole-eu"
          ]
        },
        "text": {
          "status": "generated",
          "div": "<div xmlns=\"http://www.w3.org/1999/xhtml\">Provider Role Id: 8fd0c915-600b-4796-96a4-4461e996051d</div>"
        },
        "organization": {
          "reference": "urn:uuid:c57bcbc9-f7dc-45c0-ac3d-32ebd8d92a5b"
        }
      }
    },
    {
      "fullUrl": "urn:uuid:c57bcbc9-f7dc-45c0-ac3d-32ebd8d92a5b",
      "resource": {
        "resourceType": "Organization",
        "id": "c57bcbc9-f7dc-45c0-ac3d-32ebd8d92a5b",
        "meta": {
          "profile": [
            "http://hl7.eu/fhir/base/StructureDefinition/organization-eu"
          ]
        },
        "identifier": [
          {
            "assigner": {
              "display": "HL7 Europe"
            },
            "system": "urn:oid:2.16.840.1.113883.2.51.999",
            "value": "2751ac3a-6e79-4b10-9185-5c6679beb5f5"
          }
        ],
        "address": [
          {
            "line": [
              "City Road 204"
            ],
            "city": "Manchester",
            "postalCode": "M3 3",
            "country": "United Kingdom"
          }
        ],
        "text": {
          "status": "generated",
          "div": "<div xmlns=\"http://www.w3.org/1999/xhtml\">Provider Organization: Cornbrook Medical Practice</div>"
        },
        "name": "Cornbrook Medical Practice"
      }
    },
    {
      "fullUrl": "urn:uuid:821ef4bf-af94-4892-a59b-f0a78f0e8f84",
      "resource": {
        "resourceType": "Specimen",
        "id": "821ef4bf-af94-4892-a59b-f0a78f0e8f84",
        "meta": {
          "profile": [
            "http://hl7.eu/fhir/laboratory/StructureDefinition/Specimen-eu-lab"
          ]
        },
        "collection": {
          "collectedDateTime": "2023-04-08"
        },
        "text": {
          "status": "generated",
          "div": "<div xmlns=\"http://www.w3.org/1999/xhtml\"><table class=\"hl7__eu__lab__report\"><tr><th>Specimen</th><th>Collection Date</th></tr><tr><td>Acellular blood (serum or plasma) specimen</td><td><span class=\"nb\">08-Apr-2023</span></td></tr></table></div>"
        },
        "type": {
          "coding": [
            {
              "code": "122592007",
              "system": "http://snomed.info/sct",
              "display": "Acellular blood (serum or plasma) specimen"
            }
          ]
        }
      }
    },
    {
      "fullUrl": "urn:uuid:dadee242-47df-4f21-921e-6b54b9a37b22",
      "resource": {
        "resourceType": "Observation",
        "id": "dadee242-47df-4f21-921e-6b54b9a37b22",
        "meta": {
          "profile": [
            "http://hl7.eu/fhir/laboratory/StructureDefinition/Observation-resultslab-eu-lab"
          ]
        },
        "performer": [
          {
            "display": "The Central European Lab"
          }
        ],
        "category": [
          {
            "coding": [
              {
                "system": "http://terminology.hl7.org/CodeSystem/observation-category",
                "code": "laboratory"
              }
            ]
          }
        ],
        "code": {
          "coding": [
            {
              "code": "2093-3",
              "system": "http://loinc.org",
              "display": "Cholesterol [Mass/volume] in Serum or Plasma"
            }
          ],
          "text": "Cholesterol [Mass/volume] in Serum or Plasma"
        },
        "valueQuantity": {
          "system": "http://unitsofmeasure.org",
          "value": 194.8,
          "unit": "mg/dL",
          "code": "mg/dL"
        },
        "referenceRange": [
          {
            "low": {
              "value": 125,
              "code": "mg/dL",
              "system": "http://unitsofmeasure.org"
            }
          },
          {
            "high": {
              "value": 200,
              "code": "mg/dL",
              "system": "http://unitsofmeasure.org"
            }
          }
        ],
        "text": {
          "status": "generated",
          "div": "<div xmlns=\"http://www.w3.org/1999/xhtml\"><table class=\"hl7__eu__lab__report\"><tr><th>Test</th><th>08-Apr-2023</th><th>Reference&#xA0;Range</th><th>Unit</th></tr><tr><td>Cholesterol [Mass/volume] in Serum or Plasma</td><td>194.8</td><td>125 - 200</td><td></td><td>mg/dL</td></tr></table></div>"
        },
        "status": "final",
        "subject": {
          "reference": "urn:uuid:eec6a8be-6aaa-4ec8-947a-78439b244c04",
          "display": "Pamela Dixon"
        },
        "effectiveDateTime": "2023-04-08T18:20:37Z",
        "specimen": {
          "reference": "urn:uuid:821ef4bf-af94-4892-a59b-f0a78f0e8f84"
        }
      }
    },
    {
      "fullUrl": "urn:uuid:e6ee92db-a309-404e-8fe9-d050770b3b24",
      "resource": {
        "resourceType": "Observation",
        "id": "e6ee92db-a309-404e-8fe9-d050770b3b24",
        "meta": {
          "profile": [
            "http://hl7.eu/fhir/laboratory/StructureDefinition/Observation-resultslab-eu-lab"
          ]
        },
        "performer": [
          {
            "display": "The Central European Lab"
          }
        ],
        "category": [
          {
            "coding": [
              {
                "system": "http://terminology.hl7.org/CodeSystem/observation-category",
                "code": "laboratory"
              }
            ]
          }
        ],
        "code": {
          "coding": [
            {
              "code": "2571-8",
              "system": "http://loinc.org",
              "display": "Triglyceride [Mass/volume] in Serum or Plasma"
            }
          ],
          "text": "Triglyceride [Mass/volume] in Serum or Plasma"
        },
        "valueQuantity": {
          "system": "http://unitsofmeasure.org",
          "value": 133.5,
          "unit": "mg/dL",
          "code": "mg/dL"
        },
        "referenceRange": [
          {
            "low": {
              "value": 35,
              "code": "mg/dL",
              "system": "http://unitsofmeasure.org"
            }
          },
          {
            "high": {
              "value": 150,
              "code": "mg/dL",
              "system": "http://unitsofmeasure.org"
            }
          }
        ],
        "text": {
          "status": "generated",
          "div": "<div xmlns=\"http://www.w3.org/1999/xhtml\"><table class=\"hl7__eu__lab__report\"><tr><th>Test</th><th>08-Apr-2023</th><th>Reference&#xA0;Range</th><th>Unit</th></tr><tr><td>Triglyceride [Mass/volume] in Serum or Plasma</td><td>133.5</td><td>35 - 150</td><td></td><td>mg/dL</td></tr></table></div>"
        },
        "status": "final",
        "subject": {
          "reference": "urn:uuid:eec6a8be-6aaa-4ec8-947a-78439b244c04",
          "display": "Pamela Dixon"
        },
        "effectiveDateTime": "2023-04-08T18:20:37Z",
        "specimen": {
          "reference": "urn:uuid:821ef4bf-af94-4892-a59b-f0a78f0e8f84"
        }
      }
    },
    {
      "fullUrl": "urn:uuid:36be3073-cf49-44d8-87d1-8c1471511722",
      "resource": {
        "resourceType": "Observation",
        "id": "36be3073-cf49-44d8-87d1-8c1471511722",
        "meta": {
          "profile": [
            "http://hl7.eu/fhir/laboratory/StructureDefinition/Observation-resultslab-eu-lab"
          ]
        },
        "performer": [
          {
            "display": "The Central European Lab"
          }
        ],
        "category": [
          {
            "coding": [
              {
                "system": "http://terminology.hl7.org/CodeSystem/observation-category",
                "code": "laboratory"
              }
            ]
          }
        ],
        "code": {
          "coding": [
            {
              "code": "18262-6",
              "system": "http://loinc.org",
              "display": "Cholesterol in LDL [Mass/volume] in Serum or Plasma by Direct assay"
            }
          ],
          "text": "Cholesterol in LDL [Mass/volume] in Serum or Plasma by Direct assay"
        },
        "valueQuantity": {
          "system": "http://unitsofmeasure.org",
          "value": 118,
          "unit": "mg/dL",
          "code": "mg/dL"
        },
        "referenceRange": [
          {
            "low": {
              "value": 0,
              "code": "mg/dL",
              "system": "http://unitsofmeasure.org"
            }
          },
          {
            "high": {
              "value": 130,
              "code": "mg/dL",
              "system": "http://unitsofmeasure.org"
            }
          }
        ],
        "text": {
          "status": "generated",
          "div": "<div xmlns=\"http://www.w3.org/1999/xhtml\"><table class=\"hl7__eu__lab__report\"><tr><th>Test</th><th>08-Apr-2023</th><th>Reference&#xA0;Range</th><th>Unit</th></tr><tr><td>Cholesterol in LDL [Mass/volume] in Serum or Plasma by Direct assay</td><td>118.0</td><td>0 - 130</td><td></td><td>mg/dL</td></tr></table></div>"
        },
        "status": "final",
        "subject": {
          "reference": "urn:uuid:eec6a8be-6aaa-4ec8-947a-78439b244c04",
          "display": "Pamela Dixon"
        },
        "effectiveDateTime": "2023-04-08T18:20:37Z",
        "specimen": {
          "reference": "urn:uuid:821ef4bf-af94-4892-a59b-f0a78f0e8f84"
        }
      }
    },
    {
      "fullUrl": "urn:uuid:72775de7-e9e0-482c-8654-f5fb6e020f98",
      "resource": {
        "resourceType": "Observation",
        "id": "72775de7-e9e0-482c-8654-f5fb6e020f98",
        "meta": {
          "profile": [
            "http://hl7.eu/fhir/laboratory/StructureDefinition/Observation-resultslab-eu-lab"
          ]
        },
        "performer": [
          {
            "display": "The Central European Lab"
          }
        ],
        "category": [
          {
            "coding": [
              {
                "system": "http://terminology.hl7.org/CodeSystem/observation-category",
                "code": "laboratory"
              }
            ]
          }
        ],
        "code": {
          "coding": [
            {
              "code": "2085-9",
              "system": "http://loinc.org",
              "display": "Cholesterol in HDL [Mass/volume] in Serum or Plasma"
            }
          ],
          "text": "Cholesterol in HDL [Mass/volume] in Serum or Plasma"
        },
        "valueQuantity": {
          "system": "http://unitsofmeasure.org",
          "value": 50.1,
          "unit": "mg/dL",
          "code": "mg/dL"
        },
        "referenceRange": [
          {
            "low": {
              "value": 40,
              "code": "mg/dL",
              "system": "http://unitsofmeasure.org"
            }
          },
          {
            "high": {
              "value": 60,
              "code": "mg/dL",
              "system": "http://unitsofmeasure.org"
            }
          }
        ],
        "text": {
          "status": "generated",
          "div": "<div xmlns=\"http://www.w3.org/1999/xhtml\"><table class=\"hl7__eu__lab__report\"><tr><th>Test</th><th>08-Apr-2023</th><th>Reference&#xA0;Range</th><th>Unit</th></tr><tr><td>Cholesterol in HDL [Mass/volume] in Serum or Plasma</td><td>50.1</td><td>40 - 60</td><td></td><td>mg/dL</td></tr></table></div>"
        },
        "status": "final",
        "subject": {
          "reference": "urn:uuid:eec6a8be-6aaa-4ec8-947a-78439b244c04",
          "display": "Pamela Dixon"
        },
        "effectiveDateTime": "2023-04-08T18:20:37Z",
        "specimen": {
          "reference": "urn:uuid:821ef4bf-af94-4892-a59b-f0a78f0e8f84"
        }
      }
    },
    {
      "fullUrl": "urn:uuid:d7209fd2-2223-4c08-91a3-7c34d0a5a7e8",
      "resource": {
        "resourceType": "Device",
        "id": "d7209fd2-2223-4c08-91a3-7c34d0a5a7e8",
        "deviceName": [
          {
            "name": "SYNDERAI Synthetic Generator",
            "type": "manufacturer-name"
          }
        ],
        "version": [
          {
            "value": "5.0"
          }
        ],
        "text": {
          "status": "generated",
          "div": "<div xmlns=\"http://www.w3.org/1999/xhtml\">SYNDERAI Synthetic Generator v5.0</div>"
        },
        "status": "active\"",
        "distinctIdentifier": "synderai-generator-50",
        "manufacturer": "SYNDERAI Project"
      }
    },
    {
      "fullUrl": "urn:uuid:4eae8977-8f56-4c68-8dbf-2d63af601824",
      "resource": {
        "resourceType": "Provenance",
        "id": "4eae8977-8f56-4c68-8dbf-2d63af601824",
        "target": [
          {
            "reference": "Patient/eec6a8be-6aaa-4ec8-947a-78439b244c04"
          },
          {
            "reference": "Bundle/503cadd1-3b7e-4c76-87c7-62f180cad1a8"
          },
          {
            "reference": "Composition/d258b430-4291-45f1-a849-0c46d223a990"
          },
          {
            "reference": "PractitionerRole/94836d41-9a57-494b-bdda-09a19263cca6"
          },
          {
            "reference": "Practitioner/e82e37ad-3709-4a4a-b11a-d4e02e15754f"
          },
          {
            "reference": "PractitionerRole/8fd0c915-600b-4796-96a4-4461e996051d"
          },
          {
            "reference": "Organization/c57bcbc9-f7dc-45c0-ac3d-32ebd8d92a5b"
          }
        ],
        "activity": {
          "text": "Synthetic Example Data Generation"
        },
        "policy": [
          "https://synderai.net/synderai-synthetic-data-policy"
        ],
        "agent": [
          {
            "type": {
              "text": "author"
            },
            "who": {
              "reference": "Device/d7209fd2-2223-4c08-91a3-7c34d0a5a7e8"
            }
          }
        ],
        "reason": [
          {
            "text": "Interoperability Testing and Training (non-clinical use)"
          }
        ],
        "text": {
          "status": "generated",
          "div": "<div xmlns=\"http://www.w3.org/1999/xhtml\">Provenance for SYNDERAI Synthetic Example Data Resource</div>"
        },
        "recorded": "2023-04-08T20:20:37Z"
      }
    },
    {
      "fullUrl": "urn:uuid:94836d41-9a57-494b-bdda-09a19263cca6",
      "resource": {
        "resourceType": "PractitionerRole",
        "id": "94836d41-9a57-494b-bdda-09a19263cca6",
        "meta": {
          "profile": [
            "http://hl7.eu/fhir/base/StructureDefinition/practitionerRole-eu"
          ]
        },
        "text": {
          "status": "generated",
          "div": "<div xmlns=\"http://www.w3.org/1999/xhtml\">Laboratory Role Id: 94836d41-9a57-494b-bdda-09a19263cca6</div>"
        },
        "practitioner": {
          "reference": "urn:uuid:e82e37ad-3709-4a4a-b11a-d4e02e15754f"
        }
      }
    },
    {
      "fullUrl": "urn:uuid:e82e37ad-3709-4a4a-b11a-d4e02e15754f",
      "resource": {
        "resourceType": "Practitioner",
        "id": "e82e37ad-3709-4a4a-b11a-d4e02e15754f",
        "meta": {
          "profile": [
            "http://hl7.eu/fhir/base/StructureDefinition/practitioner-eu"
          ]
        },
        "identifier": [
          {
            "assigner": {
              "display": "HL7 Europe"
            },
            "system": "urn:oid:2.16.840.1.113883.2.51.999",
            "value": "e115f52f-183f-4a29-988d-000eb3ee1dd7"
          }
        ],
        "name": [
          {
            "prefix": [
              "dr"
            ],
            "given": [
              "Ex"
            ],
            "family": "Ample"
          }
        ],
        "address": [
          {
            "line": [
              "Laboratoire Central Européenne",
              "Boulevard du Jardin Botanique 32"
            ],
            "postalCode": "1000",
            "city": "Brussels",
            "country": "Belgium"
          }
        ],
        "text": {
          "status": "generated",
          "div": "<div xmlns=\"http://www.w3.org/1999/xhtml\">Laboratory: Laboratoire Central Européenne, 1000 Brussels, Belgium</div>"
        }
      }
    }
  ],
  "type": "document",
  "timestamp": "2023-04-08T20:20:37Z"
}
