<Bundle xmlns="http://hl7.org/fhir">
   <id value="0c9ccf6e-1efe-4201-b965-006e2a7f683b"/>
   <meta>
      <profile value="http://hl7.eu/fhir/laboratory/StructureDefinition/Bundle-eu-lab"/>
   </meta>
   <identifier>
      <system value="urn:oid:2.16.840.1.113883.2.51.999"/>
      <value value="4aa87c31-f84a-4865-9847-e89441b02109"/>
      <assigner>
         <display value="HL7 Europe"/>
      </assigner>
   </identifier>
   <type value="document"/>
   <timestamp value="2022-10-06T14:02:45Z"/>
   <entry>
      <fullUrl value="urn:uuid:937909c1-3605-40b8-a72f-558d6b961929"/>
      <resource>
         <Composition>
            <id value="937909c1-3605-40b8-a72f-558d6b961929"/>
            <meta>
               <profile value="http://hl7.eu/fhir/laboratory/StructureDefinition/Composition-eu-lab"/>
            </meta>
            <identifier>
               <system value="urn:oid:2.16.840.1.113883.2.51.999"/>
               <value value="810ca5fb-bc7d-4330-8848-203418b2ff05"/>
               <assigner>
                  <display value="HL7 Europe"/>
               </assigner>
            </identifier>
            <status value="final"/>
            <type>
               <coding>
                  <system value="http://loinc.org"/>
                  <code value="11502-2"/>
                  <display value="Laboratory report"/>
               </coding>
               <text value="Laboratory Report"/>
            </type>
            <category>
               <coding>
                  <system value="http://loinc.org"/>
                  <code value="26436-6"/>
                  <display value="Laboratory studies (set)"/>
               </coding>
            </category>
            <subject>
               <reference value="urn:uuid:8549f10d-98ab-45ba-a810-6a631eb5d8ec"/>
               <display value="Hynek Kubíčková"/>
            </subject>
            <date value="2022-10-06T14:02:45Z"/>
            <author>
               <reference value="urn:uuid:fd952907-7f9c-484e-91a5-2954d852113f"/>
            </author>
            <title value="Laboratory Report"/>
            <confidentiality value="N"/>
            <section>
               <title value="Laboratory Report"/>
               <code>
                  <coding>
                     <system value="http://loinc.org"/>
                     <code value="26436-6"/>
                     <display value="Laboratory studies (set)"/>
                  </coding>
                  <text value="Laboratory studies"/>
               </code>
               <section>
                  <title value="Hematology"/>
                  <code>
                     <coding>
                        <system value="http://loinc.org"/>
                        <code value="$18723-7"/>
                        <display value="Hematology studies (set)"/>
                     </coding>
                     <text value="Hematology"/>
                  </code>
                  <text>
                     <status value="generated"/>
                     <div xmlns="http://www.w3.org/1999/xhtml">
                        <h3>Hematology</h3>
                        <table class="hl7__eu__lab__report">
                           <thead>
                              <tr>
                                 <th>Test</th>
                                 <th>06-OCT-2022</th>
                                 <th>Reference Range</th>
                                 <th>Unit</th>
                              </tr>
                           </thead>
                           <tbody>
                              <tr>
                                 <td>Leukocytes [#/volume] in Blood by Automated count</td>
                                 <td>8.2</td>
                                 <td>3.5 - 10.5</td>
                                 <td>10*3/uL</td>
                              </tr>
                              <tr>
                                 <td>Erythrocytes [#/volume] in Blood by Automated count</td>
                                 <td>
                                    <strong>4.0 L</strong>
                                 </td>
                                 <td>4.5 - 6.2</td>
                                 <td>10*6/uL</td>
                              </tr>
                              <tr>
                                 <td>Hemoglobin [Mass/volume] in Blood</td>
                                 <td>16.0</td>
                                 <td>14 - 18</td>
                                 <td>g/dL</td>
                              </tr>
                              <tr>
                                 <td>Hematocrit [Volume Fraction] of Blood by Automated count</td>
                                 <td>48.7</td>
                                 <td>38 - 52</td>
                                 <td>%</td>
                              </tr>
                              <tr>
                                 <td>MCV [Entitic volume] by Automated count</td>
                                 <td>86.5</td>
                                 <td>80 - 98</td>
                                 <td>fL</td>
                              </tr>
                              <tr>
                                 <td>MCH [Entitic mass] by Automated count</td>
                                 <td>29.8</td>
                                 <td>27 - 33</td>
                                 <td>pg</td>
                              </tr>
                              <tr>
                                 <td>MCHC [Mass/volume] by Automated count</td>
                                 <td>33.8</td>
                                 <td>32 - 36</td>
                                 <td>g/dL</td>
                              </tr>
                              <tr>
                                 <td>Erythrocyte distribution width [Entitic volume] by Automated count</td>
                                 <td>45.7</td>
                                 <td>36 - 55</td>
                                 <td>fL</td>
                              </tr>
                              <tr>
                                 <td>Platelets [#/volume] in Blood by Automated count</td>
                                 <td>251.7</td>
                                 <td>150 - 350</td>
                                 <td>10*3/uL</td>
                              </tr>
                              <tr>
                                 <td>Platelet distribution width [Entitic volume] in Blood by Automated count</td>
                                 <td>377.3</td>
                                 <td>150 - 450</td>
                                 <td>fL</td>
                              </tr>
                              <tr>
                                 <td>Platelet mean volume [Entitic volume] in Blood by Automated count</td>
                                 <td>11.8</td>
                                 <td>9.8 - 13.8</td>
                                 <td>fL</td>
                              </tr>
                           </tbody>
                        </table>
                     </div>
                  </text>
                  <entry>
                     <reference value="urn:uuid:fe0e52df-cdd3-47bc-9bca-8b3aa2f37f42"/>
                  </entry>
                  <entry>
                     <reference value="urn:uuid:d5958098-16b0-43e4-83a9-d632105a15d2"/>
                  </entry>
                  <entry>
                     <reference value="urn:uuid:de640bdf-f470-4aa6-a78c-4944f0503f09"/>
                  </entry>
                  <entry>
                     <reference value="urn:uuid:f6c937e3-b9be-4eee-8ee7-d73f593ecb3f"/>
                  </entry>
                  <entry>
                     <reference value="urn:uuid:e5022567-cdc3-4ffd-b650-d5eaa3ca7105"/>
                  </entry>
                  <entry>
                     <reference value="urn:uuid:537a334f-96ea-4b22-979e-3c910dbbdba3"/>
                  </entry>
                  <entry>
                     <reference value="urn:uuid:4ac2124a-c34e-409f-a588-efbf7bce2ad9"/>
                  </entry>
                  <entry>
                     <reference value="urn:uuid:6ed37bef-d6a0-4c23-976e-a5a108a1a4bf"/>
                  </entry>
                  <entry>
                     <reference value="urn:uuid:3c7d372f-4708-4551-801d-8ead1592ecf6"/>
                  </entry>
                  <entry>
                     <reference value="urn:uuid:715e5cf9-d54e-46aa-9625-2c34f969d12c"/>
                  </entry>
                  <entry>
                     <reference value="urn:uuid:cd6b35b9-b43a-4667-bf05-becce8485f13"/>
                  </entry>
               </section>
            </section>
            <section>
               <title value="Annotation comment"/>
               <code>
                  <coding>
                     <system value="http://loinc.org"/>
                     <code value="48767-8"/>
                     <display value="Annotation comment"/>
                  </coding>
               </code>
               <text>
                  <status value="generated"/>
                  <div xmlns="http://www.w3.org/1999/xhtml">
                     <h3>Annotation</h3>
                     <table class="hl7__eu__lab__report">
                        <tr>
                           <th>Conclusion and Recommendations based on this report and previous findings known to us</th>
                        </tr>
                        <tr>
                           <td>All measured parameters are within normal limits except for a mildly decreased erythrocyte count. Hemoglobin and hematocrit are normal, suggesting no clinically significant anemia. Other red cell indices and platelet parameters are unremarkable. No acute hematological abnormality is evident; the isolated low erythrocyte count may be a benign variation but should be correlated clinically if symptoms are present.</td>
                        </tr>
                     </table>
                  </div>
               </text>
            </section>
         </Composition>
      </resource>
   </entry>
   <entry>
      <fullUrl value="urn:uuid:1897cb45-536a-4834-867a-d479b3b3d19a"/>
      <resource>
         <DiagnosticReport>
            <id value="1897cb45-536a-4834-867a-d479b3b3d19a"/>
            <meta>
               <profile value="http://hl7.eu/fhir/laboratory/StructureDefinition/DiagnosticReport-eu-lab"/>
            </meta>
            <extension url="http://hl7.org/fhir/5.0/StructureDefinition/extension-DiagnosticReport.composition">
               <valueReference>
                  <reference value="urn:uuid:810ca5fb-bc7d-4330-8848-203418b2ff05"/>
               </valueReference>
            </extension>
            <identifier>
               <system value="urn:oid:2.16.840.1.113883.2.51.999"/>
               <value value="d7209eb5-2305-411f-8733-3e9147219c82"/>
               <assigner>
                  <display value="HL7 Europe"/>
               </assigner>
            </identifier>
            <status value="registered"/>
            <category>
               <coding>
                  <system value="http://loinc.org"/>
                  <code value="26436-6"/>
                  <display value="Laboratory studies (set)"/>
               </coding>
            </category>
            <code>
               <coding>
                  <system value="http://loinc.org"/>
                  <code value="11502-2"/>
                  <display value="Laboratory report"/>
               </coding>
            </code>
            <subject>
               <reference value="urn:uuid:8549f10d-98ab-45ba-a810-6a631eb5d8ec"/>
               <display value="Hynek Kubíčková"/>
            </subject>
            <specimen>
               <reference value="urn:uuid:b8fe2272-59f9-4d36-8d68-63e8ad790779"/>
            </specimen>
            <specimen>
               <reference value="urn:uuid:b8fe2272-59f9-4d36-8d68-63e8ad790779"/>
            </specimen>
            <result>
               <reference value="urn:uuid:fe0e52df-cdd3-47bc-9bca-8b3aa2f37f42"/>
            </result>
            <result>
               <reference value="urn:uuid:d5958098-16b0-43e4-83a9-d632105a15d2"/>
            </result>
            <result>
               <reference value="urn:uuid:de640bdf-f470-4aa6-a78c-4944f0503f09"/>
            </result>
            <result>
               <reference value="urn:uuid:f6c937e3-b9be-4eee-8ee7-d73f593ecb3f"/>
            </result>
            <result>
               <reference value="urn:uuid:e5022567-cdc3-4ffd-b650-d5eaa3ca7105"/>
            </result>
            <result>
               <reference value="urn:uuid:537a334f-96ea-4b22-979e-3c910dbbdba3"/>
            </result>
            <result>
               <reference value="urn:uuid:4ac2124a-c34e-409f-a588-efbf7bce2ad9"/>
            </result>
            <result>
               <reference value="urn:uuid:6ed37bef-d6a0-4c23-976e-a5a108a1a4bf"/>
            </result>
            <result>
               <reference value="urn:uuid:3c7d372f-4708-4551-801d-8ead1592ecf6"/>
            </result>
            <result>
               <reference value="urn:uuid:715e5cf9-d54e-46aa-9625-2c34f969d12c"/>
            </result>
            <result>
               <reference value="urn:uuid:cd6b35b9-b43a-4667-bf05-becce8485f13"/>
            </result>
         </DiagnosticReport>
      </resource>
   </entry>
   <entry>
      <fullUrl value="urn:uuid:8549f10d-98ab-45ba-a810-6a631eb5d8ec"/>
      <resource>
         <Patient>
            <id value="8549f10d-98ab-45ba-a810-6a631eb5d8ec"/>
            <meta>
               <profile value="http://hl7.eu/fhir/base/StructureDefinition/patient-eu-core"/>
               <security>
                  <system value="http://terminology.hl7.org/CodeSystem/v3-ActReason"/>
                  <code value="HTEST"/>
               </security>
               <security>
                  <system value="http://terminology.hl7.org/CodeSystem/v3-ActReason"/>
                  <code value="TRAIN"/>
               </security>
               <tag>
                  <system value="https://synderai.net/fhir/CodeSystem/tags"/>
                  <code value="synthetic"/>
                  <display value="SYNDERAI Synthetic data"/>
               </tag>
            </meta>
            <text>
               <status value="generated"/>
               <div xmlns="http://www.w3.org/1999/xhtml">
                  <table class="hl7__ips">
                     <tr>
                        <td>Hynek Kubíčková</td>
                        <td>male</td>
                        <td>24-Jun-2005</td>
                     </tr>
                  </table>
               </div>
            </text>
            <extension url="http://hl7.org/fhir/StructureDefinition/patient-nationality">
               <valueCodeableConcept>
                  <coding>
                     <system value="http://hl7.org/fhir/ValueSet/country"/>
                     <code value="CZ"/>
                  </coding>
               </valueCodeableConcept>
            </extension>
            <identifier>
               <type>
                  <coding>
                     <system value="http://terminology.hl7.org/CodeSystem/v2-0203"/>
                     <code value="PT"/>
                  </coding>
               </type>
               <system value="http://ec.europa.eu/identifier/eci"/>
               <value value="9771-756399-9"/>
            </identifier>
            <identifier>
               <type>
                  <coding>
                     <system value="http://terminology.hl7.org/CodeSystem/v2-0203"/>
                     <code value="MR"/>
                  </coding>
               </type>
               <system value="http://local.setting.eu/identifier"/>
               <value value="0a9c3ea6-b526-4dcc-cde1-545cdfca14b2"/>
            </identifier>
            <name>
               <family value="Kubíčková"/>
            </name>
            <name>
               <given value="Hynek"/>
            </name>
            <name>
               <text value="Hynek Kubíčková"/>
            </name>
            <telecom>
               <system value="phone"/>
               <value value="+420 605 458 784"/>
            </telecom>
            <gender value="male"/>
            <birthDate value="2005-06-24"/>
            <address>
               <use value="home"/>
               <type value="physical"/>
               <line value="Vraňanská 9"/>
               <city value="Frýdlant nad Ostravicí"/>
               <postalCode value="739 11"/>
               <country value="Czechia"/>
            </address>
         </Patient>
      </resource>
   </entry>
   <entry>
      <fullUrl value="urn:uuid:d3030f31-0ef4-4d45-b947-c006b0f859fa"/>
      <resource>
         <ServiceRequest>
            <id value="d3030f31-0ef4-4d45-b947-c006b0f859fa"/>
            <meta>
               <profile value="http://hl7.eu/fhir/laboratory/StructureDefinition/ServiceRequest-eu-lab"/>
            </meta>
            <identifier>
               <system value="http://example.org"/>
               <value value="dc74b5ba-11f1-4b6c-8559-1b23fa9c1ad6"/>
            </identifier>
            <status value="active"/>
            <intent value="order"/>
            <code>
               <coding>
                  <system value="http://snomed.info/sct"/>
                  <code value="108252007"/>
                  <display value="Laboratory procedure"/>
               </coding>
            </code>
            <subject>
               <reference value="urn:uuid:8549f10d-98ab-45ba-a810-6a631eb5d8ec"/>
               <display value="Hynek Kubíčková"/>
            </subject>
            <requester>
               <reference value="urn:uuid:12f620d9-4687-4a51-bbb1-0b284b6cc689"/>
            </requester>
            <specimen>
               <reference value="urn:uuid:b8fe2272-59f9-4d36-8d68-63e8ad790779"/>
            </specimen>
         </ServiceRequest>
      </resource>
   </entry>
   <entry>
      <fullUrl value="urn:uuid:12f620d9-4687-4a51-bbb1-0b284b6cc689"/>
      <resource>
         <PractitionerRole>
            <id value="12f620d9-4687-4a51-bbb1-0b284b6cc689"/>
            <meta>
               <profile value="http://hl7.eu/fhir/base/StructureDefinition/practitionerRole-eu"/>
            </meta>
            <text>
               <status value="generated"/>
               <div xmlns="http://www.w3.org/1999/xhtml">Provider Role Id: 12f620d9-4687-4a51-bbb1-0b284b6cc689</div>
            </text>
            <organization>
               <reference value="urn:uuid:024b5dad-66f6-49ce-b6ae-04f8b23cc5d6"/>
            </organization>
         </PractitionerRole>
      </resource>
   </entry>
   <entry>
      <fullUrl value="urn:uuid:024b5dad-66f6-49ce-b6ae-04f8b23cc5d6"/>
      <resource>
         <Organization>
            <id value="024b5dad-66f6-49ce-b6ae-04f8b23cc5d6"/>
            <meta>
               <profile value="http://hl7.eu/fhir/base/StructureDefinition/organization-eu"/>
            </meta>
            <text>
               <status value="generated"/>
               <div xmlns="http://www.w3.org/1999/xhtml">Provider Organization: Beskydské rehabilitační centrum</div>
            </text>
            <identifier>
               <system value="urn:oid:2.16.840.1.113883.2.51.999"/>
               <value value="b2c18c2f-4f1f-4fc7-8683-3ce0f99b6156"/>
               <assigner>
                  <display value="HL7 Europe"/>
               </assigner>
            </identifier>
            <name value="Beskydské rehabilitační centrum"/>
            <address>
               <city value="Čeladná"/>
               <postalCode value="739 12"/>
               <country value="Czechia"/>
            </address>
         </Organization>
      </resource>
   </entry>
   <entry>
      <fullUrl value="urn:uuid:b8fe2272-59f9-4d36-8d68-63e8ad790779"/>
      <resource>
         <Specimen>
            <id value="b8fe2272-59f9-4d36-8d68-63e8ad790779"/>
            <meta>
               <profile value="http://hl7.eu/fhir/laboratory/StructureDefinition/Specimen-eu-lab"/>
            </meta>
            <text>
               <status value="generated"/>
               <div xmlns="http://www.w3.org/1999/xhtml">
                  <table class="hl7__eu__lab__report">
                     <tr>
                        <th>Specimen</th>
                        <th>Collection Date</th>
                     </tr>
                     <tr>
                        <td>Whole blood specimen (specimen)</td>
                        <td>
                           <span class="nb">06-Oct-2022</span>
                        </td>
                     </tr>
                  </table>
               </div>
            </text>
            <type>
               <coding>
                  <system value="http://snomed.info/sct"/>
                  <code value="258580003"/>
                  <display value="Whole blood specimen (specimen)"/>
               </coding>
            </type>
            <collection>
               <collectedDateTime value="2022-10-06"/>
            </collection>
         </Specimen>
      </resource>
   </entry>
   <entry>
      <fullUrl value="urn:uuid:b8fe2272-59f9-4d36-8d68-63e8ad790779"/>
      <resource>
         <Specimen>
            <id value="b8fe2272-59f9-4d36-8d68-63e8ad790779"/>
            <meta>
               <profile value="http://hl7.eu/fhir/laboratory/StructureDefinition/Specimen-eu-lab"/>
            </meta>
            <text>
               <status value="generated"/>
               <div xmlns="http://www.w3.org/1999/xhtml">
                  <table class="hl7__eu__lab__report">
                     <tr>
                        <th>Specimen</th>
                        <th>Collection Date</th>
                     </tr>
                     <tr>
                        <td>Whole blood specimen (specimen)</td>
                        <td>
                           <span class="nb">06-Oct-2022</span>
                        </td>
                     </tr>
                  </table>
               </div>
            </text>
            <type>
               <coding>
                  <system value="http://snomed.info/sct"/>
                  <code value="258580003"/>
                  <display value="Whole blood specimen (specimen)"/>
               </coding>
            </type>
            <collection>
               <collectedDateTime value="2022-10-06"/>
            </collection>
         </Specimen>
      </resource>
   </entry>
   <entry>
      <fullUrl value="urn:uuid:fe0e52df-cdd3-47bc-9bca-8b3aa2f37f42"/>
      <resource>
         <Observation>
            <id value="fe0e52df-cdd3-47bc-9bca-8b3aa2f37f42"/>
            <meta>
               <profile value="http://hl7.eu/fhir/laboratory/StructureDefinition/Observation-resultslab-eu-lab"/>
            </meta>
            <text>
               <status value="generated"/>
               <div xmlns="http://www.w3.org/1999/xhtml">
                  <table class="hl7__eu__lab__report">
                     <tr>
                        <th>Test</th>
                        <th>06-Oct-2022</th>
                        <th>Reference Range</th>
                        <th>Unit</th>
                     </tr>
                     <tr>
                        <td>Leukocytes [#/volume] in Blood by Automated count</td>
                        <td>8.2</td>
                        <td>3.5 - 10.5</td>
                        <td/>
                        <td>10*3/uL</td>
                     </tr>
                  </table>
               </div>
            </text>
            <status value="final"/>
            <category>
               <coding>
                  <system value="http://terminology.hl7.org/CodeSystem/observation-category"/>
                  <code value="laboratory"/>
               </coding>
            </category>
            <code>
               <coding>
                  <system value="http://loinc.org"/>
                  <code value="6690-2"/>
                  <display value="Leukocytes [#/volume] in Blood by Automated count"/>
               </coding>
               <text value="Leukocytes [#/volume] in Blood by Automated count"/>
            </code>
            <subject>
               <reference value="urn:uuid:8549f10d-98ab-45ba-a810-6a631eb5d8ec"/>
               <display value="Hynek Kubíčková"/>
            </subject>
            <effectiveDateTime value="2022-10-06T12:02:45Z"/>
            <performer>
               <display value="The Central European Lab"/>
            </performer>
            <valueQuantity>
               <value value="8.2"/>
               <unit value="10*3/uL"/>
               <system value="http://unitsofmeasure.org"/>
               <code value="10*3/uL"/>
            </valueQuantity>
            <specimen>
               <reference value="urn:uuid:b8fe2272-59f9-4d36-8d68-63e8ad790779"/>
            </specimen>
            <referenceRange>
               <low>
                  <value value="3.5"/>
                  <system value="http://unitsofmeasure.org"/>
                  <code value="10*3/uL"/>
               </low>
            </referenceRange>
            <referenceRange>
               <high>
                  <value value="10.5"/>
                  <system value="http://unitsofmeasure.org"/>
                  <code value="10*3/uL"/>
               </high>
            </referenceRange>
         </Observation>
      </resource>
   </entry>
   <entry>
      <fullUrl value="urn:uuid:d5958098-16b0-43e4-83a9-d632105a15d2"/>
      <resource>
         <Observation>
            <id value="d5958098-16b0-43e4-83a9-d632105a15d2"/>
            <meta>
               <profile value="http://hl7.eu/fhir/laboratory/StructureDefinition/Observation-resultslab-eu-lab"/>
            </meta>
            <text>
               <status value="generated"/>
               <div xmlns="http://www.w3.org/1999/xhtml">
                  <table class="hl7__eu__lab__report">
                     <tr>
                        <th>Test</th>
                        <th>06-Oct-2022</th>
                        <th>Reference Range</th>
                        <th>Unit</th>
                     </tr>
                     <tr>
                        <td>Erythrocytes [#/volume] in Blood by Automated count</td>
                        <td>4.0</td>
                        <td>4.5 - 6.2</td>
                        <td>L</td>
                        <td>10*6/uL</td>
                     </tr>
                  </table>
               </div>
            </text>
            <status value="final"/>
            <category>
               <coding>
                  <system value="http://terminology.hl7.org/CodeSystem/observation-category"/>
                  <code value="laboratory"/>
               </coding>
            </category>
            <code>
               <coding>
                  <system value="http://loinc.org"/>
                  <code value="789-8"/>
                  <display value="Erythrocytes [#/volume] in Blood by Automated count"/>
               </coding>
               <text value="Erythrocytes [#/volume] in Blood by Automated count"/>
            </code>
            <subject>
               <reference value="urn:uuid:8549f10d-98ab-45ba-a810-6a631eb5d8ec"/>
               <display value="Hynek Kubíčková"/>
            </subject>
            <effectiveDateTime value="2022-10-06T12:02:45Z"/>
            <performer>
               <display value="The Central European Lab"/>
            </performer>
            <valueQuantity>
               <value value="4"/>
               <unit value="10*6/uL"/>
               <system value="http://unitsofmeasure.org"/>
               <code value="10*6/uL"/>
            </valueQuantity>
            <interpretation>
               <coding>
                  <system value="http://terminology.hl7.org/CodeSystem/v3-ObservationInterpretation"/>
                  <code value="L"/>
                  <display value="Low"/>
               </coding>
            </interpretation>
            <specimen>
               <reference value="urn:uuid:b8fe2272-59f9-4d36-8d68-63e8ad790779"/>
            </specimen>
            <referenceRange>
               <low>
                  <value value="4.5"/>
                  <system value="http://unitsofmeasure.org"/>
                  <code value="10*6/uL"/>
               </low>
            </referenceRange>
            <referenceRange>
               <high>
                  <value value="6.2"/>
                  <system value="http://unitsofmeasure.org"/>
                  <code value="10*6/uL"/>
               </high>
            </referenceRange>
         </Observation>
      </resource>
   </entry>
   <entry>
      <fullUrl value="urn:uuid:de640bdf-f470-4aa6-a78c-4944f0503f09"/>
      <resource>
         <Observation>
            <id value="de640bdf-f470-4aa6-a78c-4944f0503f09"/>
            <meta>
               <profile value="http://hl7.eu/fhir/laboratory/StructureDefinition/Observation-resultslab-eu-lab"/>
            </meta>
            <text>
               <status value="generated"/>
               <div xmlns="http://www.w3.org/1999/xhtml">
                  <table class="hl7__eu__lab__report">
                     <tr>
                        <th>Test</th>
                        <th>06-Oct-2022</th>
                        <th>Reference Range</th>
                        <th>Unit</th>
                     </tr>
                     <tr>
                        <td>Hemoglobin [Mass/volume] in Blood</td>
                        <td>16.0</td>
                        <td>14 - 18</td>
                        <td/>
                        <td>g/dL</td>
                     </tr>
                  </table>
               </div>
            </text>
            <status value="final"/>
            <category>
               <coding>
                  <system value="http://terminology.hl7.org/CodeSystem/observation-category"/>
                  <code value="laboratory"/>
               </coding>
            </category>
            <code>
               <coding>
                  <system value="http://loinc.org"/>
                  <code value="718-7"/>
                  <display value="Hemoglobin [Mass/volume] in Blood"/>
               </coding>
               <text value="Hemoglobin [Mass/volume] in Blood"/>
            </code>
            <subject>
               <reference value="urn:uuid:8549f10d-98ab-45ba-a810-6a631eb5d8ec"/>
               <display value="Hynek Kubíčková"/>
            </subject>
            <effectiveDateTime value="2022-10-06T12:02:45Z"/>
            <performer>
               <display value="The Central European Lab"/>
            </performer>
            <valueQuantity>
               <value value="16"/>
               <unit value="g/dL"/>
               <system value="http://unitsofmeasure.org"/>
               <code value="g/dL"/>
            </valueQuantity>
            <specimen>
               <reference value="urn:uuid:b8fe2272-59f9-4d36-8d68-63e8ad790779"/>
            </specimen>
            <referenceRange>
               <low>
                  <value value="14"/>
                  <system value="http://unitsofmeasure.org"/>
                  <code value="g/dL"/>
               </low>
            </referenceRange>
            <referenceRange>
               <high>
                  <value value="18"/>
                  <system value="http://unitsofmeasure.org"/>
                  <code value="g/dL"/>
               </high>
            </referenceRange>
         </Observation>
      </resource>
   </entry>
   <entry>
      <fullUrl value="urn:uuid:f6c937e3-b9be-4eee-8ee7-d73f593ecb3f"/>
      <resource>
         <Observation>
            <id value="f6c937e3-b9be-4eee-8ee7-d73f593ecb3f"/>
            <meta>
               <profile value="http://hl7.eu/fhir/laboratory/StructureDefinition/Observation-resultslab-eu-lab"/>
            </meta>
            <text>
               <status value="generated"/>
               <div xmlns="http://www.w3.org/1999/xhtml">
                  <table class="hl7__eu__lab__report">
                     <tr>
                        <th>Test</th>
                        <th>06-Oct-2022</th>
                        <th>Reference Range</th>
                        <th>Unit</th>
                     </tr>
                     <tr>
                        <td>Hematocrit [Volume Fraction] of Blood by Automated count</td>
                        <td>48.7</td>
                        <td>38 - 52</td>
                        <td/>
                        <td>%</td>
                     </tr>
                  </table>
               </div>
            </text>
            <status value="final"/>
            <category>
               <coding>
                  <system value="http://terminology.hl7.org/CodeSystem/observation-category"/>
                  <code value="laboratory"/>
               </coding>
            </category>
            <code>
               <coding>
                  <system value="http://loinc.org"/>
                  <code value="4544-3"/>
                  <display value="Hematocrit [Volume Fraction] of Blood by Automated count"/>
               </coding>
               <text value="Hematocrit [Volume Fraction] of Blood by Automated count"/>
            </code>
            <subject>
               <reference value="urn:uuid:8549f10d-98ab-45ba-a810-6a631eb5d8ec"/>
               <display value="Hynek Kubíčková"/>
            </subject>
            <effectiveDateTime value="2022-10-06T12:02:45Z"/>
            <performer>
               <display value="The Central European Lab"/>
            </performer>
            <valueQuantity>
               <value value="48.7"/>
               <unit value="%"/>
               <system value="http://unitsofmeasure.org"/>
               <code value="%"/>
            </valueQuantity>
            <specimen>
               <reference value="urn:uuid:b8fe2272-59f9-4d36-8d68-63e8ad790779"/>
            </specimen>
            <referenceRange>
               <low>
                  <value value="38"/>
                  <system value="http://unitsofmeasure.org"/>
                  <code value="%"/>
               </low>
            </referenceRange>
            <referenceRange>
               <high>
                  <value value="52"/>
                  <system value="http://unitsofmeasure.org"/>
                  <code value="%"/>
               </high>
            </referenceRange>
         </Observation>
      </resource>
   </entry>
   <entry>
      <fullUrl value="urn:uuid:e5022567-cdc3-4ffd-b650-d5eaa3ca7105"/>
      <resource>
         <Observation>
            <id value="e5022567-cdc3-4ffd-b650-d5eaa3ca7105"/>
            <meta>
               <profile value="http://hl7.eu/fhir/laboratory/StructureDefinition/Observation-resultslab-eu-lab"/>
            </meta>
            <text>
               <status value="generated"/>
               <div xmlns="http://www.w3.org/1999/xhtml">
                  <table class="hl7__eu__lab__report">
                     <tr>
                        <th>Test</th>
                        <th>06-Oct-2022</th>
                        <th>Reference Range</th>
                        <th>Unit</th>
                     </tr>
                     <tr>
                        <td>MCV [Entitic volume] by Automated count</td>
                        <td>86.5</td>
                        <td>80 - 98</td>
                        <td/>
                        <td>fL</td>
                     </tr>
                  </table>
               </div>
            </text>
            <status value="final"/>
            <category>
               <coding>
                  <system value="http://terminology.hl7.org/CodeSystem/observation-category"/>
                  <code value="laboratory"/>
               </coding>
            </category>
            <code>
               <coding>
                  <system value="http://loinc.org"/>
                  <code value="787-2"/>
                  <display value="MCV [Entitic volume] by Automated count"/>
               </coding>
               <text value="MCV [Entitic volume] by Automated count"/>
            </code>
            <subject>
               <reference value="urn:uuid:8549f10d-98ab-45ba-a810-6a631eb5d8ec"/>
               <display value="Hynek Kubíčková"/>
            </subject>
            <effectiveDateTime value="2022-10-06T12:02:45Z"/>
            <performer>
               <display value="The Central European Lab"/>
            </performer>
            <valueQuantity>
               <value value="86.5"/>
               <unit value="fL"/>
               <system value="http://unitsofmeasure.org"/>
               <code value="fL"/>
            </valueQuantity>
            <specimen>
               <reference value="urn:uuid:b8fe2272-59f9-4d36-8d68-63e8ad790779"/>
            </specimen>
            <referenceRange>
               <low>
                  <value value="80"/>
                  <system value="http://unitsofmeasure.org"/>
                  <code value="fL"/>
               </low>
            </referenceRange>
            <referenceRange>
               <high>
                  <value value="98"/>
                  <system value="http://unitsofmeasure.org"/>
                  <code value="fL"/>
               </high>
            </referenceRange>
         </Observation>
      </resource>
   </entry>
   <entry>
      <fullUrl value="urn:uuid:537a334f-96ea-4b22-979e-3c910dbbdba3"/>
      <resource>
         <Observation>
            <id value="537a334f-96ea-4b22-979e-3c910dbbdba3"/>
            <meta>
               <profile value="http://hl7.eu/fhir/laboratory/StructureDefinition/Observation-resultslab-eu-lab"/>
            </meta>
            <text>
               <status value="generated"/>
               <div xmlns="http://www.w3.org/1999/xhtml">
                  <table class="hl7__eu__lab__report">
                     <tr>
                        <th>Test</th>
                        <th>06-Oct-2022</th>
                        <th>Reference Range</th>
                        <th>Unit</th>
                     </tr>
                     <tr>
                        <td>MCH [Entitic mass] by Automated count</td>
                        <td>29.8</td>
                        <td>27 - 33</td>
                        <td/>
                        <td>pg</td>
                     </tr>
                  </table>
               </div>
            </text>
            <status value="final"/>
            <category>
               <coding>
                  <system value="http://terminology.hl7.org/CodeSystem/observation-category"/>
                  <code value="laboratory"/>
               </coding>
            </category>
            <code>
               <coding>
                  <system value="http://loinc.org"/>
                  <code value="785-6"/>
                  <display value="MCH [Entitic mass] by Automated count"/>
               </coding>
               <text value="MCH [Entitic mass] by Automated count"/>
            </code>
            <subject>
               <reference value="urn:uuid:8549f10d-98ab-45ba-a810-6a631eb5d8ec"/>
               <display value="Hynek Kubíčková"/>
            </subject>
            <effectiveDateTime value="2022-10-06T12:02:45Z"/>
            <performer>
               <display value="The Central European Lab"/>
            </performer>
            <valueQuantity>
               <value value="29.8"/>
               <unit value="pg"/>
               <system value="http://unitsofmeasure.org"/>
               <code value="pg"/>
            </valueQuantity>
            <specimen>
               <reference value="urn:uuid:b8fe2272-59f9-4d36-8d68-63e8ad790779"/>
            </specimen>
            <referenceRange>
               <low>
                  <value value="27"/>
                  <system value="http://unitsofmeasure.org"/>
                  <code value="pg"/>
               </low>
            </referenceRange>
            <referenceRange>
               <high>
                  <value value="33"/>
                  <system value="http://unitsofmeasure.org"/>
                  <code value="pg"/>
               </high>
            </referenceRange>
         </Observation>
      </resource>
   </entry>
   <entry>
      <fullUrl value="urn:uuid:4ac2124a-c34e-409f-a588-efbf7bce2ad9"/>
      <resource>
         <Observation>
            <id value="4ac2124a-c34e-409f-a588-efbf7bce2ad9"/>
            <meta>
               <profile value="http://hl7.eu/fhir/laboratory/StructureDefinition/Observation-resultslab-eu-lab"/>
            </meta>
            <text>
               <status value="generated"/>
               <div xmlns="http://www.w3.org/1999/xhtml">
                  <table class="hl7__eu__lab__report">
                     <tr>
                        <th>Test</th>
                        <th>06-Oct-2022</th>
                        <th>Reference Range</th>
                        <th>Unit</th>
                     </tr>
                     <tr>
                        <td>MCHC [Mass/volume] by Automated count</td>
                        <td>33.8</td>
                        <td>32 - 36</td>
                        <td/>
                        <td>g/dL</td>
                     </tr>
                  </table>
               </div>
            </text>
            <status value="final"/>
            <category>
               <coding>
                  <system value="http://terminology.hl7.org/CodeSystem/observation-category"/>
                  <code value="laboratory"/>
               </coding>
            </category>
            <code>
               <coding>
                  <system value="http://loinc.org"/>
                  <code value="786-4"/>
                  <display value="MCHC [Mass/volume] by Automated count"/>
               </coding>
               <text value="MCHC [Mass/volume] by Automated count"/>
            </code>
            <subject>
               <reference value="urn:uuid:8549f10d-98ab-45ba-a810-6a631eb5d8ec"/>
               <display value="Hynek Kubíčková"/>
            </subject>
            <effectiveDateTime value="2022-10-06T12:02:45Z"/>
            <performer>
               <display value="The Central European Lab"/>
            </performer>
            <valueQuantity>
               <value value="33.8"/>
               <unit value="g/dL"/>
               <system value="http://unitsofmeasure.org"/>
               <code value="g/dL"/>
            </valueQuantity>
            <specimen>
               <reference value="urn:uuid:b8fe2272-59f9-4d36-8d68-63e8ad790779"/>
            </specimen>
            <referenceRange>
               <low>
                  <value value="32"/>
                  <system value="http://unitsofmeasure.org"/>
                  <code value="g/dL"/>
               </low>
            </referenceRange>
            <referenceRange>
               <high>
                  <value value="36"/>
                  <system value="http://unitsofmeasure.org"/>
                  <code value="g/dL"/>
               </high>
            </referenceRange>
         </Observation>
      </resource>
   </entry>
   <entry>
      <fullUrl value="urn:uuid:6ed37bef-d6a0-4c23-976e-a5a108a1a4bf"/>
      <resource>
         <Observation>
            <id value="6ed37bef-d6a0-4c23-976e-a5a108a1a4bf"/>
            <meta>
               <profile value="http://hl7.eu/fhir/laboratory/StructureDefinition/Observation-resultslab-eu-lab"/>
            </meta>
            <text>
               <status value="generated"/>
               <div xmlns="http://www.w3.org/1999/xhtml">
                  <table class="hl7__eu__lab__report">
                     <tr>
                        <th>Test</th>
                        <th>06-Oct-2022</th>
                        <th>Reference Range</th>
                        <th>Unit</th>
                     </tr>
                     <tr>
                        <td>Erythrocyte distribution width [Entitic volume] by Automated count</td>
                        <td>45.7</td>
                        <td>36 - 55</td>
                        <td/>
                        <td>fL</td>
                     </tr>
                  </table>
               </div>
            </text>
            <status value="final"/>
            <category>
               <coding>
                  <system value="http://terminology.hl7.org/CodeSystem/observation-category"/>
                  <code value="laboratory"/>
               </coding>
            </category>
            <code>
               <coding>
                  <system value="http://loinc.org"/>
                  <code value="21000-5"/>
                  <display value="Erythrocyte distribution width [Entitic volume] by Automated count"/>
               </coding>
               <text value="Erythrocyte distribution width [Entitic volume] by Automated count"/>
            </code>
            <subject>
               <reference value="urn:uuid:8549f10d-98ab-45ba-a810-6a631eb5d8ec"/>
               <display value="Hynek Kubíčková"/>
            </subject>
            <effectiveDateTime value="2022-10-06T12:02:45Z"/>
            <performer>
               <display value="The Central European Lab"/>
            </performer>
            <valueQuantity>
               <value value="45.7"/>
               <unit value="fL"/>
               <system value="http://unitsofmeasure.org"/>
               <code value="fL"/>
            </valueQuantity>
            <specimen>
               <reference value="urn:uuid:b8fe2272-59f9-4d36-8d68-63e8ad790779"/>
            </specimen>
            <referenceRange>
               <low>
                  <value value="36"/>
                  <system value="http://unitsofmeasure.org"/>
                  <code value="fL"/>
               </low>
            </referenceRange>
            <referenceRange>
               <high>
                  <value value="55"/>
                  <system value="http://unitsofmeasure.org"/>
                  <code value="fL"/>
               </high>
            </referenceRange>
         </Observation>
      </resource>
   </entry>
   <entry>
      <fullUrl value="urn:uuid:3c7d372f-4708-4551-801d-8ead1592ecf6"/>
      <resource>
         <Observation>
            <id value="3c7d372f-4708-4551-801d-8ead1592ecf6"/>
            <meta>
               <profile value="http://hl7.eu/fhir/laboratory/StructureDefinition/Observation-resultslab-eu-lab"/>
            </meta>
            <text>
               <status value="generated"/>
               <div xmlns="http://www.w3.org/1999/xhtml">
                  <table class="hl7__eu__lab__report">
                     <tr>
                        <th>Test</th>
                        <th>06-Oct-2022</th>
                        <th>Reference Range</th>
                        <th>Unit</th>
                     </tr>
                     <tr>
                        <td>Platelets [#/volume] in Blood by Automated count</td>
                        <td>251.7</td>
                        <td>150 - 350</td>
                        <td/>
                        <td>10*3/uL</td>
                     </tr>
                  </table>
               </div>
            </text>
            <status value="final"/>
            <category>
               <coding>
                  <system value="http://terminology.hl7.org/CodeSystem/observation-category"/>
                  <code value="laboratory"/>
               </coding>
            </category>
            <code>
               <coding>
                  <system value="http://loinc.org"/>
                  <code value="777-3"/>
                  <display value="Platelets [#/volume] in Blood by Automated count"/>
               </coding>
               <text value="Platelets [#/volume] in Blood by Automated count"/>
            </code>
            <subject>
               <reference value="urn:uuid:8549f10d-98ab-45ba-a810-6a631eb5d8ec"/>
               <display value="Hynek Kubíčková"/>
            </subject>
            <effectiveDateTime value="2022-10-06T12:02:45Z"/>
            <performer>
               <display value="The Central European Lab"/>
            </performer>
            <valueQuantity>
               <value value="251.7"/>
               <unit value="10*3/uL"/>
               <system value="http://unitsofmeasure.org"/>
               <code value="10*3/uL"/>
            </valueQuantity>
            <specimen>
               <reference value="urn:uuid:b8fe2272-59f9-4d36-8d68-63e8ad790779"/>
            </specimen>
            <referenceRange>
               <low>
                  <value value="150"/>
                  <system value="http://unitsofmeasure.org"/>
                  <code value="10*3/uL"/>
               </low>
            </referenceRange>
            <referenceRange>
               <high>
                  <value value="350"/>
                  <system value="http://unitsofmeasure.org"/>
                  <code value="10*3/uL"/>
               </high>
            </referenceRange>
         </Observation>
      </resource>
   </entry>
   <entry>
      <fullUrl value="urn:uuid:715e5cf9-d54e-46aa-9625-2c34f969d12c"/>
      <resource>
         <Observation>
            <id value="715e5cf9-d54e-46aa-9625-2c34f969d12c"/>
            <meta>
               <profile value="http://hl7.eu/fhir/laboratory/StructureDefinition/Observation-resultslab-eu-lab"/>
            </meta>
            <text>
               <status value="generated"/>
               <div xmlns="http://www.w3.org/1999/xhtml">
                  <table class="hl7__eu__lab__report">
                     <tr>
                        <th>Test</th>
                        <th>06-Oct-2022</th>
                        <th>Reference Range</th>
                        <th>Unit</th>
                     </tr>
                     <tr>
                        <td>Platelet distribution width [Entitic volume] in Blood by Automated count</td>
                        <td>377.3</td>
                        <td>150 - 450</td>
                        <td/>
                        <td>fL</td>
                     </tr>
                  </table>
               </div>
            </text>
            <status value="final"/>
            <category>
               <coding>
                  <system value="http://terminology.hl7.org/CodeSystem/observation-category"/>
                  <code value="laboratory"/>
               </coding>
            </category>
            <code>
               <coding>
                  <system value="http://loinc.org"/>
                  <code value="32207-3"/>
                  <display value="Platelet distribution width [Entitic volume] in Blood by Automated count"/>
               </coding>
               <text value="Platelet distribution width [Entitic volume] in Blood by Automated count"/>
            </code>
            <subject>
               <reference value="urn:uuid:8549f10d-98ab-45ba-a810-6a631eb5d8ec"/>
               <display value="Hynek Kubíčková"/>
            </subject>
            <effectiveDateTime value="2022-10-06T12:02:45Z"/>
            <performer>
               <display value="The Central European Lab"/>
            </performer>
            <valueQuantity>
               <value value="377.3"/>
               <unit value="fL"/>
               <system value="http://unitsofmeasure.org"/>
               <code value="fL"/>
            </valueQuantity>
            <specimen>
               <reference value="urn:uuid:b8fe2272-59f9-4d36-8d68-63e8ad790779"/>
            </specimen>
            <referenceRange>
               <low>
                  <value value="150"/>
                  <system value="http://unitsofmeasure.org"/>
                  <code value="fL"/>
               </low>
            </referenceRange>
            <referenceRange>
               <high>
                  <value value="450"/>
                  <system value="http://unitsofmeasure.org"/>
                  <code value="fL"/>
               </high>
            </referenceRange>
         </Observation>
      </resource>
   </entry>
   <entry>
      <fullUrl value="urn:uuid:cd6b35b9-b43a-4667-bf05-becce8485f13"/>
      <resource>
         <Observation>
            <id value="cd6b35b9-b43a-4667-bf05-becce8485f13"/>
            <meta>
               <profile value="http://hl7.eu/fhir/laboratory/StructureDefinition/Observation-resultslab-eu-lab"/>
            </meta>
            <text>
               <status value="generated"/>
               <div xmlns="http://www.w3.org/1999/xhtml">
                  <table class="hl7__eu__lab__report">
                     <tr>
                        <th>Test</th>
                        <th>06-Oct-2022</th>
                        <th>Reference Range</th>
                        <th>Unit</th>
                     </tr>
                     <tr>
                        <td>Platelet mean volume [Entitic volume] in Blood by Automated count</td>
                        <td>11.8</td>
                        <td>9.8 - 13.8</td>
                        <td/>
                        <td>fL</td>
                     </tr>
                  </table>
               </div>
            </text>
            <status value="final"/>
            <category>
               <coding>
                  <system value="http://terminology.hl7.org/CodeSystem/observation-category"/>
                  <code value="laboratory"/>
               </coding>
            </category>
            <code>
               <coding>
                  <system value="http://loinc.org"/>
                  <code value="32623-1"/>
                  <display value="Platelet mean volume [Entitic volume] in Blood by Automated count"/>
               </coding>
               <text value="Platelet mean volume [Entitic volume] in Blood by Automated count"/>
            </code>
            <subject>
               <reference value="urn:uuid:8549f10d-98ab-45ba-a810-6a631eb5d8ec"/>
               <display value="Hynek Kubíčková"/>
            </subject>
            <effectiveDateTime value="2022-10-06T12:02:45Z"/>
            <performer>
               <display value="The Central European Lab"/>
            </performer>
            <valueQuantity>
               <value value="11.8"/>
               <unit value="fL"/>
               <system value="http://unitsofmeasure.org"/>
               <code value="fL"/>
            </valueQuantity>
            <specimen>
               <reference value="urn:uuid:b8fe2272-59f9-4d36-8d68-63e8ad790779"/>
            </specimen>
            <referenceRange>
               <low>
                  <value value="9.8"/>
                  <system value="http://unitsofmeasure.org"/>
                  <code value="fL"/>
               </low>
            </referenceRange>
            <referenceRange>
               <high>
                  <value value="13.8"/>
                  <system value="http://unitsofmeasure.org"/>
                  <code value="fL"/>
               </high>
            </referenceRange>
         </Observation>
      </resource>
   </entry>
   <entry>
      <fullUrl value="urn:uuid:932cb8fb-ed35-4243-8fbe-13fe589db54f"/>
      <resource>
         <Device>
            <id value="932cb8fb-ed35-4243-8fbe-13fe589db54f"/>
            <text>
               <status value="generated"/>
               <div xmlns="http://www.w3.org/1999/xhtml">SYNDERAI Synthetic Generator v5.0</div>
            </text>
            <status value="active&#34;"/>
            <distinctIdentifier value="synderai-generator-50"/>
            <manufacturer value="SYNDERAI Project"/>
            <deviceName>
               <name value="SYNDERAI Synthetic Generator"/>
               <type value="manufacturer-name"/>
            </deviceName>
            <version>
               <value value="5.0"/>
            </version>
         </Device>
      </resource>
   </entry>
   <entry>
      <fullUrl value="urn:uuid:62f88d80-f431-4917-8c6d-175ddd576639"/>
      <resource>
         <Provenance>
            <id value="62f88d80-f431-4917-8c6d-175ddd576639"/>
            <text>
               <status value="generated"/>
               <div xmlns="http://www.w3.org/1999/xhtml">Provenance for SYNDERAI Synthetic Example Data Resource</div>
            </text>
            <target>
               <reference value="Patient/8549f10d-98ab-45ba-a810-6a631eb5d8ec"/>
            </target>
            <target>
               <reference value="Bundle/0c9ccf6e-1efe-4201-b965-006e2a7f683b"/>
            </target>
            <target>
               <reference value="Composition/937909c1-3605-40b8-a72f-558d6b961929"/>
            </target>
            <target>
               <reference value="PractitionerRole/fd952907-7f9c-484e-91a5-2954d852113f"/>
            </target>
            <target>
               <reference value="Practitioner/51836f49-7a75-4cb7-8a75-2472b5d83271"/>
            </target>
            <target>
               <reference value="PractitionerRole/12f620d9-4687-4a51-bbb1-0b284b6cc689"/>
            </target>
            <target>
               <reference value="Organization/024b5dad-66f6-49ce-b6ae-04f8b23cc5d6"/>
            </target>
            <recorded value="2022-10-06T14:02:45Z"/>
            <policy value="https://synderai.net/synderai-synthetic-data-policy"/>
            <reason>
               <text value="Interoperability Testing and Training (non-clinical use)"/>
            </reason>
            <activity>
               <text value="Synthetic Example Data Generation"/>
            </activity>
            <agent>
               <type>
                  <text value="author"/>
               </type>
               <who>
                  <reference value="Device/932cb8fb-ed35-4243-8fbe-13fe589db54f"/>
               </who>
            </agent>
         </Provenance>
      </resource>
   </entry>
   <entry>
      <fullUrl value="urn:uuid:fd952907-7f9c-484e-91a5-2954d852113f"/>
      <resource>
         <PractitionerRole>
            <id value="fd952907-7f9c-484e-91a5-2954d852113f"/>
            <meta>
               <profile value="http://hl7.eu/fhir/base/StructureDefinition/practitionerRole-eu"/>
            </meta>
            <text>
               <status value="generated"/>
               <div xmlns="http://www.w3.org/1999/xhtml">Laboratory Role Id: fd952907-7f9c-484e-91a5-2954d852113f</div>
            </text>
            <practitioner>
               <reference value="urn:uuid:51836f49-7a75-4cb7-8a75-2472b5d83271"/>
            </practitioner>
         </PractitionerRole>
      </resource>
   </entry>
   <entry>
      <fullUrl value="urn:uuid:51836f49-7a75-4cb7-8a75-2472b5d83271"/>
      <resource>
         <Practitioner>
            <id value="51836f49-7a75-4cb7-8a75-2472b5d83271"/>
            <meta>
               <profile value="http://hl7.eu/fhir/base/StructureDefinition/practitioner-eu"/>
            </meta>
            <text>
               <status value="generated"/>
               <div xmlns="http://www.w3.org/1999/xhtml">Laboratory: Laboratoire Central Européenne, 1000 Brussels, Belgium</div>
            </text>
            <identifier>
               <system value="urn:oid:2.16.840.1.113883.2.51.999"/>
               <value value="53311691-8a5e-4c08-8c7b-b7dcfcb3c813"/>
               <assigner>
                  <display value="HL7 Europe"/>
               </assigner>
            </identifier>
            <name>
               <family value="Ample"/>
               <given value="Ex"/>
               <prefix value="dr"/>
            </name>
            <address>
               <line value="Laboratoire Central Européenne"/>
               <line value="Boulevard du Jardin Botanique 32"/>
               <city value="Brussels"/>
               <postalCode value="1000"/>
               <country value="Belgium"/>
            </address>
         </Practitioner>
      </resource>
   </entry>
</Bundle>