{
  "resourceType": "Bundle",
  "id": "77865aab-9e14-42ec-b2ac-7beb6404710b",
  "meta": {
    "profile": [
      "http://hl7.eu/fhir/laboratory/StructureDefinition/Bundle-eu-lab"
    ]
  },
  "identifier": {
    "assigner": {
      "display": "HL7 Europe"
    },
    "system": "urn:oid:2.16.840.1.113883.2.51.999",
    "value": "8f51c025-4e77-456e-9b5a-3d478ae97e60"
  },
  "entry": [
    {
      "fullUrl": "urn:uuid:38d3b5d4-415e-4158-8503-cf06df3127c7",
      "resource": {
        "resourceType": "Composition",
        "id": "38d3b5d4-415e-4158-8503-cf06df3127c7",
        "meta": {
          "profile": [
            "http://hl7.eu/fhir/laboratory/StructureDefinition/Composition-eu-lab"
          ]
        },
        "identifier": {
          "assigner": {
            "display": "HL7 Europe"
          },
          "system": "urn:oid:2.16.840.1.113883.2.51.999",
          "value": "66527c2e-af3f-4454-a6c7-dc80e64d6c64"
        },
        "author": [
          {
            "reference": "urn:uuid:a319a63e-3453-4a51-a362-accdae30a8d2"
          }
        ],
        "category": [
          {
            "coding": [
              {
                "code": "26436-6",
                "system": "http://loinc.org",
                "display": "Laboratory studies (set)"
              }
            ]
          }
        ],
        "type": {
          "coding": [
            {
              "code": "11502-2",
              "system": "http://loinc.org",
              "display": "Laboratory report"
            }
          ],
          "text": "Laboratory Report"
        },
        "section": [
          {
            "code": {
              "coding": [
                {
                  "code": "26436-6",
                  "system": "http://loinc.org",
                  "display": "Laboratory studies (set)"
                }
              ],
              "text": "Laboratory studies"
            },
            "section": [
              {
                "code": {
                  "coding": [
                    {
                      "code": "$18719-5",
                      "system": "http://loinc.org",
                      "display": "Chemistry studies (set)"
                    }
                  ],
                  "text": "Chemistry"
                },
                "entry": [
                  {
                    "reference": "urn:uuid:45a64b88-2aee-471b-9da1-ac877d9ca976"
                  },
                  {
                    "reference": "urn:uuid:aebfe73e-ed33-41c7-bf80-3860b454278a"
                  },
                  {
                    "reference": "urn:uuid:695ccfca-32b0-4293-b9d3-a966b8aa3966"
                  },
                  {
                    "reference": "urn:uuid:2e633943-9f5a-4272-94fd-ac2319200c1a"
                  },
                  {
                    "reference": "urn:uuid:479aeca7-3cc9-4f41-aacd-a6565cbc4f7c"
                  },
                  {
                    "reference": "urn:uuid:e61e2d7e-2227-4e3e-abda-9d3412a5f893"
                  },
                  {
                    "reference": "urn:uuid:150c685d-8873-491b-92aa-3f257bd7b647"
                  },
                  {
                    "reference": "urn:uuid:a3683f04-bd0f-4d42-a077-b47378d6f64e"
                  },
                  {
                    "reference": "urn:uuid:9d7f8700-bc8f-4b28-92f6-b6645ba06ce7"
                  }
                ],
                "text": {
                  "status": "generated",
                  "div": "<div xmlns=\"http://www.w3.org/1999/xhtml\"><h3>Chemistry</h3><table class=\"hl7__eu__lab__report\"><thead><tr><th>Test</th><th>10-MAY-2017</th><th>Reference&#xA0;Range</th><th>Unit</th></tr></thead><tbody><tr><td>Hemoglobin A1c/Hemoglobin.total in Blood</td><td><strong>6.2 H</strong></td><td>3.8 - 5.7</td><td>%</td></tr><tr><td>Glucose [Mass/volume] in Blood</td><td>90.8</td><td>70 - 140</td><td>mg/dL</td></tr><tr><td>Urea nitrogen [Mass/volume] in Blood</td><td>15.1</td><td>7 - 20</td><td>mg/dL</td></tr><tr><td>Creatinine [Mass/volume] in Blood</td><td><strong>0.7 L</strong></td><td>0.9 - 1.3</td><td>mg/dL</td></tr><tr><td>Calcium [Mass/volume] in Blood</td><td>8.6</td><td>8.5 - 10.5</td><td>mg/dL</td></tr><tr><td>Sodium [Moles/volume] in Blood</td><td>139.9</td><td>135 - 145</td><td>mmol/L</td></tr><tr><td>Potassium [Moles/volume] in Blood</td><td>4.9</td><td>3.5 - 5.3</td><td>mmol/L</td></tr><tr><td>Chloride [Moles/volume] in Blood</td><td>104.9</td><td>98 - 109</td><td>mmol/L</td></tr><tr><td>Carbon dioxide, total [Moles/volume] in Blood</td><td><strong>20.3 L</strong></td><td>22 - 32</td><td>mmol/L</td></tr></tbody></table></div>"
                },
                "title": "Chemistry"
              }
            ],
            "title": "Laboratory Report"
          },
          {
            "text": {
              "status": "generated",
              "div": "<div xmlns=\"http://www.w3.org/1999/xhtml\"><h3>Annotation</h3><table class=\"hl7__eu__lab__report\"><tr><th>Conclusion and Recommendations based on this report and previous findings known to us</th></tr><tr><td>The patient shows mildly elevated HbA1c, indicating suboptimal long-term glycemic control (prediabetes/early diabetes). Creatinine is slightly below normal, which is not clinically significant. Total CO₂ is mildly decreased, possibly suggesting mild metabolic acidosis or compensation. Other parameters are within normal limits. Recommend clinical correlation and monitoring of glycemic status.</td></tr></table></div>"
            },
            "code": {
              "coding": [
                {
                  "system": "http://loinc.org",
                  "code": "48767-8",
                  "display": "Annotation comment"
                }
              ]
            },
            "title": "Annotation comment"
          }
        ],
        "status": "final",
        "subject": {
          "reference": "urn:uuid:3ec8bdea-e6c9-4bf6-baed-3af9645d6a47",
          "display": "Lazăr Florea"
        },
        "date": "2017-05-10T15:56:29Z",
        "title": "Laboratory Report",
        "confidentiality": "N"
      }
    },
    {
      "fullUrl": "urn:uuid:f6b25185-1c3f-48f1-bcc6-a0c9a7859c22",
      "resource": {
        "resourceType": "DiagnosticReport",
        "id": "f6b25185-1c3f-48f1-bcc6-a0c9a7859c22",
        "meta": {
          "profile": [
            "http://hl7.eu/fhir/laboratory/StructureDefinition/DiagnosticReport-eu-lab"
          ]
        },
        "identifier": [
          {
            "assigner": {
              "display": "HL7 Europe"
            },
            "system": "urn:oid:2.16.840.1.113883.2.51.999",
            "value": "7f406c21-8b34-4c24-878d-c314e4dc0601"
          }
        ],
        "extension": [
          {
            "url": "http://hl7.org/fhir/5.0/StructureDefinition/extension-DiagnosticReport.composition",
            "valueReference": {
              "reference": "urn:uuid:66527c2e-af3f-4454-a6c7-dc80e64d6c64"
            }
          }
        ],
        "category": [
          {
            "coding": [
              {
                "code": "26436-6",
                "system": "http://loinc.org",
                "display": "Laboratory studies (set)"
              }
            ]
          }
        ],
        "specimen": [
          {
            "reference": "urn:uuid:153a6731-f952-4d1b-bd27-26bcbeb95af6"
          }
        ],
        "result": [
          {
            "reference": "urn:uuid:45a64b88-2aee-471b-9da1-ac877d9ca976"
          },
          {
            "reference": "urn:uuid:aebfe73e-ed33-41c7-bf80-3860b454278a"
          },
          {
            "reference": "urn:uuid:695ccfca-32b0-4293-b9d3-a966b8aa3966"
          },
          {
            "reference": "urn:uuid:2e633943-9f5a-4272-94fd-ac2319200c1a"
          },
          {
            "reference": "urn:uuid:479aeca7-3cc9-4f41-aacd-a6565cbc4f7c"
          },
          {
            "reference": "urn:uuid:e61e2d7e-2227-4e3e-abda-9d3412a5f893"
          },
          {
            "reference": "urn:uuid:150c685d-8873-491b-92aa-3f257bd7b647"
          },
          {
            "reference": "urn:uuid:a3683f04-bd0f-4d42-a077-b47378d6f64e"
          },
          {
            "reference": "urn:uuid:9d7f8700-bc8f-4b28-92f6-b6645ba06ce7"
          }
        ],
        "status": "registered",
        "code": {
          "coding": [
            {
              "code": "11502-2",
              "system": "http://loinc.org",
              "display": "Laboratory report"
            }
          ]
        },
        "subject": {
          "reference": "urn:uuid:3ec8bdea-e6c9-4bf6-baed-3af9645d6a47",
          "display": "Lazăr Florea"
        }
      }
    },
    {
      "fullUrl": "urn:uuid:3ec8bdea-e6c9-4bf6-baed-3af9645d6a47",
      "resource": {
        "resourceType": "Patient",
        "id": "3ec8bdea-e6c9-4bf6-baed-3af9645d6a47",
        "meta": {
          "security": [
            {
              "system": "http://terminology.hl7.org/CodeSystem/v3-ActReason",
              "code": "HTEST"
            },
            {
              "system": "http://terminology.hl7.org/CodeSystem/v3-ActReason",
              "code": "TRAIN"
            }
          ],
          "tag": [
            {
              "system": "https://synderai.net/fhir/CodeSystem/tags",
              "code": "synthetic",
              "display": "SYNDERAI Synthetic data"
            }
          ],
          "profile": [
            "http://hl7.eu/fhir/base/StructureDefinition/patient-eu-core"
          ]
        },
        "identifier": [
          {
            "type": {
              "coding": [
                {
                  "code": "PT",
                  "system": "http://terminology.hl7.org/CodeSystem/v2-0203"
                }
              ]
            },
            "system": "http://ec.europa.eu/identifier/eci",
            "value": "8693-862290-8"
          },
          {
            "type": {
              "coding": [
                {
                  "code": "MR",
                  "system": "http://terminology.hl7.org/CodeSystem/v2-0203"
                }
              ]
            },
            "system": "http://local.setting.eu/identifier",
            "value": "602fbbf5-967b-6d86-a533-5cec24b13e71"
          }
        ],
        "name": [
          {
            "family": "Florea"
          },
          {
            "given": [
              "Lazăr"
            ]
          },
          {
            "text": "Lazăr Florea"
          }
        ],
        "address": [
          {
            "line": [
              "Drumul Grațian Nistor"
            ],
            "use": "home",
            "type": "physical",
            "postalCode": "265300",
            "city": "Lupeni",
            "country": "Romania"
          }
        ],
        "telecom": [
          {
            "system": "phone",
            "value": "0753 950 380"
          }
        ],
        "extension": [
          {
            "url": "http://hl7.org/fhir/StructureDefinition/patient-nationality",
            "valueCodeableConcept": {
              "coding": [
                {
                  "code": "RO",
                  "system": "http://hl7.org/fhir/ValueSet/country"
                }
              ]
            }
          }
        ],
        "text": {
          "status": "generated",
          "div": "<div xmlns=\"http://www.w3.org/1999/xhtml\"><table class=\"hl7__ips\"><tr><td>Lazăr Florea</td><td>male</td><td>10-Feb-1946</td></tr></table></div>"
        },
        "gender": "male",
        "birthDate": "1946-02-10"
      }
    },
    {
      "fullUrl": "urn:uuid:fce4c352-984c-4478-ab5e-68178efcfd6e",
      "resource": {
        "resourceType": "ServiceRequest",
        "id": "fce4c352-984c-4478-ab5e-68178efcfd6e",
        "meta": {
          "profile": [
            "http://hl7.eu/fhir/laboratory/StructureDefinition/ServiceRequest-eu-lab"
          ]
        },
        "identifier": [
          {
            "system": "http://example.org",
            "value": "f2bb33a5-a4b9-4af1-a96d-97ef2418771b"
          }
        ],
        "specimen": [
          {
            "reference": "urn:uuid:153a6731-f952-4d1b-bd27-26bcbeb95af6"
          }
        ],
        "reasonCode": [
          {
            "coding": [
              {
                "code": "197927001",
                "system": "http://snomed.info/sct",
                "display": "Recurrent urinary tract infection"
              }
            ]
          },
          {
            "coding": [
              {
                "code": "414545008",
                "system": "http://snomed.info/sct",
                "display": "Ischemic heart disease"
              }
            ]
          },
          {
            "coding": [
              {
                "code": "237602007",
                "system": "http://snomed.info/sct",
                "display": "Metabolic syndrome X"
              }
            ]
          },
          {
            "coding": [
              {
                "code": "271737000",
                "system": "http://snomed.info/sct",
                "display": "Anemia"
              }
            ]
          },
          {
            "coding": [
              {
                "code": "15777000",
                "system": "http://snomed.info/sct",
                "display": "Prediabetes"
              }
            ]
          },
          {
            "coding": [
              {
                "code": "59621000",
                "system": "http://snomed.info/sct",
                "display": "Essential hypertension"
              }
            ]
          },
          {
            "coding": [
              {
                "code": "40055000",
                "system": "http://snomed.info/sct",
                "display": "Chronic sinusitis"
              }
            ]
          }
        ],
        "status": "active",
        "intent": "order",
        "code": {
          "coding": [
            {
              "code": "108252007",
              "system": "http://snomed.info/sct",
              "display": "Laboratory procedure"
            }
          ]
        },
        "subject": {
          "reference": "urn:uuid:3ec8bdea-e6c9-4bf6-baed-3af9645d6a47",
          "display": "Lazăr Florea"
        },
        "requester": {
          "reference": "urn:uuid:b2db489a-4790-4b5d-b462-6e3018459738"
        }
      }
    },
    {
      "fullUrl": "urn:uuid:b2db489a-4790-4b5d-b462-6e3018459738",
      "resource": {
        "resourceType": "PractitionerRole",
        "id": "b2db489a-4790-4b5d-b462-6e3018459738",
        "meta": {
          "profile": [
            "http://hl7.eu/fhir/base/StructureDefinition/practitionerRole-eu"
          ]
        },
        "text": {
          "status": "generated",
          "div": "<div xmlns=\"http://www.w3.org/1999/xhtml\">Provider Role Id: b2db489a-4790-4b5d-b462-6e3018459738</div>"
        },
        "organization": {
          "reference": "urn:uuid:eb81833e-2012-4264-a2b3-9de79114ffeb"
        }
      }
    },
    {
      "fullUrl": "urn:uuid:eb81833e-2012-4264-a2b3-9de79114ffeb",
      "resource": {
        "resourceType": "Organization",
        "id": "eb81833e-2012-4264-a2b3-9de79114ffeb",
        "meta": {
          "profile": [
            "http://hl7.eu/fhir/base/StructureDefinition/organization-eu"
          ]
        },
        "identifier": [
          {
            "assigner": {
              "display": "HL7 Europe"
            },
            "system": "urn:oid:2.16.840.1.113883.2.51.999",
            "value": "7397ab80-988f-4f93-9599-d49cf1ca6309"
          }
        ],
        "address": [
          {
            "line": [
              "Strada 1 Decembrie 1918 137 A"
            ],
            "city": "Petroșani",
            "postalCode": "332019",
            "country": "Romania"
          }
        ],
        "text": {
          "status": "generated",
          "div": "<div xmlns=\"http://www.w3.org/1999/xhtml\">Provider Organization: Spitalul de Urgență</div>"
        },
        "name": "Spitalul de Urgență"
      }
    },
    {
      "fullUrl": "urn:uuid:153a6731-f952-4d1b-bd27-26bcbeb95af6",
      "resource": {
        "resourceType": "Specimen",
        "id": "153a6731-f952-4d1b-bd27-26bcbeb95af6",
        "meta": {
          "profile": [
            "http://hl7.eu/fhir/laboratory/StructureDefinition/Specimen-eu-lab"
          ]
        },
        "collection": {
          "collectedDateTime": "2017-05-10"
        },
        "text": {
          "status": "generated",
          "div": "<div xmlns=\"http://www.w3.org/1999/xhtml\"><table class=\"hl7__eu__lab__report\"><tr><th>Specimen</th><th>Collection Date</th></tr><tr><td>Whole blood specimen (specimen)</td><td><span class=\"nb\">10-May-2017</span></td></tr></table></div>"
        },
        "type": {
          "coding": [
            {
              "code": "258580003",
              "system": "http://snomed.info/sct",
              "display": "Whole blood specimen (specimen)"
            }
          ]
        }
      }
    },
    {
      "fullUrl": "urn:uuid:45a64b88-2aee-471b-9da1-ac877d9ca976",
      "resource": {
        "resourceType": "Observation",
        "id": "45a64b88-2aee-471b-9da1-ac877d9ca976",
        "meta": {
          "profile": [
            "http://hl7.eu/fhir/laboratory/StructureDefinition/Observation-resultslab-eu-lab"
          ]
        },
        "performer": [
          {
            "display": "The Central European Lab"
          }
        ],
        "category": [
          {
            "coding": [
              {
                "system": "http://terminology.hl7.org/CodeSystem/observation-category",
                "code": "laboratory"
              }
            ]
          }
        ],
        "code": {
          "coding": [
            {
              "code": "4548-4",
              "system": "http://loinc.org",
              "display": "Hemoglobin A1c/Hemoglobin.total in Blood"
            }
          ],
          "text": "Hemoglobin A1c/Hemoglobin.total in Blood"
        },
        "valueQuantity": {
          "system": "http://unitsofmeasure.org",
          "value": 6.2,
          "unit": "%",
          "code": "%"
        },
        "referenceRange": [
          {
            "low": {
              "value": 3.8,
              "code": "%",
              "system": "http://unitsofmeasure.org"
            }
          },
          {
            "high": {
              "value": 5.7,
              "code": "%",
              "system": "http://unitsofmeasure.org"
            }
          }
        ],
        "interpretation": [
          {
            "coding": [
              {
                "code": "H",
                "system": "http://terminology.hl7.org/CodeSystem/v3-ObservationInterpretation",
                "display": "High"
              }
            ]
          }
        ],
        "text": {
          "status": "generated",
          "div": "<div xmlns=\"http://www.w3.org/1999/xhtml\"><table class=\"hl7__eu__lab__report\"><tr><th>Test</th><th>10-May-2017</th><th>Reference&#xA0;Range</th><th>Unit</th></tr><tr><td>Hemoglobin A1c/Hemoglobin.total in Blood</td><td>6.2</td><td>3.8 - 5.7</td><td>H</td><td>%</td></tr></table></div>"
        },
        "status": "final",
        "subject": {
          "reference": "urn:uuid:3ec8bdea-e6c9-4bf6-baed-3af9645d6a47",
          "display": "Lazăr Florea"
        },
        "effectiveDateTime": "2017-05-10T13:56:29Z",
        "specimen": {
          "reference": "urn:uuid:153a6731-f952-4d1b-bd27-26bcbeb95af6"
        }
      }
    },
    {
      "fullUrl": "urn:uuid:aebfe73e-ed33-41c7-bf80-3860b454278a",
      "resource": {
        "resourceType": "Observation",
        "id": "aebfe73e-ed33-41c7-bf80-3860b454278a",
        "meta": {
          "profile": [
            "http://hl7.eu/fhir/laboratory/StructureDefinition/Observation-resultslab-eu-lab"
          ]
        },
        "performer": [
          {
            "display": "The Central European Lab"
          }
        ],
        "category": [
          {
            "coding": [
              {
                "system": "http://terminology.hl7.org/CodeSystem/observation-category",
                "code": "laboratory"
              }
            ]
          }
        ],
        "code": {
          "coding": [
            {
              "code": "2339-0",
              "system": "http://loinc.org",
              "display": "Glucose [Mass/volume] in Blood"
            }
          ],
          "text": "Glucose [Mass/volume] in Blood"
        },
        "valueQuantity": {
          "system": "http://unitsofmeasure.org",
          "value": 90.8,
          "unit": "mg/dL",
          "code": "mg/dL"
        },
        "referenceRange": [
          {
            "low": {
              "value": 70,
              "code": "mg/dL",
              "system": "http://unitsofmeasure.org"
            }
          },
          {
            "high": {
              "value": 140,
              "code": "mg/dL",
              "system": "http://unitsofmeasure.org"
            }
          }
        ],
        "text": {
          "status": "generated",
          "div": "<div xmlns=\"http://www.w3.org/1999/xhtml\"><table class=\"hl7__eu__lab__report\"><tr><th>Test</th><th>10-May-2017</th><th>Reference&#xA0;Range</th><th>Unit</th></tr><tr><td>Glucose [Mass/volume] in Blood</td><td>90.8</td><td>70 - 140</td><td></td><td>mg/dL</td></tr></table></div>"
        },
        "status": "final",
        "subject": {
          "reference": "urn:uuid:3ec8bdea-e6c9-4bf6-baed-3af9645d6a47",
          "display": "Lazăr Florea"
        },
        "effectiveDateTime": "2017-05-10T13:56:29Z",
        "specimen": {
          "reference": "urn:uuid:153a6731-f952-4d1b-bd27-26bcbeb95af6"
        }
      }
    },
    {
      "fullUrl": "urn:uuid:695ccfca-32b0-4293-b9d3-a966b8aa3966",
      "resource": {
        "resourceType": "Observation",
        "id": "695ccfca-32b0-4293-b9d3-a966b8aa3966",
        "meta": {
          "profile": [
            "http://hl7.eu/fhir/laboratory/StructureDefinition/Observation-resultslab-eu-lab"
          ]
        },
        "performer": [
          {
            "display": "The Central European Lab"
          }
        ],
        "category": [
          {
            "coding": [
              {
                "system": "http://terminology.hl7.org/CodeSystem/observation-category",
                "code": "laboratory"
              }
            ]
          }
        ],
        "code": {
          "coding": [
            {
              "code": "6299-2",
              "system": "http://loinc.org",
              "display": "Urea nitrogen [Mass/volume] in Blood"
            }
          ],
          "text": "Urea nitrogen [Mass/volume] in Blood"
        },
        "valueQuantity": {
          "system": "http://unitsofmeasure.org",
          "value": 15.1,
          "unit": "mg/dL",
          "code": "mg/dL"
        },
        "referenceRange": [
          {
            "low": {
              "value": 7,
              "code": "mg/dL",
              "system": "http://unitsofmeasure.org"
            }
          },
          {
            "high": {
              "value": 20,
              "code": "mg/dL",
              "system": "http://unitsofmeasure.org"
            }
          }
        ],
        "text": {
          "status": "generated",
          "div": "<div xmlns=\"http://www.w3.org/1999/xhtml\"><table class=\"hl7__eu__lab__report\"><tr><th>Test</th><th>10-May-2017</th><th>Reference&#xA0;Range</th><th>Unit</th></tr><tr><td>Urea nitrogen [Mass/volume] in Blood</td><td>15.1</td><td>7 - 20</td><td></td><td>mg/dL</td></tr></table></div>"
        },
        "status": "final",
        "subject": {
          "reference": "urn:uuid:3ec8bdea-e6c9-4bf6-baed-3af9645d6a47",
          "display": "Lazăr Florea"
        },
        "effectiveDateTime": "2017-05-10T13:56:29Z",
        "specimen": {
          "reference": "urn:uuid:153a6731-f952-4d1b-bd27-26bcbeb95af6"
        }
      }
    },
    {
      "fullUrl": "urn:uuid:2e633943-9f5a-4272-94fd-ac2319200c1a",
      "resource": {
        "resourceType": "Observation",
        "id": "2e633943-9f5a-4272-94fd-ac2319200c1a",
        "meta": {
          "profile": [
            "http://hl7.eu/fhir/laboratory/StructureDefinition/Observation-resultslab-eu-lab"
          ]
        },
        "performer": [
          {
            "display": "The Central European Lab"
          }
        ],
        "category": [
          {
            "coding": [
              {
                "system": "http://terminology.hl7.org/CodeSystem/observation-category",
                "code": "laboratory"
              }
            ]
          }
        ],
        "code": {
          "coding": [
            {
              "code": "38483-4",
              "system": "http://loinc.org",
              "display": "Creatinine [Mass/volume] in Blood"
            }
          ],
          "text": "Creatinine [Mass/volume] in Blood"
        },
        "valueQuantity": {
          "system": "http://unitsofmeasure.org",
          "value": 0.7,
          "unit": "mg/dL",
          "code": "mg/dL"
        },
        "referenceRange": [
          {
            "low": {
              "value": 0.9,
              "code": "mg/dL",
              "system": "http://unitsofmeasure.org"
            }
          },
          {
            "high": {
              "value": 1.3,
              "code": "mg/dL",
              "system": "http://unitsofmeasure.org"
            }
          }
        ],
        "interpretation": [
          {
            "coding": [
              {
                "code": "L",
                "system": "http://terminology.hl7.org/CodeSystem/v3-ObservationInterpretation",
                "display": "Low"
              }
            ]
          }
        ],
        "text": {
          "status": "generated",
          "div": "<div xmlns=\"http://www.w3.org/1999/xhtml\"><table class=\"hl7__eu__lab__report\"><tr><th>Test</th><th>10-May-2017</th><th>Reference&#xA0;Range</th><th>Unit</th></tr><tr><td>Creatinine [Mass/volume] in Blood</td><td>0.7</td><td>0.9 - 1.3</td><td>L</td><td>mg/dL</td></tr></table></div>"
        },
        "status": "final",
        "subject": {
          "reference": "urn:uuid:3ec8bdea-e6c9-4bf6-baed-3af9645d6a47",
          "display": "Lazăr Florea"
        },
        "effectiveDateTime": "2017-05-10T13:56:29Z",
        "specimen": {
          "reference": "urn:uuid:153a6731-f952-4d1b-bd27-26bcbeb95af6"
        }
      }
    },
    {
      "fullUrl": "urn:uuid:479aeca7-3cc9-4f41-aacd-a6565cbc4f7c",
      "resource": {
        "resourceType": "Observation",
        "id": "479aeca7-3cc9-4f41-aacd-a6565cbc4f7c",
        "meta": {
          "profile": [
            "http://hl7.eu/fhir/laboratory/StructureDefinition/Observation-resultslab-eu-lab"
          ]
        },
        "performer": [
          {
            "display": "The Central European Lab"
          }
        ],
        "category": [
          {
            "coding": [
              {
                "system": "http://terminology.hl7.org/CodeSystem/observation-category",
                "code": "laboratory"
              }
            ]
          }
        ],
        "code": {
          "coding": [
            {
              "code": "49765-1",
              "system": "http://loinc.org",
              "display": "Calcium [Mass/volume] in Blood"
            }
          ],
          "text": "Calcium [Mass/volume] in Blood"
        },
        "valueQuantity": {
          "system": "http://unitsofmeasure.org",
          "value": 8.6,
          "unit": "mg/dL",
          "code": "mg/dL"
        },
        "referenceRange": [
          {
            "low": {
              "value": 8.5,
              "code": "mg/dL",
              "system": "http://unitsofmeasure.org"
            }
          },
          {
            "high": {
              "value": 10.5,
              "code": "mg/dL",
              "system": "http://unitsofmeasure.org"
            }
          }
        ],
        "text": {
          "status": "generated",
          "div": "<div xmlns=\"http://www.w3.org/1999/xhtml\"><table class=\"hl7__eu__lab__report\"><tr><th>Test</th><th>10-May-2017</th><th>Reference&#xA0;Range</th><th>Unit</th></tr><tr><td>Calcium [Mass/volume] in Blood</td><td>8.6</td><td>8.5 - 10.5</td><td></td><td>mg/dL</td></tr></table></div>"
        },
        "status": "final",
        "subject": {
          "reference": "urn:uuid:3ec8bdea-e6c9-4bf6-baed-3af9645d6a47",
          "display": "Lazăr Florea"
        },
        "effectiveDateTime": "2017-05-10T13:56:29Z",
        "specimen": {
          "reference": "urn:uuid:153a6731-f952-4d1b-bd27-26bcbeb95af6"
        }
      }
    },
    {
      "fullUrl": "urn:uuid:e61e2d7e-2227-4e3e-abda-9d3412a5f893",
      "resource": {
        "resourceType": "Observation",
        "id": "e61e2d7e-2227-4e3e-abda-9d3412a5f893",
        "meta": {
          "profile": [
            "http://hl7.eu/fhir/laboratory/StructureDefinition/Observation-resultslab-eu-lab"
          ]
        },
        "performer": [
          {
            "display": "The Central European Lab"
          }
        ],
        "category": [
          {
            "coding": [
              {
                "system": "http://terminology.hl7.org/CodeSystem/observation-category",
                "code": "laboratory"
              }
            ]
          }
        ],
        "code": {
          "coding": [
            {
              "code": "2947-0",
              "system": "http://loinc.org",
              "display": "Sodium [Moles/volume] in Blood"
            }
          ],
          "text": "Sodium [Moles/volume] in Blood"
        },
        "valueQuantity": {
          "system": "http://unitsofmeasure.org",
          "value": 139.9,
          "unit": "mmol/L",
          "code": "mmol/L"
        },
        "referenceRange": [
          {
            "low": {
              "value": 135,
              "code": "mmol/L",
              "system": "http://unitsofmeasure.org"
            }
          },
          {
            "high": {
              "value": 145,
              "code": "mmol/L",
              "system": "http://unitsofmeasure.org"
            }
          }
        ],
        "text": {
          "status": "generated",
          "div": "<div xmlns=\"http://www.w3.org/1999/xhtml\"><table class=\"hl7__eu__lab__report\"><tr><th>Test</th><th>10-May-2017</th><th>Reference&#xA0;Range</th><th>Unit</th></tr><tr><td>Sodium [Moles/volume] in Blood</td><td>139.9</td><td>135 - 145</td><td></td><td>mmol/L</td></tr></table></div>"
        },
        "status": "final",
        "subject": {
          "reference": "urn:uuid:3ec8bdea-e6c9-4bf6-baed-3af9645d6a47",
          "display": "Lazăr Florea"
        },
        "effectiveDateTime": "2017-05-10T13:56:29Z",
        "specimen": {
          "reference": "urn:uuid:153a6731-f952-4d1b-bd27-26bcbeb95af6"
        }
      }
    },
    {
      "fullUrl": "urn:uuid:150c685d-8873-491b-92aa-3f257bd7b647",
      "resource": {
        "resourceType": "Observation",
        "id": "150c685d-8873-491b-92aa-3f257bd7b647",
        "meta": {
          "profile": [
            "http://hl7.eu/fhir/laboratory/StructureDefinition/Observation-resultslab-eu-lab"
          ]
        },
        "performer": [
          {
            "display": "The Central European Lab"
          }
        ],
        "category": [
          {
            "coding": [
              {
                "system": "http://terminology.hl7.org/CodeSystem/observation-category",
                "code": "laboratory"
              }
            ]
          }
        ],
        "code": {
          "coding": [
            {
              "code": "6298-4",
              "system": "http://loinc.org",
              "display": "Potassium [Moles/volume] in Blood"
            }
          ],
          "text": "Potassium [Moles/volume] in Blood"
        },
        "valueQuantity": {
          "system": "http://unitsofmeasure.org",
          "value": 4.9,
          "unit": "mmol/L",
          "code": "mmol/L"
        },
        "referenceRange": [
          {
            "low": {
              "value": 3.5,
              "code": "mmol/L",
              "system": "http://unitsofmeasure.org"
            }
          },
          {
            "high": {
              "value": 5.3,
              "code": "mmol/L",
              "system": "http://unitsofmeasure.org"
            }
          }
        ],
        "text": {
          "status": "generated",
          "div": "<div xmlns=\"http://www.w3.org/1999/xhtml\"><table class=\"hl7__eu__lab__report\"><tr><th>Test</th><th>10-May-2017</th><th>Reference&#xA0;Range</th><th>Unit</th></tr><tr><td>Potassium [Moles/volume] in Blood</td><td>4.9</td><td>3.5 - 5.3</td><td></td><td>mmol/L</td></tr></table></div>"
        },
        "status": "final",
        "subject": {
          "reference": "urn:uuid:3ec8bdea-e6c9-4bf6-baed-3af9645d6a47",
          "display": "Lazăr Florea"
        },
        "effectiveDateTime": "2017-05-10T13:56:29Z",
        "specimen": {
          "reference": "urn:uuid:153a6731-f952-4d1b-bd27-26bcbeb95af6"
        }
      }
    },
    {
      "fullUrl": "urn:uuid:a3683f04-bd0f-4d42-a077-b47378d6f64e",
      "resource": {
        "resourceType": "Observation",
        "id": "a3683f04-bd0f-4d42-a077-b47378d6f64e",
        "meta": {
          "profile": [
            "http://hl7.eu/fhir/laboratory/StructureDefinition/Observation-resultslab-eu-lab"
          ]
        },
        "performer": [
          {
            "display": "The Central European Lab"
          }
        ],
        "category": [
          {
            "coding": [
              {
                "system": "http://terminology.hl7.org/CodeSystem/observation-category",
                "code": "laboratory"
              }
            ]
          }
        ],
        "code": {
          "coding": [
            {
              "code": "2069-3",
              "system": "http://loinc.org",
              "display": "Chloride [Moles/volume] in Blood"
            }
          ],
          "text": "Chloride [Moles/volume] in Blood"
        },
        "valueQuantity": {
          "system": "http://unitsofmeasure.org",
          "value": 104.9,
          "unit": "mmol/L",
          "code": "mmol/L"
        },
        "referenceRange": [
          {
            "low": {
              "value": 98,
              "code": "mmol/L",
              "system": "http://unitsofmeasure.org"
            }
          },
          {
            "high": {
              "value": 109,
              "code": "mmol/L",
              "system": "http://unitsofmeasure.org"
            }
          }
        ],
        "text": {
          "status": "generated",
          "div": "<div xmlns=\"http://www.w3.org/1999/xhtml\"><table class=\"hl7__eu__lab__report\"><tr><th>Test</th><th>10-May-2017</th><th>Reference&#xA0;Range</th><th>Unit</th></tr><tr><td>Chloride [Moles/volume] in Blood</td><td>104.9</td><td>98 - 109</td><td></td><td>mmol/L</td></tr></table></div>"
        },
        "status": "final",
        "subject": {
          "reference": "urn:uuid:3ec8bdea-e6c9-4bf6-baed-3af9645d6a47",
          "display": "Lazăr Florea"
        },
        "effectiveDateTime": "2017-05-10T13:56:29Z",
        "specimen": {
          "reference": "urn:uuid:153a6731-f952-4d1b-bd27-26bcbeb95af6"
        }
      }
    },
    {
      "fullUrl": "urn:uuid:9d7f8700-bc8f-4b28-92f6-b6645ba06ce7",
      "resource": {
        "resourceType": "Observation",
        "id": "9d7f8700-bc8f-4b28-92f6-b6645ba06ce7",
        "meta": {
          "profile": [
            "http://hl7.eu/fhir/laboratory/StructureDefinition/Observation-resultslab-eu-lab"
          ]
        },
        "performer": [
          {
            "display": "The Central European Lab"
          }
        ],
        "category": [
          {
            "coding": [
              {
                "system": "http://terminology.hl7.org/CodeSystem/observation-category",
                "code": "laboratory"
              }
            ]
          }
        ],
        "code": {
          "coding": [
            {
              "code": "20565-8",
              "system": "http://loinc.org",
              "display": "Carbon dioxide, total [Moles/volume] in Blood"
            }
          ],
          "text": "Carbon dioxide, total [Moles/volume] in Blood"
        },
        "valueQuantity": {
          "system": "http://unitsofmeasure.org",
          "value": 20.3,
          "unit": "mmol/L",
          "code": "mmol/L"
        },
        "referenceRange": [
          {
            "low": {
              "value": 22,
              "code": "mmol/L",
              "system": "http://unitsofmeasure.org"
            }
          },
          {
            "high": {
              "value": 32,
              "code": "mmol/L",
              "system": "http://unitsofmeasure.org"
            }
          }
        ],
        "interpretation": [
          {
            "coding": [
              {
                "code": "L",
                "system": "http://terminology.hl7.org/CodeSystem/v3-ObservationInterpretation",
                "display": "Low"
              }
            ]
          }
        ],
        "text": {
          "status": "generated",
          "div": "<div xmlns=\"http://www.w3.org/1999/xhtml\"><table class=\"hl7__eu__lab__report\"><tr><th>Test</th><th>10-May-2017</th><th>Reference&#xA0;Range</th><th>Unit</th></tr><tr><td>Carbon dioxide, total [Moles/volume] in Blood</td><td>20.3</td><td>22 - 32</td><td>L</td><td>mmol/L</td></tr></table></div>"
        },
        "status": "final",
        "subject": {
          "reference": "urn:uuid:3ec8bdea-e6c9-4bf6-baed-3af9645d6a47",
          "display": "Lazăr Florea"
        },
        "effectiveDateTime": "2017-05-10T13:56:29Z",
        "specimen": {
          "reference": "urn:uuid:153a6731-f952-4d1b-bd27-26bcbeb95af6"
        }
      }
    },
    {
      "fullUrl": "urn:uuid:e3e0a68e-786a-492b-843f-fa63cd6aa7dc",
      "resource": {
        "resourceType": "Device",
        "id": "e3e0a68e-786a-492b-843f-fa63cd6aa7dc",
        "deviceName": [
          {
            "name": "SYNDERAI Synthetic Generator",
            "type": "manufacturer-name"
          }
        ],
        "version": [
          {
            "value": "5.0"
          }
        ],
        "text": {
          "status": "generated",
          "div": "<div xmlns=\"http://www.w3.org/1999/xhtml\">SYNDERAI Synthetic Generator v5.0</div>"
        },
        "status": "active\"",
        "distinctIdentifier": "synderai-generator-50",
        "manufacturer": "SYNDERAI Project"
      }
    },
    {
      "fullUrl": "urn:uuid:c243ae64-fdb7-47d3-a910-b50ae3bb4cfd",
      "resource": {
        "resourceType": "Provenance",
        "id": "c243ae64-fdb7-47d3-a910-b50ae3bb4cfd",
        "target": [
          {
            "reference": "Patient/3ec8bdea-e6c9-4bf6-baed-3af9645d6a47"
          },
          {
            "reference": "Bundle/77865aab-9e14-42ec-b2ac-7beb6404710b"
          },
          {
            "reference": "Composition/38d3b5d4-415e-4158-8503-cf06df3127c7"
          },
          {
            "reference": "PractitionerRole/a319a63e-3453-4a51-a362-accdae30a8d2"
          },
          {
            "reference": "Practitioner/cc1ae142-9d48-48c8-8e41-ed962416a5d8"
          },
          {
            "reference": "PractitionerRole/b2db489a-4790-4b5d-b462-6e3018459738"
          },
          {
            "reference": "Organization/eb81833e-2012-4264-a2b3-9de79114ffeb"
          }
        ],
        "activity": {
          "text": "Synthetic Example Data Generation"
        },
        "policy": [
          "https://synderai.net/synderai-synthetic-data-policy"
        ],
        "agent": [
          {
            "type": {
              "text": "author"
            },
            "who": {
              "reference": "Device/e3e0a68e-786a-492b-843f-fa63cd6aa7dc"
            }
          }
        ],
        "reason": [
          {
            "text": "Interoperability Testing and Training (non-clinical use)"
          }
        ],
        "text": {
          "status": "generated",
          "div": "<div xmlns=\"http://www.w3.org/1999/xhtml\">Provenance for SYNDERAI Synthetic Example Data Resource</div>"
        },
        "recorded": "2017-05-10T15:56:29Z"
      }
    },
    {
      "fullUrl": "urn:uuid:a319a63e-3453-4a51-a362-accdae30a8d2",
      "resource": {
        "resourceType": "PractitionerRole",
        "id": "a319a63e-3453-4a51-a362-accdae30a8d2",
        "meta": {
          "profile": [
            "http://hl7.eu/fhir/base/StructureDefinition/practitionerRole-eu"
          ]
        },
        "text": {
          "status": "generated",
          "div": "<div xmlns=\"http://www.w3.org/1999/xhtml\">Laboratory Role Id: a319a63e-3453-4a51-a362-accdae30a8d2</div>"
        },
        "practitioner": {
          "reference": "urn:uuid:cc1ae142-9d48-48c8-8e41-ed962416a5d8"
        }
      }
    },
    {
      "fullUrl": "urn:uuid:cc1ae142-9d48-48c8-8e41-ed962416a5d8",
      "resource": {
        "resourceType": "Practitioner",
        "id": "cc1ae142-9d48-48c8-8e41-ed962416a5d8",
        "meta": {
          "profile": [
            "http://hl7.eu/fhir/base/StructureDefinition/practitioner-eu"
          ]
        },
        "identifier": [
          {
            "assigner": {
              "display": "HL7 Europe"
            },
            "system": "urn:oid:2.16.840.1.113883.2.51.999",
            "value": "e69566f8-b17d-496f-bd59-8d887632cf82"
          }
        ],
        "name": [
          {
            "prefix": [
              "dr"
            ],
            "given": [
              "Ex"
            ],
            "family": "Ample"
          }
        ],
        "address": [
          {
            "line": [
              "Laboratoire Central Européenne",
              "Boulevard du Jardin Botanique 32"
            ],
            "postalCode": "1000",
            "city": "Brussels",
            "country": "Belgium"
          }
        ],
        "text": {
          "status": "generated",
          "div": "<div xmlns=\"http://www.w3.org/1999/xhtml\">Laboratory: Laboratoire Central Européenne, 1000 Brussels, Belgium</div>"
        }
      }
    }
  ],
  "type": "document",
  "timestamp": "2017-05-10T15:56:29Z"
}
