{
  "resourceType": "Bundle",
  "id": "3bef0409-3a26-475b-b58c-214a8e2241fe",
  "meta": {
    "profile": [
      "http://hl7.eu/fhir/laboratory/StructureDefinition/Bundle-eu-lab"
    ]
  },
  "identifier": {
    "assigner": {
      "display": "HL7 Europe"
    },
    "system": "urn:oid:2.16.840.1.113883.2.51.999",
    "value": "a53f4dfb-60a8-4320-b97c-dd9a09268139"
  },
  "entry": [
    {
      "fullUrl": "urn:uuid:a42a8607-670e-4f11-8b9e-24970cdca513",
      "resource": {
        "resourceType": "Composition",
        "id": "a42a8607-670e-4f11-8b9e-24970cdca513",
        "meta": {
          "profile": [
            "http://hl7.eu/fhir/laboratory/StructureDefinition/Composition-eu-lab"
          ]
        },
        "identifier": {
          "assigner": {
            "display": "HL7 Europe"
          },
          "system": "urn:oid:2.16.840.1.113883.2.51.999",
          "value": "3bcbd956-2988-4eea-a312-a4ae96678fda"
        },
        "author": [
          {
            "reference": "urn:uuid:937d7042-c3b4-4897-94f1-e4655203ada5"
          }
        ],
        "category": [
          {
            "coding": [
              {
                "code": "26436-6",
                "system": "http://loinc.org",
                "display": "Laboratory studies (set)"
              }
            ]
          }
        ],
        "type": {
          "coding": [
            {
              "code": "11502-2",
              "system": "http://loinc.org",
              "display": "Laboratory report"
            }
          ],
          "text": "Laboratory Report"
        },
        "section": [
          {
            "code": {
              "coding": [
                {
                  "code": "26436-6",
                  "system": "http://loinc.org",
                  "display": "Laboratory studies (set)"
                }
              ],
              "text": "Laboratory studies"
            },
            "section": [
              {
                "code": {
                  "coding": [
                    {
                      "code": "$18723-7",
                      "system": "http://loinc.org",
                      "display": "Hematology studies (set)"
                    }
                  ],
                  "text": "Hematology"
                },
                "entry": [
                  {
                    "reference": "urn:uuid:70c4212d-2c81-45b1-b5da-b192dc89ceed"
                  },
                  {
                    "reference": "urn:uuid:d2accd3f-5efd-4a7e-b4dd-aba7a34fc848"
                  },
                  {
                    "reference": "urn:uuid:eb7ea433-a15c-426b-b3d6-865526c68bf7"
                  },
                  {
                    "reference": "urn:uuid:b7e8f04b-6914-40dd-b9ca-2ae5de55084b"
                  },
                  {
                    "reference": "urn:uuid:ccfd989d-957a-4362-b545-b26fc1a2e4de"
                  },
                  {
                    "reference": "urn:uuid:33cf7b44-bdec-46af-804c-b17ae3a4abc0"
                  },
                  {
                    "reference": "urn:uuid:3476a48e-73b6-40e9-99ac-ee5d6edf9020"
                  },
                  {
                    "reference": "urn:uuid:5b592111-91e5-4a85-bad1-a40f4ea9780e"
                  },
                  {
                    "reference": "urn:uuid:ea7264ee-3a48-4d25-aa29-ca397cdb6629"
                  },
                  {
                    "reference": "urn:uuid:1d5230cd-f748-4336-8759-30288dbce58d"
                  },
                  {
                    "reference": "urn:uuid:652add7a-19f0-445d-b0c2-75367ba007c5"
                  }
                ],
                "text": {
                  "status": "generated",
                  "div": "<div xmlns=\"http://www.w3.org/1999/xhtml\"><h3>Hematology</h3><table class=\"hl7__eu__lab__report\"><thead><tr><th>Test</th><th>09-MAR-2018</th><th>Reference&#xA0;Range</th><th>Unit</th></tr></thead><tbody><tr><td>Leukocytes [#/volume] in Blood by Automated count</td><td>6.6</td><td>3.4 - 10.5</td><td>10*3/uL</td></tr><tr><td>Erythrocytes [#/volume] in Blood by Automated count</td><td>5.2</td><td>3.9 - 5.4</td><td>10*6/uL</td></tr><tr><td>Hemoglobin [Mass/volume] in Blood</td><td>14.5</td><td>12 - 16</td><td>g/dL</td></tr><tr><td>Hematocrit [Volume Fraction] of Blood by Automated count</td><td><strong>36.1 L</strong></td><td>38 - 54</td><td>%</td></tr><tr><td>MCV [Entitic volume] by Automated count</td><td>94.6</td><td>82 - 98</td><td>fL</td></tr><tr><td>MCH [Entitic mass] by Automated count</td><td>30.0</td><td>27 - 34</td><td>pg</td></tr><tr><td>MCHC [Mass/volume] by Automated count</td><td>34.5</td><td>32 - 37</td><td>g/dL</td></tr><tr><td>Erythrocyte distribution width [Entitic volume] by Automated count</td><td>44.5</td><td>36 - 55</td><td>fL</td></tr><tr><td>Platelets [#/volume] in Blood by Automated count</td><td>287.5</td><td>140 - 424</td><td>10*3/uL</td></tr><tr><td>Platelet distribution width [Entitic volume] in Blood by Automated count</td><td><strong>469.7 H</strong></td><td>13.4 - 17.4</td><td>fL</td></tr><tr><td>Platelet mean volume [Entitic volume] in Blood by Automated count</td><td>12.3</td><td>9.4 - 14</td><td>fL</td></tr></tbody></table></div>"
                },
                "title": "Hematology"
              },
              {
                "code": {
                  "coding": [
                    {
                      "code": "$18719-5",
                      "system": "http://loinc.org",
                      "display": "Chemistry studies (set)"
                    }
                  ],
                  "text": "Chemistry"
                },
                "entry": [
                  {
                    "reference": "urn:uuid:0edc42f0-8bca-44fd-ae80-3f80b1135498"
                  },
                  {
                    "reference": "urn:uuid:9696b6c6-9230-46ff-99b4-e540bf05333f"
                  },
                  {
                    "reference": "urn:uuid:a6f6a474-e7f8-4e40-b428-ae45fa561d55"
                  },
                  {
                    "reference": "urn:uuid:db245e98-5446-41ef-abee-ac142bf8206e"
                  },
                  {
                    "reference": "urn:uuid:ab3149cb-3db3-4739-a58b-4c6a66d6a5fd"
                  },
                  {
                    "reference": "urn:uuid:875fafea-b38a-4759-80f7-ec31006c00f3"
                  },
                  {
                    "reference": "urn:uuid:f30c65c5-1287-4e50-b5a4-c4b7c4ce901a"
                  },
                  {
                    "reference": "urn:uuid:e1dd5ede-2af7-4bfa-be53-40f23fa417c8"
                  },
                  {
                    "reference": "urn:uuid:840485bb-6062-48b5-8544-2c2604e1e8a9"
                  }
                ],
                "text": {
                  "status": "generated",
                  "div": "<div xmlns=\"http://www.w3.org/1999/xhtml\"><h3>Chemistry</h3><table class=\"hl7__eu__lab__report\"><thead><tr><th>Test</th><th>09-MAR-2018</th><th>Reference&#xA0;Range</th><th>Unit</th></tr></thead><tbody><tr><td>Hemoglobin A1c/Hemoglobin.total in Blood</td><td><strong>5.9 H</strong></td><td>4.8 - 5.7</td><td>%</td></tr><tr><td>Glucose [Mass/volume] in Blood</td><td>90.3</td><td>70 - 140</td><td>mg/dL</td></tr><tr><td>Urea nitrogen [Mass/volume] in Blood</td><td>7.7</td><td>7 - 25</td><td>mg/dL</td></tr><tr><td>Creatinine [Mass/volume] in Blood</td><td>0.7</td><td>0.6 - 1.3</td><td>mg/dL</td></tr><tr><td>Calcium [Mass/volume] in Blood</td><td>8.5</td><td>8.5 - 10.5</td><td>mg/dL</td></tr><tr><td>Sodium [Moles/volume] in Blood</td><td>136.7</td><td>135 - 145</td><td>mmol/L</td></tr><tr><td>Potassium [Moles/volume] in Blood</td><td>4.0</td><td>3.5 - 5.1</td><td>mmol/L</td></tr><tr><td>Chloride [Moles/volume] in Blood</td><td>102.8</td><td>98 - 108</td><td>mmol/L</td></tr><tr><td>Carbon dioxide, total [Moles/volume] in Blood</td><td>24.3</td><td>22 - 29</td><td>mmol/L</td></tr></tbody></table></div>"
                },
                "title": "Chemistry"
              }
            ],
            "title": "Laboratory Report"
          },
          {
            "text": {
              "status": "generated",
              "div": "<div xmlns=\"http://www.w3.org/1999/xhtml\"><h3>Annotation</h3><table class=\"hl7__eu__lab__report\"><tr><th>Conclusion and Recommendations based on this report and previous findings known to us</th></tr><tr><td>The patient shows a mildly elevated HbA1c (5.9%), suggesting prediabetes, while fasting glucose is normal. Hematocrit is slightly low, but other red cell indices are within range, indicating possible mild dilutional or early anemia. Platelet distribution width is high, which may reflect increased platelet size variability but platelet count is normal. Renal function, electrolytes, and white cell count are unremarkable. No acute pathology detected; recommend monitoring glycemic status and hematocrit.</td></tr></table></div>"
            },
            "code": {
              "coding": [
                {
                  "system": "http://loinc.org",
                  "code": "48767-8",
                  "display": "Annotation comment"
                }
              ]
            },
            "title": "Annotation comment"
          }
        ],
        "status": "final",
        "subject": {
          "reference": "urn:uuid:6eaebe05-d6d0-4ebe-823c-f662f59596c6",
          "display": "Bethany Begum"
        },
        "date": "2018-03-09T12:40:40Z",
        "title": "Laboratory Report",
        "confidentiality": "N"
      }
    },
    {
      "fullUrl": "urn:uuid:f300a36a-c372-4eda-b8cd-289d89665512",
      "resource": {
        "resourceType": "DiagnosticReport",
        "id": "f300a36a-c372-4eda-b8cd-289d89665512",
        "meta": {
          "profile": [
            "http://hl7.eu/fhir/laboratory/StructureDefinition/DiagnosticReport-eu-lab"
          ]
        },
        "identifier": [
          {
            "assigner": {
              "display": "HL7 Europe"
            },
            "system": "urn:oid:2.16.840.1.113883.2.51.999",
            "value": "d541825d-546d-40dc-a3a8-a31b9c5ad046"
          }
        ],
        "extension": [
          {
            "url": "http://hl7.org/fhir/5.0/StructureDefinition/extension-DiagnosticReport.composition",
            "valueReference": {
              "reference": "urn:uuid:3bcbd956-2988-4eea-a312-a4ae96678fda"
            }
          }
        ],
        "category": [
          {
            "coding": [
              {
                "code": "26436-6",
                "system": "http://loinc.org",
                "display": "Laboratory studies (set)"
              }
            ]
          }
        ],
        "specimen": [
          {
            "reference": "urn:uuid:857c8c9e-2dcc-4e16-b138-cfc774c1be06"
          },
          {
            "reference": "urn:uuid:857c8c9e-2dcc-4e16-b138-cfc774c1be06"
          }
        ],
        "result": [
          {
            "reference": "urn:uuid:0edc42f0-8bca-44fd-ae80-3f80b1135498"
          },
          {
            "reference": "urn:uuid:9696b6c6-9230-46ff-99b4-e540bf05333f"
          },
          {
            "reference": "urn:uuid:a6f6a474-e7f8-4e40-b428-ae45fa561d55"
          },
          {
            "reference": "urn:uuid:db245e98-5446-41ef-abee-ac142bf8206e"
          },
          {
            "reference": "urn:uuid:ab3149cb-3db3-4739-a58b-4c6a66d6a5fd"
          },
          {
            "reference": "urn:uuid:875fafea-b38a-4759-80f7-ec31006c00f3"
          },
          {
            "reference": "urn:uuid:f30c65c5-1287-4e50-b5a4-c4b7c4ce901a"
          },
          {
            "reference": "urn:uuid:e1dd5ede-2af7-4bfa-be53-40f23fa417c8"
          },
          {
            "reference": "urn:uuid:840485bb-6062-48b5-8544-2c2604e1e8a9"
          },
          {
            "reference": "urn:uuid:70c4212d-2c81-45b1-b5da-b192dc89ceed"
          },
          {
            "reference": "urn:uuid:d2accd3f-5efd-4a7e-b4dd-aba7a34fc848"
          },
          {
            "reference": "urn:uuid:eb7ea433-a15c-426b-b3d6-865526c68bf7"
          },
          {
            "reference": "urn:uuid:b7e8f04b-6914-40dd-b9ca-2ae5de55084b"
          },
          {
            "reference": "urn:uuid:ccfd989d-957a-4362-b545-b26fc1a2e4de"
          },
          {
            "reference": "urn:uuid:33cf7b44-bdec-46af-804c-b17ae3a4abc0"
          },
          {
            "reference": "urn:uuid:3476a48e-73b6-40e9-99ac-ee5d6edf9020"
          },
          {
            "reference": "urn:uuid:5b592111-91e5-4a85-bad1-a40f4ea9780e"
          },
          {
            "reference": "urn:uuid:ea7264ee-3a48-4d25-aa29-ca397cdb6629"
          },
          {
            "reference": "urn:uuid:1d5230cd-f748-4336-8759-30288dbce58d"
          },
          {
            "reference": "urn:uuid:652add7a-19f0-445d-b0c2-75367ba007c5"
          }
        ],
        "status": "registered",
        "code": {
          "coding": [
            {
              "code": "11502-2",
              "system": "http://loinc.org",
              "display": "Laboratory report"
            }
          ]
        },
        "subject": {
          "reference": "urn:uuid:6eaebe05-d6d0-4ebe-823c-f662f59596c6",
          "display": "Bethany Begum"
        }
      }
    },
    {
      "fullUrl": "urn:uuid:6eaebe05-d6d0-4ebe-823c-f662f59596c6",
      "resource": {
        "resourceType": "Patient",
        "id": "6eaebe05-d6d0-4ebe-823c-f662f59596c6",
        "meta": {
          "security": [
            {
              "system": "http://terminology.hl7.org/CodeSystem/v3-ActReason",
              "code": "HTEST"
            },
            {
              "system": "http://terminology.hl7.org/CodeSystem/v3-ActReason",
              "code": "TRAIN"
            }
          ],
          "tag": [
            {
              "system": "https://synderai.net/fhir/CodeSystem/tags",
              "code": "synthetic",
              "display": "SYNDERAI Synthetic data"
            }
          ],
          "profile": [
            "http://hl7.eu/fhir/base/StructureDefinition/patient-eu-core"
          ]
        },
        "identifier": [
          {
            "type": {
              "coding": [
                {
                  "code": "PT",
                  "system": "http://terminology.hl7.org/CodeSystem/v2-0203"
                }
              ]
            },
            "system": "http://ec.europa.eu/identifier/eci",
            "value": "2365-936148-1"
          },
          {
            "type": {
              "coding": [
                {
                  "code": "MR",
                  "system": "http://terminology.hl7.org/CodeSystem/v2-0203"
                }
              ]
            },
            "system": "http://local.setting.eu/identifier",
            "value": "853b213b-8bf3-d90f-2018-79d547156fd7"
          }
        ],
        "name": [
          {
            "family": "Begum"
          },
          {
            "given": [
              "Bethany"
            ]
          },
          {
            "text": "Bethany Begum"
          }
        ],
        "address": [
          {
            "line": [
              "Studio 22e",
              "Joe unions"
            ],
            "use": "home",
            "type": "physical",
            "postalCode": "M1",
            "city": "Manchester",
            "country": "United Kingdom"
          }
        ],
        "telecom": [
          {
            "system": "phone",
            "value": "(029) 2018200"
          }
        ],
        "extension": [
          {
            "url": "http://hl7.org/fhir/StructureDefinition/patient-nationality",
            "valueCodeableConcept": {
              "coding": [
                {
                  "code": "GB",
                  "system": "http://hl7.org/fhir/ValueSet/country"
                }
              ]
            }
          }
        ],
        "text": {
          "status": "generated",
          "div": "<div xmlns=\"http://www.w3.org/1999/xhtml\"><table class=\"hl7__ips\"><tr><td>Bethany Begum</td><td>female</td><td>19-Jan-1976</td></tr></table></div>"
        },
        "gender": "female",
        "birthDate": "1976-01-19"
      }
    },
    {
      "fullUrl": "urn:uuid:fa8f4f00-7457-46fe-8043-35b8df422ad1",
      "resource": {
        "resourceType": "ServiceRequest",
        "id": "fa8f4f00-7457-46fe-8043-35b8df422ad1",
        "meta": {
          "profile": [
            "http://hl7.eu/fhir/laboratory/StructureDefinition/ServiceRequest-eu-lab"
          ]
        },
        "identifier": [
          {
            "system": "http://example.org",
            "value": "59280d27-fe88-458b-b926-7ecd7fbeee3f"
          }
        ],
        "specimen": [
          {
            "reference": "urn:uuid:857c8c9e-2dcc-4e16-b138-cfc774c1be06"
          }
        ],
        "reasonCode": [
          {
            "coding": [
              {
                "code": "55822004",
                "system": "http://snomed.info/sct",
                "display": "Hyperlipidemia"
              }
            ]
          },
          {
            "coding": [
              {
                "code": "15777000",
                "system": "http://snomed.info/sct",
                "display": "Prediabetes"
              }
            ]
          },
          {
            "coding": [
              {
                "code": "40055000",
                "system": "http://snomed.info/sct",
                "display": "Chronic sinusitis"
              }
            ]
          }
        ],
        "status": "active",
        "intent": "order",
        "code": {
          "coding": [
            {
              "code": "108252007",
              "system": "http://snomed.info/sct",
              "display": "Laboratory procedure"
            }
          ]
        },
        "subject": {
          "reference": "urn:uuid:6eaebe05-d6d0-4ebe-823c-f662f59596c6",
          "display": "Bethany Begum"
        },
        "requester": {
          "reference": "urn:uuid:374a74cc-3476-41d6-b95d-301323b10d08"
        }
      }
    },
    {
      "fullUrl": "urn:uuid:374a74cc-3476-41d6-b95d-301323b10d08",
      "resource": {
        "resourceType": "PractitionerRole",
        "id": "374a74cc-3476-41d6-b95d-301323b10d08",
        "meta": {
          "profile": [
            "http://hl7.eu/fhir/base/StructureDefinition/practitionerRole-eu"
          ]
        },
        "text": {
          "status": "generated",
          "div": "<div xmlns=\"http://www.w3.org/1999/xhtml\">Provider Role Id: 374a74cc-3476-41d6-b95d-301323b10d08</div>"
        },
        "organization": {
          "reference": "urn:uuid:f1c8deb7-1cdb-4388-93d3-f92252dca5cf"
        }
      }
    },
    {
      "fullUrl": "urn:uuid:f1c8deb7-1cdb-4388-93d3-f92252dca5cf",
      "resource": {
        "resourceType": "Organization",
        "id": "f1c8deb7-1cdb-4388-93d3-f92252dca5cf",
        "meta": {
          "profile": [
            "http://hl7.eu/fhir/base/StructureDefinition/organization-eu"
          ]
        },
        "identifier": [
          {
            "assigner": {
              "display": "HL7 Europe"
            },
            "system": "urn:oid:2.16.840.1.113883.2.51.999",
            "value": "3a75cfd0-a438-42ad-9d3d-f428a3d44767"
          }
        ],
        "address": [
          {
            "line": [
              "City Road 204"
            ],
            "city": "Manchester",
            "postalCode": "M3 3",
            "country": "United Kingdom"
          }
        ],
        "text": {
          "status": "generated",
          "div": "<div xmlns=\"http://www.w3.org/1999/xhtml\">Provider Organization: Cornbrook Medical Practice</div>"
        },
        "name": "Cornbrook Medical Practice"
      }
    },
    {
      "fullUrl": "urn:uuid:857c8c9e-2dcc-4e16-b138-cfc774c1be06",
      "resource": {
        "resourceType": "Specimen",
        "id": "857c8c9e-2dcc-4e16-b138-cfc774c1be06",
        "meta": {
          "profile": [
            "http://hl7.eu/fhir/laboratory/StructureDefinition/Specimen-eu-lab"
          ]
        },
        "collection": {
          "collectedDateTime": "2018-03-09"
        },
        "text": {
          "status": "generated",
          "div": "<div xmlns=\"http://www.w3.org/1999/xhtml\"><table class=\"hl7__eu__lab__report\"><tr><th>Specimen</th><th>Collection Date</th></tr><tr><td>Whole blood specimen (specimen)</td><td><span class=\"nb\">09-Mar-2018</span></td></tr></table></div>"
        },
        "type": {
          "coding": [
            {
              "code": "258580003",
              "system": "http://snomed.info/sct",
              "display": "Whole blood specimen (specimen)"
            }
          ]
        }
      }
    },
    {
      "fullUrl": "urn:uuid:857c8c9e-2dcc-4e16-b138-cfc774c1be06",
      "resource": {
        "resourceType": "Specimen",
        "id": "857c8c9e-2dcc-4e16-b138-cfc774c1be06",
        "meta": {
          "profile": [
            "http://hl7.eu/fhir/laboratory/StructureDefinition/Specimen-eu-lab"
          ]
        },
        "collection": {
          "collectedDateTime": "2018-03-09"
        },
        "text": {
          "status": "generated",
          "div": "<div xmlns=\"http://www.w3.org/1999/xhtml\"><table class=\"hl7__eu__lab__report\"><tr><th>Specimen</th><th>Collection Date</th></tr><tr><td>Whole blood specimen (specimen)</td><td><span class=\"nb\">09-Mar-2018</span></td></tr></table></div>"
        },
        "type": {
          "coding": [
            {
              "code": "258580003",
              "system": "http://snomed.info/sct",
              "display": "Whole blood specimen (specimen)"
            }
          ]
        }
      }
    },
    {
      "fullUrl": "urn:uuid:0edc42f0-8bca-44fd-ae80-3f80b1135498",
      "resource": {
        "resourceType": "Observation",
        "id": "0edc42f0-8bca-44fd-ae80-3f80b1135498",
        "meta": {
          "profile": [
            "http://hl7.eu/fhir/laboratory/StructureDefinition/Observation-resultslab-eu-lab"
          ]
        },
        "performer": [
          {
            "display": "The Central European Lab"
          }
        ],
        "category": [
          {
            "coding": [
              {
                "system": "http://terminology.hl7.org/CodeSystem/observation-category",
                "code": "laboratory"
              }
            ]
          }
        ],
        "code": {
          "coding": [
            {
              "code": "4548-4",
              "system": "http://loinc.org",
              "display": "Hemoglobin A1c/Hemoglobin.total in Blood"
            }
          ],
          "text": "Hemoglobin A1c/Hemoglobin.total in Blood"
        },
        "valueQuantity": {
          "system": "http://unitsofmeasure.org",
          "value": 5.9,
          "unit": "%",
          "code": "%"
        },
        "referenceRange": [
          {
            "low": {
              "value": 4.8,
              "code": "%",
              "system": "http://unitsofmeasure.org"
            }
          },
          {
            "high": {
              "value": 5.7,
              "code": "%",
              "system": "http://unitsofmeasure.org"
            }
          }
        ],
        "interpretation": [
          {
            "coding": [
              {
                "code": "H",
                "system": "http://terminology.hl7.org/CodeSystem/v3-ObservationInterpretation",
                "display": "High"
              }
            ]
          }
        ],
        "text": {
          "status": "generated",
          "div": "<div xmlns=\"http://www.w3.org/1999/xhtml\"><table class=\"hl7__eu__lab__report\"><tr><th>Test</th><th>09-Mar-2018</th><th>Reference&#xA0;Range</th><th>Unit</th></tr><tr><td>Hemoglobin A1c/Hemoglobin.total in Blood</td><td>5.9</td><td>4.8 - 5.7</td><td>H</td><td>%</td></tr></table></div>"
        },
        "status": "final",
        "subject": {
          "reference": "urn:uuid:6eaebe05-d6d0-4ebe-823c-f662f59596c6",
          "display": "Bethany Begum"
        },
        "effectiveDateTime": "2018-03-09T11:40:40Z",
        "specimen": {
          "reference": "urn:uuid:857c8c9e-2dcc-4e16-b138-cfc774c1be06"
        }
      }
    },
    {
      "fullUrl": "urn:uuid:9696b6c6-9230-46ff-99b4-e540bf05333f",
      "resource": {
        "resourceType": "Observation",
        "id": "9696b6c6-9230-46ff-99b4-e540bf05333f",
        "meta": {
          "profile": [
            "http://hl7.eu/fhir/laboratory/StructureDefinition/Observation-resultslab-eu-lab"
          ]
        },
        "performer": [
          {
            "display": "The Central European Lab"
          }
        ],
        "category": [
          {
            "coding": [
              {
                "system": "http://terminology.hl7.org/CodeSystem/observation-category",
                "code": "laboratory"
              }
            ]
          }
        ],
        "code": {
          "coding": [
            {
              "code": "2339-0",
              "system": "http://loinc.org",
              "display": "Glucose [Mass/volume] in Blood"
            }
          ],
          "text": "Glucose [Mass/volume] in Blood"
        },
        "valueQuantity": {
          "system": "http://unitsofmeasure.org",
          "value": 90.3,
          "unit": "mg/dL",
          "code": "mg/dL"
        },
        "referenceRange": [
          {
            "low": {
              "value": 70,
              "code": "mg/dL",
              "system": "http://unitsofmeasure.org"
            }
          },
          {
            "high": {
              "value": 140,
              "code": "mg/dL",
              "system": "http://unitsofmeasure.org"
            }
          }
        ],
        "text": {
          "status": "generated",
          "div": "<div xmlns=\"http://www.w3.org/1999/xhtml\"><table class=\"hl7__eu__lab__report\"><tr><th>Test</th><th>09-Mar-2018</th><th>Reference&#xA0;Range</th><th>Unit</th></tr><tr><td>Glucose [Mass/volume] in Blood</td><td>90.3</td><td>70 - 140</td><td></td><td>mg/dL</td></tr></table></div>"
        },
        "status": "final",
        "subject": {
          "reference": "urn:uuid:6eaebe05-d6d0-4ebe-823c-f662f59596c6",
          "display": "Bethany Begum"
        },
        "effectiveDateTime": "2018-03-09T11:40:40Z",
        "specimen": {
          "reference": "urn:uuid:857c8c9e-2dcc-4e16-b138-cfc774c1be06"
        }
      }
    },
    {
      "fullUrl": "urn:uuid:a6f6a474-e7f8-4e40-b428-ae45fa561d55",
      "resource": {
        "resourceType": "Observation",
        "id": "a6f6a474-e7f8-4e40-b428-ae45fa561d55",
        "meta": {
          "profile": [
            "http://hl7.eu/fhir/laboratory/StructureDefinition/Observation-resultslab-eu-lab"
          ]
        },
        "performer": [
          {
            "display": "The Central European Lab"
          }
        ],
        "category": [
          {
            "coding": [
              {
                "system": "http://terminology.hl7.org/CodeSystem/observation-category",
                "code": "laboratory"
              }
            ]
          }
        ],
        "code": {
          "coding": [
            {
              "code": "6299-2",
              "system": "http://loinc.org",
              "display": "Urea nitrogen [Mass/volume] in Blood"
            }
          ],
          "text": "Urea nitrogen [Mass/volume] in Blood"
        },
        "valueQuantity": {
          "system": "http://unitsofmeasure.org",
          "value": 7.7,
          "unit": "mg/dL",
          "code": "mg/dL"
        },
        "referenceRange": [
          {
            "low": {
              "value": 7,
              "code": "mg/dL",
              "system": "http://unitsofmeasure.org"
            }
          },
          {
            "high": {
              "value": 25,
              "code": "mg/dL",
              "system": "http://unitsofmeasure.org"
            }
          }
        ],
        "text": {
          "status": "generated",
          "div": "<div xmlns=\"http://www.w3.org/1999/xhtml\"><table class=\"hl7__eu__lab__report\"><tr><th>Test</th><th>09-Mar-2018</th><th>Reference&#xA0;Range</th><th>Unit</th></tr><tr><td>Urea nitrogen [Mass/volume] in Blood</td><td>7.7</td><td>7 - 25</td><td></td><td>mg/dL</td></tr></table></div>"
        },
        "status": "final",
        "subject": {
          "reference": "urn:uuid:6eaebe05-d6d0-4ebe-823c-f662f59596c6",
          "display": "Bethany Begum"
        },
        "effectiveDateTime": "2018-03-09T11:40:40Z",
        "specimen": {
          "reference": "urn:uuid:857c8c9e-2dcc-4e16-b138-cfc774c1be06"
        }
      }
    },
    {
      "fullUrl": "urn:uuid:db245e98-5446-41ef-abee-ac142bf8206e",
      "resource": {
        "resourceType": "Observation",
        "id": "db245e98-5446-41ef-abee-ac142bf8206e",
        "meta": {
          "profile": [
            "http://hl7.eu/fhir/laboratory/StructureDefinition/Observation-resultslab-eu-lab"
          ]
        },
        "performer": [
          {
            "display": "The Central European Lab"
          }
        ],
        "category": [
          {
            "coding": [
              {
                "system": "http://terminology.hl7.org/CodeSystem/observation-category",
                "code": "laboratory"
              }
            ]
          }
        ],
        "code": {
          "coding": [
            {
              "code": "38483-4",
              "system": "http://loinc.org",
              "display": "Creatinine [Mass/volume] in Blood"
            }
          ],
          "text": "Creatinine [Mass/volume] in Blood"
        },
        "valueQuantity": {
          "system": "http://unitsofmeasure.org",
          "value": 0.7,
          "unit": "mg/dL",
          "code": "mg/dL"
        },
        "referenceRange": [
          {
            "low": {
              "value": 0.6,
              "code": "mg/dL",
              "system": "http://unitsofmeasure.org"
            }
          },
          {
            "high": {
              "value": 1.3,
              "code": "mg/dL",
              "system": "http://unitsofmeasure.org"
            }
          }
        ],
        "text": {
          "status": "generated",
          "div": "<div xmlns=\"http://www.w3.org/1999/xhtml\"><table class=\"hl7__eu__lab__report\"><tr><th>Test</th><th>09-Mar-2018</th><th>Reference&#xA0;Range</th><th>Unit</th></tr><tr><td>Creatinine [Mass/volume] in Blood</td><td>0.7</td><td>0.6 - 1.3</td><td></td><td>mg/dL</td></tr></table></div>"
        },
        "status": "final",
        "subject": {
          "reference": "urn:uuid:6eaebe05-d6d0-4ebe-823c-f662f59596c6",
          "display": "Bethany Begum"
        },
        "effectiveDateTime": "2018-03-09T11:40:40Z",
        "specimen": {
          "reference": "urn:uuid:857c8c9e-2dcc-4e16-b138-cfc774c1be06"
        }
      }
    },
    {
      "fullUrl": "urn:uuid:ab3149cb-3db3-4739-a58b-4c6a66d6a5fd",
      "resource": {
        "resourceType": "Observation",
        "id": "ab3149cb-3db3-4739-a58b-4c6a66d6a5fd",
        "meta": {
          "profile": [
            "http://hl7.eu/fhir/laboratory/StructureDefinition/Observation-resultslab-eu-lab"
          ]
        },
        "performer": [
          {
            "display": "The Central European Lab"
          }
        ],
        "category": [
          {
            "coding": [
              {
                "system": "http://terminology.hl7.org/CodeSystem/observation-category",
                "code": "laboratory"
              }
            ]
          }
        ],
        "code": {
          "coding": [
            {
              "code": "49765-1",
              "system": "http://loinc.org",
              "display": "Calcium [Mass/volume] in Blood"
            }
          ],
          "text": "Calcium [Mass/volume] in Blood"
        },
        "valueQuantity": {
          "system": "http://unitsofmeasure.org",
          "value": 8.5,
          "unit": "mg/dL",
          "code": "mg/dL"
        },
        "referenceRange": [
          {
            "low": {
              "value": 8.5,
              "code": "mg/dL",
              "system": "http://unitsofmeasure.org"
            }
          },
          {
            "high": {
              "value": 10.5,
              "code": "mg/dL",
              "system": "http://unitsofmeasure.org"
            }
          }
        ],
        "text": {
          "status": "generated",
          "div": "<div xmlns=\"http://www.w3.org/1999/xhtml\"><table class=\"hl7__eu__lab__report\"><tr><th>Test</th><th>09-Mar-2018</th><th>Reference&#xA0;Range</th><th>Unit</th></tr><tr><td>Calcium [Mass/volume] in Blood</td><td>8.5</td><td>8.5 - 10.5</td><td></td><td>mg/dL</td></tr></table></div>"
        },
        "status": "final",
        "subject": {
          "reference": "urn:uuid:6eaebe05-d6d0-4ebe-823c-f662f59596c6",
          "display": "Bethany Begum"
        },
        "effectiveDateTime": "2018-03-09T11:40:40Z",
        "specimen": {
          "reference": "urn:uuid:857c8c9e-2dcc-4e16-b138-cfc774c1be06"
        }
      }
    },
    {
      "fullUrl": "urn:uuid:875fafea-b38a-4759-80f7-ec31006c00f3",
      "resource": {
        "resourceType": "Observation",
        "id": "875fafea-b38a-4759-80f7-ec31006c00f3",
        "meta": {
          "profile": [
            "http://hl7.eu/fhir/laboratory/StructureDefinition/Observation-resultslab-eu-lab"
          ]
        },
        "performer": [
          {
            "display": "The Central European Lab"
          }
        ],
        "category": [
          {
            "coding": [
              {
                "system": "http://terminology.hl7.org/CodeSystem/observation-category",
                "code": "laboratory"
              }
            ]
          }
        ],
        "code": {
          "coding": [
            {
              "code": "2947-0",
              "system": "http://loinc.org",
              "display": "Sodium [Moles/volume] in Blood"
            }
          ],
          "text": "Sodium [Moles/volume] in Blood"
        },
        "valueQuantity": {
          "system": "http://unitsofmeasure.org",
          "value": 136.7,
          "unit": "mmol/L",
          "code": "mmol/L"
        },
        "referenceRange": [
          {
            "low": {
              "value": 135,
              "code": "mmol/L",
              "system": "http://unitsofmeasure.org"
            }
          },
          {
            "high": {
              "value": 145,
              "code": "mmol/L",
              "system": "http://unitsofmeasure.org"
            }
          }
        ],
        "text": {
          "status": "generated",
          "div": "<div xmlns=\"http://www.w3.org/1999/xhtml\"><table class=\"hl7__eu__lab__report\"><tr><th>Test</th><th>09-Mar-2018</th><th>Reference&#xA0;Range</th><th>Unit</th></tr><tr><td>Sodium [Moles/volume] in Blood</td><td>136.7</td><td>135 - 145</td><td></td><td>mmol/L</td></tr></table></div>"
        },
        "status": "final",
        "subject": {
          "reference": "urn:uuid:6eaebe05-d6d0-4ebe-823c-f662f59596c6",
          "display": "Bethany Begum"
        },
        "effectiveDateTime": "2018-03-09T11:40:40Z",
        "specimen": {
          "reference": "urn:uuid:857c8c9e-2dcc-4e16-b138-cfc774c1be06"
        }
      }
    },
    {
      "fullUrl": "urn:uuid:f30c65c5-1287-4e50-b5a4-c4b7c4ce901a",
      "resource": {
        "resourceType": "Observation",
        "id": "f30c65c5-1287-4e50-b5a4-c4b7c4ce901a",
        "meta": {
          "profile": [
            "http://hl7.eu/fhir/laboratory/StructureDefinition/Observation-resultslab-eu-lab"
          ]
        },
        "performer": [
          {
            "display": "The Central European Lab"
          }
        ],
        "category": [
          {
            "coding": [
              {
                "system": "http://terminology.hl7.org/CodeSystem/observation-category",
                "code": "laboratory"
              }
            ]
          }
        ],
        "code": {
          "coding": [
            {
              "code": "6298-4",
              "system": "http://loinc.org",
              "display": "Potassium [Moles/volume] in Blood"
            }
          ],
          "text": "Potassium [Moles/volume] in Blood"
        },
        "valueQuantity": {
          "system": "http://unitsofmeasure.org",
          "value": 4,
          "unit": "mmol/L",
          "code": "mmol/L"
        },
        "referenceRange": [
          {
            "low": {
              "value": 3.5,
              "code": "mmol/L",
              "system": "http://unitsofmeasure.org"
            }
          },
          {
            "high": {
              "value": 5.1,
              "code": "mmol/L",
              "system": "http://unitsofmeasure.org"
            }
          }
        ],
        "text": {
          "status": "generated",
          "div": "<div xmlns=\"http://www.w3.org/1999/xhtml\"><table class=\"hl7__eu__lab__report\"><tr><th>Test</th><th>09-Mar-2018</th><th>Reference&#xA0;Range</th><th>Unit</th></tr><tr><td>Potassium [Moles/volume] in Blood</td><td>4.0</td><td>3.5 - 5.1</td><td></td><td>mmol/L</td></tr></table></div>"
        },
        "status": "final",
        "subject": {
          "reference": "urn:uuid:6eaebe05-d6d0-4ebe-823c-f662f59596c6",
          "display": "Bethany Begum"
        },
        "effectiveDateTime": "2018-03-09T11:40:40Z",
        "specimen": {
          "reference": "urn:uuid:857c8c9e-2dcc-4e16-b138-cfc774c1be06"
        }
      }
    },
    {
      "fullUrl": "urn:uuid:e1dd5ede-2af7-4bfa-be53-40f23fa417c8",
      "resource": {
        "resourceType": "Observation",
        "id": "e1dd5ede-2af7-4bfa-be53-40f23fa417c8",
        "meta": {
          "profile": [
            "http://hl7.eu/fhir/laboratory/StructureDefinition/Observation-resultslab-eu-lab"
          ]
        },
        "performer": [
          {
            "display": "The Central European Lab"
          }
        ],
        "category": [
          {
            "coding": [
              {
                "system": "http://terminology.hl7.org/CodeSystem/observation-category",
                "code": "laboratory"
              }
            ]
          }
        ],
        "code": {
          "coding": [
            {
              "code": "2069-3",
              "system": "http://loinc.org",
              "display": "Chloride [Moles/volume] in Blood"
            }
          ],
          "text": "Chloride [Moles/volume] in Blood"
        },
        "valueQuantity": {
          "system": "http://unitsofmeasure.org",
          "value": 102.8,
          "unit": "mmol/L",
          "code": "mmol/L"
        },
        "referenceRange": [
          {
            "low": {
              "value": 98,
              "code": "mmol/L",
              "system": "http://unitsofmeasure.org"
            }
          },
          {
            "high": {
              "value": 108,
              "code": "mmol/L",
              "system": "http://unitsofmeasure.org"
            }
          }
        ],
        "text": {
          "status": "generated",
          "div": "<div xmlns=\"http://www.w3.org/1999/xhtml\"><table class=\"hl7__eu__lab__report\"><tr><th>Test</th><th>09-Mar-2018</th><th>Reference&#xA0;Range</th><th>Unit</th></tr><tr><td>Chloride [Moles/volume] in Blood</td><td>102.8</td><td>98 - 108</td><td></td><td>mmol/L</td></tr></table></div>"
        },
        "status": "final",
        "subject": {
          "reference": "urn:uuid:6eaebe05-d6d0-4ebe-823c-f662f59596c6",
          "display": "Bethany Begum"
        },
        "effectiveDateTime": "2018-03-09T11:40:40Z",
        "specimen": {
          "reference": "urn:uuid:857c8c9e-2dcc-4e16-b138-cfc774c1be06"
        }
      }
    },
    {
      "fullUrl": "urn:uuid:840485bb-6062-48b5-8544-2c2604e1e8a9",
      "resource": {
        "resourceType": "Observation",
        "id": "840485bb-6062-48b5-8544-2c2604e1e8a9",
        "meta": {
          "profile": [
            "http://hl7.eu/fhir/laboratory/StructureDefinition/Observation-resultslab-eu-lab"
          ]
        },
        "performer": [
          {
            "display": "The Central European Lab"
          }
        ],
        "category": [
          {
            "coding": [
              {
                "system": "http://terminology.hl7.org/CodeSystem/observation-category",
                "code": "laboratory"
              }
            ]
          }
        ],
        "code": {
          "coding": [
            {
              "code": "20565-8",
              "system": "http://loinc.org",
              "display": "Carbon dioxide, total [Moles/volume] in Blood"
            }
          ],
          "text": "Carbon dioxide, total [Moles/volume] in Blood"
        },
        "valueQuantity": {
          "system": "http://unitsofmeasure.org",
          "value": 24.3,
          "unit": "mmol/L",
          "code": "mmol/L"
        },
        "referenceRange": [
          {
            "low": {
              "value": 22,
              "code": "mmol/L",
              "system": "http://unitsofmeasure.org"
            }
          },
          {
            "high": {
              "value": 29,
              "code": "mmol/L",
              "system": "http://unitsofmeasure.org"
            }
          }
        ],
        "text": {
          "status": "generated",
          "div": "<div xmlns=\"http://www.w3.org/1999/xhtml\"><table class=\"hl7__eu__lab__report\"><tr><th>Test</th><th>09-Mar-2018</th><th>Reference&#xA0;Range</th><th>Unit</th></tr><tr><td>Carbon dioxide, total [Moles/volume] in Blood</td><td>24.3</td><td>22 - 29</td><td></td><td>mmol/L</td></tr></table></div>"
        },
        "status": "final",
        "subject": {
          "reference": "urn:uuid:6eaebe05-d6d0-4ebe-823c-f662f59596c6",
          "display": "Bethany Begum"
        },
        "effectiveDateTime": "2018-03-09T11:40:40Z",
        "specimen": {
          "reference": "urn:uuid:857c8c9e-2dcc-4e16-b138-cfc774c1be06"
        }
      }
    },
    {
      "fullUrl": "urn:uuid:70c4212d-2c81-45b1-b5da-b192dc89ceed",
      "resource": {
        "resourceType": "Observation",
        "id": "70c4212d-2c81-45b1-b5da-b192dc89ceed",
        "meta": {
          "profile": [
            "http://hl7.eu/fhir/laboratory/StructureDefinition/Observation-resultslab-eu-lab"
          ]
        },
        "performer": [
          {
            "display": "The Central European Lab"
          }
        ],
        "category": [
          {
            "coding": [
              {
                "system": "http://terminology.hl7.org/CodeSystem/observation-category",
                "code": "laboratory"
              }
            ]
          }
        ],
        "code": {
          "coding": [
            {
              "code": "6690-2",
              "system": "http://loinc.org",
              "display": "Leukocytes [#/volume] in Blood by Automated count"
            }
          ],
          "text": "Leukocytes [#/volume] in Blood by Automated count"
        },
        "valueQuantity": {
          "system": "http://unitsofmeasure.org",
          "value": 6.6,
          "unit": "10*3/uL",
          "code": "10*3/uL"
        },
        "referenceRange": [
          {
            "low": {
              "value": 3.4,
              "code": "10*3/uL",
              "system": "http://unitsofmeasure.org"
            }
          },
          {
            "high": {
              "value": 10.5,
              "code": "10*3/uL",
              "system": "http://unitsofmeasure.org"
            }
          }
        ],
        "text": {
          "status": "generated",
          "div": "<div xmlns=\"http://www.w3.org/1999/xhtml\"><table class=\"hl7__eu__lab__report\"><tr><th>Test</th><th>09-Mar-2018</th><th>Reference&#xA0;Range</th><th>Unit</th></tr><tr><td>Leukocytes [#/volume] in Blood by Automated count</td><td>6.6</td><td>3.4 - 10.5</td><td></td><td>10*3/uL</td></tr></table></div>"
        },
        "status": "final",
        "subject": {
          "reference": "urn:uuid:6eaebe05-d6d0-4ebe-823c-f662f59596c6",
          "display": "Bethany Begum"
        },
        "effectiveDateTime": "2018-03-09T11:40:40Z",
        "specimen": {
          "reference": "urn:uuid:857c8c9e-2dcc-4e16-b138-cfc774c1be06"
        }
      }
    },
    {
      "fullUrl": "urn:uuid:d2accd3f-5efd-4a7e-b4dd-aba7a34fc848",
      "resource": {
        "resourceType": "Observation",
        "id": "d2accd3f-5efd-4a7e-b4dd-aba7a34fc848",
        "meta": {
          "profile": [
            "http://hl7.eu/fhir/laboratory/StructureDefinition/Observation-resultslab-eu-lab"
          ]
        },
        "performer": [
          {
            "display": "The Central European Lab"
          }
        ],
        "category": [
          {
            "coding": [
              {
                "system": "http://terminology.hl7.org/CodeSystem/observation-category",
                "code": "laboratory"
              }
            ]
          }
        ],
        "code": {
          "coding": [
            {
              "code": "789-8",
              "system": "http://loinc.org",
              "display": "Erythrocytes [#/volume] in Blood by Automated count"
            }
          ],
          "text": "Erythrocytes [#/volume] in Blood by Automated count"
        },
        "valueQuantity": {
          "system": "http://unitsofmeasure.org",
          "value": 5.2,
          "unit": "10*6/uL",
          "code": "10*6/uL"
        },
        "referenceRange": [
          {
            "low": {
              "value": 3.9,
              "code": "10*6/uL",
              "system": "http://unitsofmeasure.org"
            }
          },
          {
            "high": {
              "value": 5.4,
              "code": "10*6/uL",
              "system": "http://unitsofmeasure.org"
            }
          }
        ],
        "text": {
          "status": "generated",
          "div": "<div xmlns=\"http://www.w3.org/1999/xhtml\"><table class=\"hl7__eu__lab__report\"><tr><th>Test</th><th>09-Mar-2018</th><th>Reference&#xA0;Range</th><th>Unit</th></tr><tr><td>Erythrocytes [#/volume] in Blood by Automated count</td><td>5.2</td><td>3.9 - 5.4</td><td></td><td>10*6/uL</td></tr></table></div>"
        },
        "status": "final",
        "subject": {
          "reference": "urn:uuid:6eaebe05-d6d0-4ebe-823c-f662f59596c6",
          "display": "Bethany Begum"
        },
        "effectiveDateTime": "2018-03-09T11:40:40Z",
        "specimen": {
          "reference": "urn:uuid:857c8c9e-2dcc-4e16-b138-cfc774c1be06"
        }
      }
    },
    {
      "fullUrl": "urn:uuid:eb7ea433-a15c-426b-b3d6-865526c68bf7",
      "resource": {
        "resourceType": "Observation",
        "id": "eb7ea433-a15c-426b-b3d6-865526c68bf7",
        "meta": {
          "profile": [
            "http://hl7.eu/fhir/laboratory/StructureDefinition/Observation-resultslab-eu-lab"
          ]
        },
        "performer": [
          {
            "display": "The Central European Lab"
          }
        ],
        "category": [
          {
            "coding": [
              {
                "system": "http://terminology.hl7.org/CodeSystem/observation-category",
                "code": "laboratory"
              }
            ]
          }
        ],
        "code": {
          "coding": [
            {
              "code": "718-7",
              "system": "http://loinc.org",
              "display": "Hemoglobin [Mass/volume] in Blood"
            }
          ],
          "text": "Hemoglobin [Mass/volume] in Blood"
        },
        "valueQuantity": {
          "system": "http://unitsofmeasure.org",
          "value": 14.5,
          "unit": "g/dL",
          "code": "g/dL"
        },
        "referenceRange": [
          {
            "low": {
              "value": 12,
              "code": "g/dL",
              "system": "http://unitsofmeasure.org"
            }
          },
          {
            "high": {
              "value": 16,
              "code": "g/dL",
              "system": "http://unitsofmeasure.org"
            }
          }
        ],
        "text": {
          "status": "generated",
          "div": "<div xmlns=\"http://www.w3.org/1999/xhtml\"><table class=\"hl7__eu__lab__report\"><tr><th>Test</th><th>09-Mar-2018</th><th>Reference&#xA0;Range</th><th>Unit</th></tr><tr><td>Hemoglobin [Mass/volume] in Blood</td><td>14.5</td><td>12 - 16</td><td></td><td>g/dL</td></tr></table></div>"
        },
        "status": "final",
        "subject": {
          "reference": "urn:uuid:6eaebe05-d6d0-4ebe-823c-f662f59596c6",
          "display": "Bethany Begum"
        },
        "effectiveDateTime": "2018-03-09T11:40:40Z",
        "specimen": {
          "reference": "urn:uuid:857c8c9e-2dcc-4e16-b138-cfc774c1be06"
        }
      }
    },
    {
      "fullUrl": "urn:uuid:b7e8f04b-6914-40dd-b9ca-2ae5de55084b",
      "resource": {
        "resourceType": "Observation",
        "id": "b7e8f04b-6914-40dd-b9ca-2ae5de55084b",
        "meta": {
          "profile": [
            "http://hl7.eu/fhir/laboratory/StructureDefinition/Observation-resultslab-eu-lab"
          ]
        },
        "performer": [
          {
            "display": "The Central European Lab"
          }
        ],
        "category": [
          {
            "coding": [
              {
                "system": "http://terminology.hl7.org/CodeSystem/observation-category",
                "code": "laboratory"
              }
            ]
          }
        ],
        "code": {
          "coding": [
            {
              "code": "4544-3",
              "system": "http://loinc.org",
              "display": "Hematocrit [Volume Fraction] of Blood by Automated count"
            }
          ],
          "text": "Hematocrit [Volume Fraction] of Blood by Automated count"
        },
        "valueQuantity": {
          "system": "http://unitsofmeasure.org",
          "value": 36.1,
          "unit": "%",
          "code": "%"
        },
        "referenceRange": [
          {
            "low": {
              "value": 38,
              "code": "%",
              "system": "http://unitsofmeasure.org"
            }
          },
          {
            "high": {
              "value": 54,
              "code": "%",
              "system": "http://unitsofmeasure.org"
            }
          }
        ],
        "interpretation": [
          {
            "coding": [
              {
                "code": "L",
                "system": "http://terminology.hl7.org/CodeSystem/v3-ObservationInterpretation",
                "display": "Low"
              }
            ]
          }
        ],
        "text": {
          "status": "generated",
          "div": "<div xmlns=\"http://www.w3.org/1999/xhtml\"><table class=\"hl7__eu__lab__report\"><tr><th>Test</th><th>09-Mar-2018</th><th>Reference&#xA0;Range</th><th>Unit</th></tr><tr><td>Hematocrit [Volume Fraction] of Blood by Automated count</td><td>36.1</td><td>38 - 54</td><td>L</td><td>%</td></tr></table></div>"
        },
        "status": "final",
        "subject": {
          "reference": "urn:uuid:6eaebe05-d6d0-4ebe-823c-f662f59596c6",
          "display": "Bethany Begum"
        },
        "effectiveDateTime": "2018-03-09T11:40:40Z",
        "specimen": {
          "reference": "urn:uuid:857c8c9e-2dcc-4e16-b138-cfc774c1be06"
        }
      }
    },
    {
      "fullUrl": "urn:uuid:ccfd989d-957a-4362-b545-b26fc1a2e4de",
      "resource": {
        "resourceType": "Observation",
        "id": "ccfd989d-957a-4362-b545-b26fc1a2e4de",
        "meta": {
          "profile": [
            "http://hl7.eu/fhir/laboratory/StructureDefinition/Observation-resultslab-eu-lab"
          ]
        },
        "performer": [
          {
            "display": "The Central European Lab"
          }
        ],
        "category": [
          {
            "coding": [
              {
                "system": "http://terminology.hl7.org/CodeSystem/observation-category",
                "code": "laboratory"
              }
            ]
          }
        ],
        "code": {
          "coding": [
            {
              "code": "787-2",
              "system": "http://loinc.org",
              "display": "MCV [Entitic volume] by Automated count"
            }
          ],
          "text": "MCV [Entitic volume] by Automated count"
        },
        "valueQuantity": {
          "system": "http://unitsofmeasure.org",
          "value": 94.6,
          "unit": "fL",
          "code": "fL"
        },
        "referenceRange": [
          {
            "low": {
              "value": 82,
              "code": "fL",
              "system": "http://unitsofmeasure.org"
            }
          },
          {
            "high": {
              "value": 98,
              "code": "fL",
              "system": "http://unitsofmeasure.org"
            }
          }
        ],
        "text": {
          "status": "generated",
          "div": "<div xmlns=\"http://www.w3.org/1999/xhtml\"><table class=\"hl7__eu__lab__report\"><tr><th>Test</th><th>09-Mar-2018</th><th>Reference&#xA0;Range</th><th>Unit</th></tr><tr><td>MCV [Entitic volume] by Automated count</td><td>94.6</td><td>82 - 98</td><td></td><td>fL</td></tr></table></div>"
        },
        "status": "final",
        "subject": {
          "reference": "urn:uuid:6eaebe05-d6d0-4ebe-823c-f662f59596c6",
          "display": "Bethany Begum"
        },
        "effectiveDateTime": "2018-03-09T11:40:40Z",
        "specimen": {
          "reference": "urn:uuid:857c8c9e-2dcc-4e16-b138-cfc774c1be06"
        }
      }
    },
    {
      "fullUrl": "urn:uuid:33cf7b44-bdec-46af-804c-b17ae3a4abc0",
      "resource": {
        "resourceType": "Observation",
        "id": "33cf7b44-bdec-46af-804c-b17ae3a4abc0",
        "meta": {
          "profile": [
            "http://hl7.eu/fhir/laboratory/StructureDefinition/Observation-resultslab-eu-lab"
          ]
        },
        "performer": [
          {
            "display": "The Central European Lab"
          }
        ],
        "category": [
          {
            "coding": [
              {
                "system": "http://terminology.hl7.org/CodeSystem/observation-category",
                "code": "laboratory"
              }
            ]
          }
        ],
        "code": {
          "coding": [
            {
              "code": "785-6",
              "system": "http://loinc.org",
              "display": "MCH [Entitic mass] by Automated count"
            }
          ],
          "text": "MCH [Entitic mass] by Automated count"
        },
        "valueQuantity": {
          "system": "http://unitsofmeasure.org",
          "value": 30,
          "unit": "pg",
          "code": "pg"
        },
        "referenceRange": [
          {
            "low": {
              "value": 27,
              "code": "pg",
              "system": "http://unitsofmeasure.org"
            }
          },
          {
            "high": {
              "value": 34,
              "code": "pg",
              "system": "http://unitsofmeasure.org"
            }
          }
        ],
        "text": {
          "status": "generated",
          "div": "<div xmlns=\"http://www.w3.org/1999/xhtml\"><table class=\"hl7__eu__lab__report\"><tr><th>Test</th><th>09-Mar-2018</th><th>Reference&#xA0;Range</th><th>Unit</th></tr><tr><td>MCH [Entitic mass] by Automated count</td><td>30.0</td><td>27 - 34</td><td></td><td>pg</td></tr></table></div>"
        },
        "status": "final",
        "subject": {
          "reference": "urn:uuid:6eaebe05-d6d0-4ebe-823c-f662f59596c6",
          "display": "Bethany Begum"
        },
        "effectiveDateTime": "2018-03-09T11:40:40Z",
        "specimen": {
          "reference": "urn:uuid:857c8c9e-2dcc-4e16-b138-cfc774c1be06"
        }
      }
    },
    {
      "fullUrl": "urn:uuid:3476a48e-73b6-40e9-99ac-ee5d6edf9020",
      "resource": {
        "resourceType": "Observation",
        "id": "3476a48e-73b6-40e9-99ac-ee5d6edf9020",
        "meta": {
          "profile": [
            "http://hl7.eu/fhir/laboratory/StructureDefinition/Observation-resultslab-eu-lab"
          ]
        },
        "performer": [
          {
            "display": "The Central European Lab"
          }
        ],
        "category": [
          {
            "coding": [
              {
                "system": "http://terminology.hl7.org/CodeSystem/observation-category",
                "code": "laboratory"
              }
            ]
          }
        ],
        "code": {
          "coding": [
            {
              "code": "786-4",
              "system": "http://loinc.org",
              "display": "MCHC [Mass/volume] by Automated count"
            }
          ],
          "text": "MCHC [Mass/volume] by Automated count"
        },
        "valueQuantity": {
          "system": "http://unitsofmeasure.org",
          "value": 34.5,
          "unit": "g/dL",
          "code": "g/dL"
        },
        "referenceRange": [
          {
            "low": {
              "value": 32,
              "code": "g/dL",
              "system": "http://unitsofmeasure.org"
            }
          },
          {
            "high": {
              "value": 37,
              "code": "g/dL",
              "system": "http://unitsofmeasure.org"
            }
          }
        ],
        "text": {
          "status": "generated",
          "div": "<div xmlns=\"http://www.w3.org/1999/xhtml\"><table class=\"hl7__eu__lab__report\"><tr><th>Test</th><th>09-Mar-2018</th><th>Reference&#xA0;Range</th><th>Unit</th></tr><tr><td>MCHC [Mass/volume] by Automated count</td><td>34.5</td><td>32 - 37</td><td></td><td>g/dL</td></tr></table></div>"
        },
        "status": "final",
        "subject": {
          "reference": "urn:uuid:6eaebe05-d6d0-4ebe-823c-f662f59596c6",
          "display": "Bethany Begum"
        },
        "effectiveDateTime": "2018-03-09T11:40:40Z",
        "specimen": {
          "reference": "urn:uuid:857c8c9e-2dcc-4e16-b138-cfc774c1be06"
        }
      }
    },
    {
      "fullUrl": "urn:uuid:5b592111-91e5-4a85-bad1-a40f4ea9780e",
      "resource": {
        "resourceType": "Observation",
        "id": "5b592111-91e5-4a85-bad1-a40f4ea9780e",
        "meta": {
          "profile": [
            "http://hl7.eu/fhir/laboratory/StructureDefinition/Observation-resultslab-eu-lab"
          ]
        },
        "performer": [
          {
            "display": "The Central European Lab"
          }
        ],
        "category": [
          {
            "coding": [
              {
                "system": "http://terminology.hl7.org/CodeSystem/observation-category",
                "code": "laboratory"
              }
            ]
          }
        ],
        "code": {
          "coding": [
            {
              "code": "21000-5",
              "system": "http://loinc.org",
              "display": "Erythrocyte distribution width [Entitic volume] by Automated count"
            }
          ],
          "text": "Erythrocyte distribution width [Entitic volume] by Automated count"
        },
        "valueQuantity": {
          "system": "http://unitsofmeasure.org",
          "value": 44.5,
          "unit": "fL",
          "code": "fL"
        },
        "referenceRange": [
          {
            "low": {
              "value": 36,
              "code": "fL",
              "system": "http://unitsofmeasure.org"
            }
          },
          {
            "high": {
              "value": 55,
              "code": "fL",
              "system": "http://unitsofmeasure.org"
            }
          }
        ],
        "text": {
          "status": "generated",
          "div": "<div xmlns=\"http://www.w3.org/1999/xhtml\"><table class=\"hl7__eu__lab__report\"><tr><th>Test</th><th>09-Mar-2018</th><th>Reference&#xA0;Range</th><th>Unit</th></tr><tr><td>Erythrocyte distribution width [Entitic volume] by Automated count</td><td>44.5</td><td>36 - 55</td><td></td><td>fL</td></tr></table></div>"
        },
        "status": "final",
        "subject": {
          "reference": "urn:uuid:6eaebe05-d6d0-4ebe-823c-f662f59596c6",
          "display": "Bethany Begum"
        },
        "effectiveDateTime": "2018-03-09T11:40:40Z",
        "specimen": {
          "reference": "urn:uuid:857c8c9e-2dcc-4e16-b138-cfc774c1be06"
        }
      }
    },
    {
      "fullUrl": "urn:uuid:ea7264ee-3a48-4d25-aa29-ca397cdb6629",
      "resource": {
        "resourceType": "Observation",
        "id": "ea7264ee-3a48-4d25-aa29-ca397cdb6629",
        "meta": {
          "profile": [
            "http://hl7.eu/fhir/laboratory/StructureDefinition/Observation-resultslab-eu-lab"
          ]
        },
        "performer": [
          {
            "display": "The Central European Lab"
          }
        ],
        "category": [
          {
            "coding": [
              {
                "system": "http://terminology.hl7.org/CodeSystem/observation-category",
                "code": "laboratory"
              }
            ]
          }
        ],
        "code": {
          "coding": [
            {
              "code": "777-3",
              "system": "http://loinc.org",
              "display": "Platelets [#/volume] in Blood by Automated count"
            }
          ],
          "text": "Platelets [#/volume] in Blood by Automated count"
        },
        "valueQuantity": {
          "system": "http://unitsofmeasure.org",
          "value": 287.5,
          "unit": "10*3/uL",
          "code": "10*3/uL"
        },
        "referenceRange": [
          {
            "low": {
              "value": 140,
              "code": "10*3/uL",
              "system": "http://unitsofmeasure.org"
            }
          },
          {
            "high": {
              "value": 424,
              "code": "10*3/uL",
              "system": "http://unitsofmeasure.org"
            }
          }
        ],
        "text": {
          "status": "generated",
          "div": "<div xmlns=\"http://www.w3.org/1999/xhtml\"><table class=\"hl7__eu__lab__report\"><tr><th>Test</th><th>09-Mar-2018</th><th>Reference&#xA0;Range</th><th>Unit</th></tr><tr><td>Platelets [#/volume] in Blood by Automated count</td><td>287.5</td><td>140 - 424</td><td></td><td>10*3/uL</td></tr></table></div>"
        },
        "status": "final",
        "subject": {
          "reference": "urn:uuid:6eaebe05-d6d0-4ebe-823c-f662f59596c6",
          "display": "Bethany Begum"
        },
        "effectiveDateTime": "2018-03-09T11:40:40Z",
        "specimen": {
          "reference": "urn:uuid:857c8c9e-2dcc-4e16-b138-cfc774c1be06"
        }
      }
    },
    {
      "fullUrl": "urn:uuid:1d5230cd-f748-4336-8759-30288dbce58d",
      "resource": {
        "resourceType": "Observation",
        "id": "1d5230cd-f748-4336-8759-30288dbce58d",
        "meta": {
          "profile": [
            "http://hl7.eu/fhir/laboratory/StructureDefinition/Observation-resultslab-eu-lab"
          ]
        },
        "performer": [
          {
            "display": "The Central European Lab"
          }
        ],
        "category": [
          {
            "coding": [
              {
                "system": "http://terminology.hl7.org/CodeSystem/observation-category",
                "code": "laboratory"
              }
            ]
          }
        ],
        "code": {
          "coding": [
            {
              "code": "32207-3",
              "system": "http://loinc.org",
              "display": "Platelet distribution width [Entitic volume] in Blood by Automated count"
            }
          ],
          "text": "Platelet distribution width [Entitic volume] in Blood by Automated count"
        },
        "valueQuantity": {
          "system": "http://unitsofmeasure.org",
          "value": 469.7,
          "unit": "fL",
          "code": "fL"
        },
        "referenceRange": [
          {
            "low": {
              "value": 13.4,
              "code": "fL",
              "system": "http://unitsofmeasure.org"
            }
          },
          {
            "high": {
              "value": 17.4,
              "code": "fL",
              "system": "http://unitsofmeasure.org"
            }
          }
        ],
        "interpretation": [
          {
            "coding": [
              {
                "code": "H",
                "system": "http://terminology.hl7.org/CodeSystem/v3-ObservationInterpretation",
                "display": "High"
              }
            ]
          }
        ],
        "text": {
          "status": "generated",
          "div": "<div xmlns=\"http://www.w3.org/1999/xhtml\"><table class=\"hl7__eu__lab__report\"><tr><th>Test</th><th>09-Mar-2018</th><th>Reference&#xA0;Range</th><th>Unit</th></tr><tr><td>Platelet distribution width [Entitic volume] in Blood by Automated count</td><td>469.7</td><td>13.4 - 17.4</td><td>H</td><td>fL</td></tr></table></div>"
        },
        "status": "final",
        "subject": {
          "reference": "urn:uuid:6eaebe05-d6d0-4ebe-823c-f662f59596c6",
          "display": "Bethany Begum"
        },
        "effectiveDateTime": "2018-03-09T11:40:40Z",
        "specimen": {
          "reference": "urn:uuid:857c8c9e-2dcc-4e16-b138-cfc774c1be06"
        }
      }
    },
    {
      "fullUrl": "urn:uuid:652add7a-19f0-445d-b0c2-75367ba007c5",
      "resource": {
        "resourceType": "Observation",
        "id": "652add7a-19f0-445d-b0c2-75367ba007c5",
        "meta": {
          "profile": [
            "http://hl7.eu/fhir/laboratory/StructureDefinition/Observation-resultslab-eu-lab"
          ]
        },
        "performer": [
          {
            "display": "The Central European Lab"
          }
        ],
        "category": [
          {
            "coding": [
              {
                "system": "http://terminology.hl7.org/CodeSystem/observation-category",
                "code": "laboratory"
              }
            ]
          }
        ],
        "code": {
          "coding": [
            {
              "code": "32623-1",
              "system": "http://loinc.org",
              "display": "Platelet mean volume [Entitic volume] in Blood by Automated count"
            }
          ],
          "text": "Platelet mean volume [Entitic volume] in Blood by Automated count"
        },
        "valueQuantity": {
          "system": "http://unitsofmeasure.org",
          "value": 12.3,
          "unit": "fL",
          "code": "fL"
        },
        "referenceRange": [
          {
            "low": {
              "value": 9.4,
              "code": "fL",
              "system": "http://unitsofmeasure.org"
            }
          },
          {
            "high": {
              "value": 14,
              "code": "fL",
              "system": "http://unitsofmeasure.org"
            }
          }
        ],
        "text": {
          "status": "generated",
          "div": "<div xmlns=\"http://www.w3.org/1999/xhtml\"><table class=\"hl7__eu__lab__report\"><tr><th>Test</th><th>09-Mar-2018</th><th>Reference&#xA0;Range</th><th>Unit</th></tr><tr><td>Platelet mean volume [Entitic volume] in Blood by Automated count</td><td>12.3</td><td>9.4 - 14</td><td></td><td>fL</td></tr></table></div>"
        },
        "status": "final",
        "subject": {
          "reference": "urn:uuid:6eaebe05-d6d0-4ebe-823c-f662f59596c6",
          "display": "Bethany Begum"
        },
        "effectiveDateTime": "2018-03-09T11:40:40Z",
        "specimen": {
          "reference": "urn:uuid:857c8c9e-2dcc-4e16-b138-cfc774c1be06"
        }
      }
    },
    {
      "fullUrl": "urn:uuid:2607ed5b-4cfd-424a-99f1-82d800ccd0d5",
      "resource": {
        "resourceType": "Device",
        "id": "2607ed5b-4cfd-424a-99f1-82d800ccd0d5",
        "deviceName": [
          {
            "name": "SYNDERAI Synthetic Generator",
            "type": "manufacturer-name"
          }
        ],
        "version": [
          {
            "value": "5.0"
          }
        ],
        "text": {
          "status": "generated",
          "div": "<div xmlns=\"http://www.w3.org/1999/xhtml\">SYNDERAI Synthetic Generator v5.0</div>"
        },
        "status": "active\"",
        "distinctIdentifier": "synderai-generator-50",
        "manufacturer": "SYNDERAI Project"
      }
    },
    {
      "fullUrl": "urn:uuid:a3eee45d-be1c-45b0-8ad1-8b2c9f1db49b",
      "resource": {
        "resourceType": "Provenance",
        "id": "a3eee45d-be1c-45b0-8ad1-8b2c9f1db49b",
        "target": [
          {
            "reference": "Patient/6eaebe05-d6d0-4ebe-823c-f662f59596c6"
          },
          {
            "reference": "Bundle/3bef0409-3a26-475b-b58c-214a8e2241fe"
          },
          {
            "reference": "Composition/a42a8607-670e-4f11-8b9e-24970cdca513"
          },
          {
            "reference": "PractitionerRole/937d7042-c3b4-4897-94f1-e4655203ada5"
          },
          {
            "reference": "Practitioner/bc5b4461-f0f7-422b-a404-6fc178218c08"
          },
          {
            "reference": "PractitionerRole/374a74cc-3476-41d6-b95d-301323b10d08"
          },
          {
            "reference": "Organization/f1c8deb7-1cdb-4388-93d3-f92252dca5cf"
          }
        ],
        "activity": {
          "text": "Synthetic Example Data Generation"
        },
        "policy": [
          "https://synderai.net/synderai-synthetic-data-policy"
        ],
        "agent": [
          {
            "type": {
              "text": "author"
            },
            "who": {
              "reference": "Device/2607ed5b-4cfd-424a-99f1-82d800ccd0d5"
            }
          }
        ],
        "reason": [
          {
            "text": "Interoperability Testing and Training (non-clinical use)"
          }
        ],
        "text": {
          "status": "generated",
          "div": "<div xmlns=\"http://www.w3.org/1999/xhtml\">Provenance for SYNDERAI Synthetic Example Data Resource</div>"
        },
        "recorded": "2018-03-09T12:40:40Z"
      }
    },
    {
      "fullUrl": "urn:uuid:937d7042-c3b4-4897-94f1-e4655203ada5",
      "resource": {
        "resourceType": "PractitionerRole",
        "id": "937d7042-c3b4-4897-94f1-e4655203ada5",
        "meta": {
          "profile": [
            "http://hl7.eu/fhir/base/StructureDefinition/practitionerRole-eu"
          ]
        },
        "text": {
          "status": "generated",
          "div": "<div xmlns=\"http://www.w3.org/1999/xhtml\">Laboratory Role Id: 937d7042-c3b4-4897-94f1-e4655203ada5</div>"
        },
        "practitioner": {
          "reference": "urn:uuid:bc5b4461-f0f7-422b-a404-6fc178218c08"
        }
      }
    },
    {
      "fullUrl": "urn:uuid:bc5b4461-f0f7-422b-a404-6fc178218c08",
      "resource": {
        "resourceType": "Practitioner",
        "id": "bc5b4461-f0f7-422b-a404-6fc178218c08",
        "meta": {
          "profile": [
            "http://hl7.eu/fhir/base/StructureDefinition/practitioner-eu"
          ]
        },
        "identifier": [
          {
            "assigner": {
              "display": "HL7 Europe"
            },
            "system": "urn:oid:2.16.840.1.113883.2.51.999",
            "value": "77c39b34-613d-4ec1-adb6-cf28e9ae3b17"
          }
        ],
        "name": [
          {
            "prefix": [
              "dr"
            ],
            "given": [
              "Ex"
            ],
            "family": "Ample"
          }
        ],
        "address": [
          {
            "line": [
              "Laboratoire Central Europenne",
              "Boulevard du Jardin Botanique 32"
            ],
            "postalCode": "1000",
            "city": "Brussels",
            "country": "Belgium"
          }
        ],
        "text": {
          "status": "generated",
          "div": "<div xmlns=\"http://www.w3.org/1999/xhtml\">Laboratory: Laboratoire Central Europenne, 1000 Brussels, Belgium</div>"
        }
      }
    }
  ],
  "type": "document",
  "timestamp": "2018-03-09T12:40:40Z"
}
