{
  "resourceType": "Bundle",
  "id": "71eca4bf-915d-4b4e-bc96-e7b952fbefad",
  "meta": {
    "profile": [
      "http://hl7.eu/fhir/laboratory/StructureDefinition/Bundle-eu-lab"
    ]
  },
  "identifier": {
    "assigner": {
      "display": "HL7 Europe"
    },
    "system": "urn:oid:2.16.840.1.113883.2.51.999",
    "value": "25190bdd-13c9-4ec1-9636-37ec98496eb6"
  },
  "entry": [
    {
      "fullUrl": "urn:uuid:3e4b76f2-a715-4738-beb8-c1e14feed07c",
      "resource": {
        "resourceType": "Composition",
        "id": "3e4b76f2-a715-4738-beb8-c1e14feed07c",
        "meta": {
          "profile": [
            "http://hl7.eu/fhir/laboratory/StructureDefinition/Composition-eu-lab"
          ]
        },
        "identifier": {
          "assigner": {
            "display": "HL7 Europe"
          },
          "system": "urn:oid:2.16.840.1.113883.2.51.999",
          "value": "184a5768-f46d-4cee-a075-ea7867b7f782"
        },
        "author": [
          {
            "reference": "urn:uuid:48d7692b-0858-4ad3-8e90-49d26ebcb46f"
          }
        ],
        "category": [
          {
            "coding": [
              {
                "code": "26436-6",
                "system": "http://loinc.org",
                "display": "Laboratory studies (set)"
              }
            ]
          }
        ],
        "type": {
          "coding": [
            {
              "code": "11502-2",
              "system": "http://loinc.org",
              "display": "Laboratory report"
            }
          ],
          "text": "Laboratory Report"
        },
        "section": [
          {
            "code": {
              "coding": [
                {
                  "code": "26436-6",
                  "system": "http://loinc.org",
                  "display": "Laboratory studies (set)"
                }
              ],
              "text": "Laboratory studies"
            },
            "section": [
              {
                "code": {
                  "coding": [
                    {
                      "code": "$18719-5",
                      "system": "http://loinc.org",
                      "display": "Chemistry studies (set)"
                    }
                  ],
                  "text": "Chemistry"
                },
                "entry": [
                  {
                    "reference": "urn:uuid:7d06f11f-5cf6-4936-879d-7f9f2cbfb367"
                  },
                  {
                    "reference": "urn:uuid:c1c341d1-5614-46dc-822b-680fdb2594c8"
                  },
                  {
                    "reference": "urn:uuid:3e2a0a65-5a22-48c7-afa4-c898ac72cc1c"
                  },
                  {
                    "reference": "urn:uuid:203df6cc-beb3-4172-b2da-4915f8adab96"
                  },
                  {
                    "reference": "urn:uuid:a24a5559-f2a1-4b8b-a950-3f9fee9c9b8a"
                  },
                  {
                    "reference": "urn:uuid:1e9ff953-c4db-4f52-a47d-d91e18ceb90c"
                  },
                  {
                    "reference": "urn:uuid:d3a1833c-6941-458c-b386-fa33a075b3b3"
                  },
                  {
                    "reference": "urn:uuid:d2a809d2-1bc3-45b2-a7d7-70a6ae5e14f8"
                  },
                  {
                    "reference": "urn:uuid:98db6521-1a31-4c44-9012-fd216d1b2018"
                  },
                  {
                    "reference": "urn:uuid:83020606-3a9f-4698-a156-9c64f2370114"
                  },
                  {
                    "reference": "urn:uuid:540de152-b93b-403e-9d86-74f7e97f4f2a"
                  },
                  {
                    "reference": "urn:uuid:55169a61-bfb2-49a5-9fe8-eb7cc5369218"
                  },
                  {
                    "reference": "urn:uuid:4b373031-219e-4343-8e01-f53d01a8a48f"
                  },
                  {
                    "reference": "urn:uuid:13ae6fea-c547-4eca-8a20-f63658f25be1"
                  },
                  {
                    "reference": "urn:uuid:4e089d89-06b3-426d-8b61-342538bdf605"
                  },
                  {
                    "reference": "urn:uuid:aa05e360-ff21-45ff-8989-75a0cadbb95e"
                  },
                  {
                    "reference": "urn:uuid:a4f6326d-14b7-46f5-94e4-96007635740c"
                  },
                  {
                    "reference": "urn:uuid:4de8c3b6-a894-4229-98a8-87590607c9f5"
                  }
                ],
                "text": {
                  "status": "generated",
                  "div": "<div xmlns=\"http://www.w3.org/1999/xhtml\"><h3>Chemistry</h3><table class=\"hl7__eu__lab__report\"><thead><tr><th>Test</th><th>03-AUG-2022</th><th>Reference&#xA0;Range</th><th>Unit</th></tr></thead><tbody><tr><td>Glucose [Mass/volume] in Serum or Plasma</td><td><strong>64.7 L</strong></td><td>70 - 140</td><td>mg/dL</td></tr><tr><td>Urea nitrogen [Mass/volume] in Serum or Plasma</td><td>7.9</td><td>7 - 20</td><td>mg/dL</td></tr><tr><td>Creatinine [Mass/volume] in Serum or Plasma</td><td><strong>2.1 H</strong></td><td>0.9 - 1.3</td><td>mg/dL</td></tr><tr><td>Calcium [Mass/volume] in Serum or Plasma</td><td>10.1</td><td>8.5 - 10.5</td><td>mg/dL</td></tr><tr><td>Sodium [Moles/volume] in Serum or Plasma</td><td>141.4</td><td>135 - 145</td><td>mmol/L</td></tr><tr><td>Potassium [Moles/volume] in Serum or Plasma</td><td>3.7</td><td>3.5 - 5</td><td>mmol/L</td></tr><tr><td>Chloride [Moles/volume] in Serum or Plasma</td><td><strong>109.3 H</strong></td><td>98 - 108</td><td>mmol/L</td></tr><tr><td>Carbon dioxide, total [Moles/volume] in Serum or Plasma</td><td>24.3</td><td>22 - 29</td><td>mmol/L</td></tr><tr><td>Ketones [Presence] in Urine by Test strip</td><td>Urine ketone test = ++</td><td></td><td></td></tr><tr><td>Hemoglobin A1c/Hemoglobin.total in Blood</td><td><strong>3.3 L</strong></td><td>4.3 - 6.4</td><td>%</td></tr><tr><td>Glucose [Mass/volume] in Blood</td><td><strong>64.7 L</strong></td><td>70 - 140</td><td>mg/dL</td></tr><tr><td>Urea nitrogen [Mass/volume] in Blood</td><td>7.9</td><td>7 - 20</td><td>mg/dL</td></tr><tr><td>Creatinine [Mass/volume] in Blood</td><td><strong>6.2 H</strong></td><td>0.6 - 1.3</td><td>mg/dL</td></tr><tr><td>Calcium [Mass/volume] in Blood</td><td>10.1</td><td>8.5 - 10.5</td><td>mg/dL</td></tr><tr><td>Sodium [Moles/volume] in Blood</td><td>141.4</td><td>135 - 145</td><td>mmol/L</td></tr><tr><td>Potassium [Moles/volume] in Blood</td><td>3.7</td><td>3.5 - 5.3</td><td>mmol/L</td></tr><tr><td>Chloride [Moles/volume] in Blood</td><td>109.3</td><td>98 - 110</td><td>mmol/L</td></tr><tr><td>Carbon dioxide, total [Moles/volume] in Blood</td><td>24.3</td><td>22 - 29</td><td>mmol/L</td></tr></tbody></table></div>"
                },
                "title": "Chemistry"
              },
              {
                "code": {
                  "coding": [
                    {
                      "code": "$18729-4",
                      "system": "http://loinc.org",
                      "display": "Urinalysis studies (set)"
                    }
                  ],
                  "text": "Urinalysis"
                },
                "entry": [
                  {
                    "reference": "urn:uuid:a7ac836d-7598-4347-a9d7-b44b9e71c776"
                  },
                  {
                    "reference": "urn:uuid:4657decc-6aae-4a3f-a3cc-33aa73da05ad"
                  },
                  {
                    "reference": "urn:uuid:484c7d74-b3e7-4bb9-9c0c-92f60dc0bed2"
                  },
                  {
                    "reference": "urn:uuid:0e1fb188-0995-4ee7-87bd-6896a884451b"
                  },
                  {
                    "reference": "urn:uuid:ecc15506-845c-4815-9a90-e889fefe8583"
                  },
                  {
                    "reference": "urn:uuid:9cf92919-828a-4137-bde7-77de5e42967e"
                  },
                  {
                    "reference": "urn:uuid:dd5ec99a-fa4b-47ca-8dfb-26c71213a7c9"
                  },
                  {
                    "reference": "urn:uuid:33f747b5-1cdc-4082-ae17-27e51bea16e3"
                  },
                  {
                    "reference": "urn:uuid:4669876c-a809-41ad-964b-2589f1fc2822"
                  },
                  {
                    "reference": "urn:uuid:dfd4b1d5-b417-4ef8-9cb7-1892918312b3"
                  },
                  {
                    "reference": "urn:uuid:e8c60b1c-c626-47c0-b9bf-4c51625bbda7"
                  },
                  {
                    "reference": "urn:uuid:b470eec1-537d-424a-89bb-71b4768cc47d"
                  }
                ],
                "text": {
                  "status": "generated",
                  "div": "<div xmlns=\"http://www.w3.org/1999/xhtml\"><h3>Urinalysis</h3><table class=\"hl7__eu__lab__report\"><thead><tr><th>Test</th><th>03-AUG-2022</th><th>Reference&#xA0;Range</th><th>Unit</th></tr></thead><tbody><tr><td>Glucose [Mass/volume] in Urine by Test strip</td><td><strong>1.5 H</strong></td><td>0 - 0.8</td><td>mg/dL</td></tr><tr><td>Glucose [Presence] in Urine by Test strip</td><td>++</td><td></td><td></td></tr><tr><td>Bilirubin.total [Mass/volume] in Urine by Test strip</td><td><strong>1.4 H</strong></td><td>0.2 - 1</td><td>mg/dL</td></tr><tr><td>Bilirubin.total [Presence] in Urine by Test strip</td><td>Finding of bilirubin in urine</td><td></td><td></td></tr><tr><td>Ketones [Mass/volume] in Urine by Test strip</td><td><strong>16.4 H</strong></td><td>0 - 5</td><td>mg/dL</td></tr><tr><td>Specific gravity of Urine by Test strip</td><td><strong>1.0 L</strong></td><td>1.005 - 1.03</td><td>{nominal}</td></tr><tr><td>pH of Urine by Test strip</td><td>6.0</td><td>4.6 - 7</td><td>pH</td></tr><tr><td>Protein [Mass/volume] in Urine by Test strip</td><td><strong>260.9 H</strong></td><td>0 - 150</td><td>mg/dL</td></tr><tr><td>Protein [Presence] in Urine by Test strip</td><td>Urine protein test = ++</td><td></td><td></td></tr><tr><td>Nitrite [Presence] in Urine by Test strip</td><td>Urine nitrite negative</td><td></td><td></td></tr><tr><td>Hemoglobin [Presence] in Urine by Test strip</td><td>Urine blood test = negative</td><td></td><td></td></tr><tr><td>Leukocyte esterase [Presence] in Urine by Test strip</td><td>Urine leukocyte test negative</td><td></td><td></td></tr></tbody></table></div>"
                },
                "title": "Urinalysis"
              },
              {
                "code": {
                  "coding": [
                    {
                      "code": "$LP7846-1",
                      "system": "http://loinc.org",
                      "display": "Specimen information"
                    }
                  ],
                  "text": "Specimen information"
                },
                "entry": [
                  {
                    "reference": "urn:uuid:53686138-3fec-4060-9670-72fcb6098bb1"
                  },
                  {
                    "reference": "urn:uuid:52e3664d-1335-48e9-8be1-dd449ff52d4f"
                  },
                  {
                    "reference": "urn:uuid:4858db4d-4dda-438b-844f-a6aea6a6444d"
                  },
                  {
                    "reference": "urn:uuid:97d5f4de-e996-4c4c-9729-ef205b3cd5aa"
                  }
                ],
                "text": {
                  "status": "generated",
                  "div": "<div xmlns=\"http://www.w3.org/1999/xhtml\"><h3>Specimen information</h3><table class=\"hl7__eu__lab__report\"><thead><tr><th>Test</th><th>03-AUG-2022</th><th>Specimen</th><th></th></tr></thead><tbody><tr><td>Appearance of Urine</td><td>Cloudy urine</td><td>Urine</td><td></td></tr><tr><td>Odor of Urine</td><td>Urine smell ammoniacal</td><td>Urine</td><td></td></tr><tr><td>Clarity of Urine</td><td>Translucent</td><td>Urine</td><td></td></tr><tr><td>Color of Urine</td><td>Brown color</td><td>Urine</td><td></td></tr></tbody></table></div>"
                },
                "title": "Specimen information"
              }
            ],
            "title": "Laboratory Report"
          },
          {
            "text": {
              "status": "generated",
              "div": "<div xmlns=\"http://www.w3.org/1999/xhtml\"><h3>Annotation</h3><table class=\"hl7__eu__lab__report\"><tr><th>Conclusion and Recommendations based on this report and previous findings known to us</th></tr><tr><td>The patient shows significant renal dysfunction (markedly elevated creatinine), proteinuria, glucosuria, ketonuria, and low blood glucose and HbA1c, suggesting possible acute or chronic kidney disease with impaired glucose handling. Urine findings (cloudy, brown, ammoniacal) may indicate underlying renal or hepatic pathology. Immediate clinical evaluation and nephrology referral are recommended.</td></tr></table></div>"
            },
            "code": {
              "coding": [
                {
                  "system": "http://loinc.org",
                  "code": "48767-8",
                  "display": "Annotation comment"
                }
              ]
            },
            "title": "Annotation comment"
          }
        ],
        "status": "final",
        "subject": {
          "reference": "urn:uuid:0be53f09-a920-4977-b5d0-062f2d35a54b",
          "display": "Θεμιστοκλής Λιναρδάκη"
        },
        "date": "2022-08-03T08:16:00Z",
        "title": "Laboratory Report",
        "confidentiality": "N"
      }
    },
    {
      "fullUrl": "urn:uuid:581ec8f5-18c8-4c6d-81bb-5630825371a3",
      "resource": {
        "resourceType": "DiagnosticReport",
        "id": "581ec8f5-18c8-4c6d-81bb-5630825371a3",
        "meta": {
          "profile": [
            "http://hl7.eu/fhir/laboratory/StructureDefinition/DiagnosticReport-eu-lab"
          ]
        },
        "identifier": [
          {
            "assigner": {
              "display": "HL7 Europe"
            },
            "system": "urn:oid:2.16.840.1.113883.2.51.999",
            "value": "477b51cd-4f86-4bb1-a01b-c73940c4dd77"
          }
        ],
        "extension": [
          {
            "url": "http://hl7.org/fhir/5.0/StructureDefinition/extension-DiagnosticReport.composition",
            "valueReference": {
              "reference": "urn:uuid:184a5768-f46d-4cee-a075-ea7867b7f782"
            }
          }
        ],
        "category": [
          {
            "coding": [
              {
                "code": "26436-6",
                "system": "http://loinc.org",
                "display": "Laboratory studies (set)"
              }
            ]
          }
        ],
        "specimen": [
          {
            "reference": "urn:uuid:39986e9d-6032-4015-8b08-73681c6510f6"
          },
          {
            "reference": "urn:uuid:dba66dfc-b2be-4ad8-92cc-9b6cfd5f9317"
          },
          {
            "reference": "urn:uuid:6eac9d04-e8cd-4342-b043-77c0eef8b869"
          }
        ],
        "result": [
          {
            "reference": "urn:uuid:7d06f11f-5cf6-4936-879d-7f9f2cbfb367"
          },
          {
            "reference": "urn:uuid:c1c341d1-5614-46dc-822b-680fdb2594c8"
          },
          {
            "reference": "urn:uuid:3e2a0a65-5a22-48c7-afa4-c898ac72cc1c"
          },
          {
            "reference": "urn:uuid:203df6cc-beb3-4172-b2da-4915f8adab96"
          },
          {
            "reference": "urn:uuid:a24a5559-f2a1-4b8b-a950-3f9fee9c9b8a"
          },
          {
            "reference": "urn:uuid:1e9ff953-c4db-4f52-a47d-d91e18ceb90c"
          },
          {
            "reference": "urn:uuid:d3a1833c-6941-458c-b386-fa33a075b3b3"
          },
          {
            "reference": "urn:uuid:d2a809d2-1bc3-45b2-a7d7-70a6ae5e14f8"
          },
          {
            "reference": "urn:uuid:53686138-3fec-4060-9670-72fcb6098bb1"
          },
          {
            "reference": "urn:uuid:52e3664d-1335-48e9-8be1-dd449ff52d4f"
          },
          {
            "reference": "urn:uuid:4858db4d-4dda-438b-844f-a6aea6a6444d"
          },
          {
            "reference": "urn:uuid:97d5f4de-e996-4c4c-9729-ef205b3cd5aa"
          },
          {
            "reference": "urn:uuid:a7ac836d-7598-4347-a9d7-b44b9e71c776"
          },
          {
            "reference": "urn:uuid:4657decc-6aae-4a3f-a3cc-33aa73da05ad"
          },
          {
            "reference": "urn:uuid:484c7d74-b3e7-4bb9-9c0c-92f60dc0bed2"
          },
          {
            "reference": "urn:uuid:0e1fb188-0995-4ee7-87bd-6896a884451b"
          },
          {
            "reference": "urn:uuid:ecc15506-845c-4815-9a90-e889fefe8583"
          },
          {
            "reference": "urn:uuid:98db6521-1a31-4c44-9012-fd216d1b2018"
          },
          {
            "reference": "urn:uuid:9cf92919-828a-4137-bde7-77de5e42967e"
          },
          {
            "reference": "urn:uuid:dd5ec99a-fa4b-47ca-8dfb-26c71213a7c9"
          },
          {
            "reference": "urn:uuid:33f747b5-1cdc-4082-ae17-27e51bea16e3"
          },
          {
            "reference": "urn:uuid:4669876c-a809-41ad-964b-2589f1fc2822"
          },
          {
            "reference": "urn:uuid:dfd4b1d5-b417-4ef8-9cb7-1892918312b3"
          },
          {
            "reference": "urn:uuid:e8c60b1c-c626-47c0-b9bf-4c51625bbda7"
          },
          {
            "reference": "urn:uuid:b470eec1-537d-424a-89bb-71b4768cc47d"
          },
          {
            "reference": "urn:uuid:83020606-3a9f-4698-a156-9c64f2370114"
          },
          {
            "reference": "urn:uuid:540de152-b93b-403e-9d86-74f7e97f4f2a"
          },
          {
            "reference": "urn:uuid:55169a61-bfb2-49a5-9fe8-eb7cc5369218"
          },
          {
            "reference": "urn:uuid:4b373031-219e-4343-8e01-f53d01a8a48f"
          },
          {
            "reference": "urn:uuid:13ae6fea-c547-4eca-8a20-f63658f25be1"
          },
          {
            "reference": "urn:uuid:4e089d89-06b3-426d-8b61-342538bdf605"
          },
          {
            "reference": "urn:uuid:aa05e360-ff21-45ff-8989-75a0cadbb95e"
          },
          {
            "reference": "urn:uuid:a4f6326d-14b7-46f5-94e4-96007635740c"
          },
          {
            "reference": "urn:uuid:4de8c3b6-a894-4229-98a8-87590607c9f5"
          }
        ],
        "status": "registered",
        "code": {
          "coding": [
            {
              "code": "11502-2",
              "system": "http://loinc.org",
              "display": "Laboratory report"
            }
          ]
        },
        "subject": {
          "reference": "urn:uuid:0be53f09-a920-4977-b5d0-062f2d35a54b",
          "display": "Θεμιστοκλής Λιναρδάκη"
        }
      }
    },
    {
      "fullUrl": "urn:uuid:0be53f09-a920-4977-b5d0-062f2d35a54b",
      "resource": {
        "resourceType": "Patient",
        "id": "0be53f09-a920-4977-b5d0-062f2d35a54b",
        "meta": {
          "security": [
            {
              "system": "http://terminology.hl7.org/CodeSystem/v3-ActReason",
              "code": "HTEST"
            },
            {
              "system": "http://terminology.hl7.org/CodeSystem/v3-ActReason",
              "code": "TRAIN"
            }
          ],
          "tag": [
            {
              "system": "https://synderai.net/fhir/CodeSystem/tags",
              "code": "synthetic",
              "display": "SYNDERAI Synthetic data"
            }
          ],
          "profile": [
            "http://hl7.eu/fhir/base/StructureDefinition/patient-eu-core"
          ]
        },
        "identifier": [
          {
            "type": {
              "coding": [
                {
                  "code": "PT",
                  "system": "http://terminology.hl7.org/CodeSystem/v2-0203"
                }
              ]
            },
            "system": "http://ec.europa.eu/identifier/eci",
            "value": "5962-476889-7"
          },
          {
            "type": {
              "coding": [
                {
                  "code": "MR",
                  "system": "http://terminology.hl7.org/CodeSystem/v2-0203"
                }
              ]
            },
            "system": "http://local.setting.eu/identifier",
            "value": "925e2603-2ef9-6bdf-1330-2ebf526636c4"
          }
        ],
        "name": [
          {
            "family": "Λιναρδάκη"
          },
          {
            "given": [
              "Θεμιστοκλής"
            ]
          },
          {
            "text": "Θεμιστοκλής Λιναρδάκη"
          }
        ],
        "address": [
          {
            "line": [
              "Αμαρύνθου 54-58"
            ],
            "use": "home",
            "type": "physical",
            "postalCode": "262 21",
            "city": "Πάτρα",
            "country": "Greece"
          }
        ],
        "telecom": [
          {
            "system": "phone",
            "value": "+302226364480"
          }
        ],
        "extension": [
          {
            "url": "http://hl7.org/fhir/StructureDefinition/patient-nationality",
            "valueCodeableConcept": {
              "coding": [
                {
                  "code": "GR",
                  "system": "http://hl7.org/fhir/ValueSet/country"
                }
              ]
            }
          }
        ],
        "text": {
          "status": "generated",
          "div": "<div xmlns=\"http://www.w3.org/1999/xhtml\"><table class=\"hl7__ips\"><tr><td>Θεμιστοκλής Λιναρδάκη</td><td>male</td><td>21-Jan-1974</td></tr></table></div>"
        },
        "gender": "male",
        "birthDate": "1974-01-21"
      }
    },
    {
      "fullUrl": "urn:uuid:6386df23-b5fd-4b6c-a5d1-e437dd2fd8c2",
      "resource": {
        "resourceType": "ServiceRequest",
        "id": "6386df23-b5fd-4b6c-a5d1-e437dd2fd8c2",
        "meta": {
          "profile": [
            "http://hl7.eu/fhir/laboratory/StructureDefinition/ServiceRequest-eu-lab"
          ]
        },
        "identifier": [
          {
            "system": "http://example.org",
            "value": "0d952b12-8b89-43c5-9ca5-9714e4a54b6e"
          }
        ],
        "specimen": [
          {
            "reference": "urn:uuid:39986e9d-6032-4015-8b08-73681c6510f6"
          },
          {
            "reference": "urn:uuid:dba66dfc-b2be-4ad8-92cc-9b6cfd5f9317"
          },
          {
            "reference": "urn:uuid:6eac9d04-e8cd-4342-b043-77c0eef8b869"
          }
        ],
        "reasonCode": [
          {
            "coding": [
              {
                "code": "237602007",
                "system": "http://snomed.info/sct",
                "display": "Metabolic syndrome X"
              }
            ]
          },
          {
            "coding": [
              {
                "code": "433144002",
                "system": "http://snomed.info/sct",
                "display": "Chronic kidney disease stage 3"
              }
            ]
          },
          {
            "coding": [
              {
                "code": "157141000119108",
                "system": "http://snomed.info/sct",
                "display": "Proteinuria due to type 2 diabetes mellitus"
              }
            ]
          },
          {
            "coding": [
              {
                "code": "431856006",
                "system": "http://snomed.info/sct",
                "display": "Chronic kidney disease stage 2"
              }
            ]
          },
          {
            "coding": [
              {
                "code": "90781000119102",
                "system": "http://snomed.info/sct",
                "display": "Microalbuminuria due to type 2 diabetes mellitus"
              }
            ]
          },
          {
            "coding": [
              {
                "code": "127013003",
                "system": "http://snomed.info/sct",
                "display": "Disorder of kidney due to diabetes mellitus"
              }
            ]
          },
          {
            "coding": [
              {
                "code": "431855005",
                "system": "http://snomed.info/sct",
                "display": "Chronic kidney disease stage 1"
              }
            ]
          },
          {
            "coding": [
              {
                "code": "59621000",
                "system": "http://snomed.info/sct",
                "display": "Essential hypertension"
              }
            ]
          },
          {
            "coding": [
              {
                "code": "15777000",
                "system": "http://snomed.info/sct",
                "display": "Prediabetes"
              }
            ]
          },
          {
            "coding": [
              {
                "code": "271737000",
                "system": "http://snomed.info/sct",
                "display": "Anemia"
              }
            ]
          }
        ],
        "status": "active",
        "intent": "order",
        "code": {
          "coding": [
            {
              "code": "108252007",
              "system": "http://snomed.info/sct",
              "display": "Laboratory procedure"
            }
          ]
        },
        "subject": {
          "reference": "urn:uuid:0be53f09-a920-4977-b5d0-062f2d35a54b",
          "display": "Θεμιστοκλής Λιναρδάκη"
        },
        "requester": {
          "reference": "urn:uuid:5319adc6-e601-44b0-aacb-eee72042fd14"
        }
      }
    },
    {
      "fullUrl": "urn:uuid:5319adc6-e601-44b0-aacb-eee72042fd14",
      "resource": {
        "resourceType": "PractitionerRole",
        "id": "5319adc6-e601-44b0-aacb-eee72042fd14",
        "meta": {
          "profile": [
            "http://hl7.eu/fhir/base/StructureDefinition/practitionerRole-eu"
          ]
        },
        "text": {
          "status": "generated",
          "div": "<div xmlns=\"http://www.w3.org/1999/xhtml\">Provider Role Id: 5319adc6-e601-44b0-aacb-eee72042fd14</div>"
        },
        "organization": {
          "reference": "urn:uuid:d5e6f0e4-c3b8-4dd8-aa5c-089e717dfacb"
        }
      }
    },
    {
      "fullUrl": "urn:uuid:d5e6f0e4-c3b8-4dd8-aa5c-089e717dfacb",
      "resource": {
        "resourceType": "Organization",
        "id": "d5e6f0e4-c3b8-4dd8-aa5c-089e717dfacb",
        "meta": {
          "profile": [
            "http://hl7.eu/fhir/base/StructureDefinition/organization-eu"
          ]
        },
        "identifier": [
          {
            "assigner": {
              "display": "HL7 Europe"
            },
            "system": "urn:oid:2.16.840.1.113883.2.51.999",
            "value": "5e14efa9-dd61-4327-9155-20bb2dafadcb"
          }
        ],
        "address": [
          {
            "line": [
              "211 Odós Filellinon"
            ],
            "city": "Patras",
            "postalCode": "262 21",
            "country": "Greece"
          }
        ],
        "text": {
          "status": "generated",
          "div": "<div xmlns=\"http://www.w3.org/1999/xhtml\">Provider Organization: Dr. Dimitris Economou</div>"
        },
        "name": "Dr. Dimitris Economou"
      }
    },
    {
      "fullUrl": "urn:uuid:39986e9d-6032-4015-8b08-73681c6510f6",
      "resource": {
        "resourceType": "Specimen",
        "id": "39986e9d-6032-4015-8b08-73681c6510f6",
        "meta": {
          "profile": [
            "http://hl7.eu/fhir/laboratory/StructureDefinition/Specimen-eu-lab"
          ]
        },
        "collection": {
          "collectedDateTime": "2022-08-03"
        },
        "text": {
          "status": "generated",
          "div": "<div xmlns=\"http://www.w3.org/1999/xhtml\"><table class=\"hl7__eu__lab__report\"><tr><th>Specimen</th><th>Collection Date</th></tr><tr><td>Acellular blood (serum or plasma) specimen</td><td><span class=\"nb\">03-Aug-2022</span></td></tr></table></div>"
        },
        "type": {
          "coding": [
            {
              "code": "122592007",
              "system": "http://snomed.info/sct",
              "display": "Acellular blood (serum or plasma) specimen"
            }
          ]
        }
      }
    },
    {
      "fullUrl": "urn:uuid:dba66dfc-b2be-4ad8-92cc-9b6cfd5f9317",
      "resource": {
        "resourceType": "Specimen",
        "id": "dba66dfc-b2be-4ad8-92cc-9b6cfd5f9317",
        "meta": {
          "profile": [
            "http://hl7.eu/fhir/laboratory/StructureDefinition/Specimen-eu-lab"
          ]
        },
        "collection": {
          "collectedDateTime": "2022-08-03"
        },
        "text": {
          "status": "generated",
          "div": "<div xmlns=\"http://www.w3.org/1999/xhtml\"><table class=\"hl7__eu__lab__report\"><tr><th>Specimen</th><th>Collection Date</th></tr><tr><td>Urine specimen</td><td><span class=\"nb\">03-Aug-2022</span></td></tr></table></div>"
        },
        "type": {
          "coding": [
            {
              "code": "122575003",
              "system": "http://snomed.info/sct",
              "display": "Urine specimen"
            }
          ]
        }
      }
    },
    {
      "fullUrl": "urn:uuid:6eac9d04-e8cd-4342-b043-77c0eef8b869",
      "resource": {
        "resourceType": "Specimen",
        "id": "6eac9d04-e8cd-4342-b043-77c0eef8b869",
        "meta": {
          "profile": [
            "http://hl7.eu/fhir/laboratory/StructureDefinition/Specimen-eu-lab"
          ]
        },
        "collection": {
          "collectedDateTime": "2022-08-03"
        },
        "text": {
          "status": "generated",
          "div": "<div xmlns=\"http://www.w3.org/1999/xhtml\"><table class=\"hl7__eu__lab__report\"><tr><th>Specimen</th><th>Collection Date</th></tr><tr><td>Whole blood specimen (specimen)</td><td><span class=\"nb\">03-Aug-2022</span></td></tr></table></div>"
        },
        "type": {
          "coding": [
            {
              "code": "258580003",
              "system": "http://snomed.info/sct",
              "display": "Whole blood specimen (specimen)"
            }
          ]
        }
      }
    },
    {
      "fullUrl": "urn:uuid:7d06f11f-5cf6-4936-879d-7f9f2cbfb367",
      "resource": {
        "resourceType": "Observation",
        "id": "7d06f11f-5cf6-4936-879d-7f9f2cbfb367",
        "meta": {
          "profile": [
            "http://hl7.eu/fhir/laboratory/StructureDefinition/Observation-resultslab-eu-lab"
          ]
        },
        "performer": [
          {
            "display": "The Central European Lab"
          }
        ],
        "category": [
          {
            "coding": [
              {
                "system": "http://terminology.hl7.org/CodeSystem/observation-category",
                "code": "laboratory"
              }
            ]
          }
        ],
        "code": {
          "coding": [
            {
              "code": "2345-7",
              "system": "http://loinc.org",
              "display": "Glucose [Mass/volume] in Serum or Plasma"
            }
          ],
          "text": "Glucose [Mass/volume] in Serum or Plasma"
        },
        "valueQuantity": {
          "system": "http://unitsofmeasure.org",
          "value": 64.7,
          "unit": "mg/dL",
          "code": "mg/dL"
        },
        "referenceRange": [
          {
            "low": {
              "value": 70,
              "code": "mg/dL",
              "system": "http://unitsofmeasure.org"
            }
          },
          {
            "high": {
              "value": 140,
              "code": "mg/dL",
              "system": "http://unitsofmeasure.org"
            }
          }
        ],
        "interpretation": [
          {
            "coding": [
              {
                "code": "L",
                "system": "http://terminology.hl7.org/CodeSystem/v3-ObservationInterpretation",
                "display": "Low"
              }
            ]
          }
        ],
        "text": {
          "status": "generated",
          "div": "<div xmlns=\"http://www.w3.org/1999/xhtml\"><table class=\"hl7__eu__lab__report\"><tr><th>Test</th><th>03-Aug-2022</th><th>Reference&#xA0;Range</th><th>Unit</th></tr><tr><td>Glucose [Mass/volume] in Serum or Plasma</td><td>64.7</td><td>70 - 140</td><td>L</td><td>mg/dL</td></tr></table></div>"
        },
        "status": "final",
        "subject": {
          "reference": "urn:uuid:0be53f09-a920-4977-b5d0-062f2d35a54b",
          "display": "Θεμιστοκλής Λιναρδάκη"
        },
        "effectiveDateTime": "2022-08-03T06:16:00Z",
        "specimen": {
          "reference": "urn:uuid:39986e9d-6032-4015-8b08-73681c6510f6"
        }
      }
    },
    {
      "fullUrl": "urn:uuid:c1c341d1-5614-46dc-822b-680fdb2594c8",
      "resource": {
        "resourceType": "Observation",
        "id": "c1c341d1-5614-46dc-822b-680fdb2594c8",
        "meta": {
          "profile": [
            "http://hl7.eu/fhir/laboratory/StructureDefinition/Observation-resultslab-eu-lab"
          ]
        },
        "performer": [
          {
            "display": "The Central European Lab"
          }
        ],
        "category": [
          {
            "coding": [
              {
                "system": "http://terminology.hl7.org/CodeSystem/observation-category",
                "code": "laboratory"
              }
            ]
          }
        ],
        "code": {
          "coding": [
            {
              "code": "3094-0",
              "system": "http://loinc.org",
              "display": "Urea nitrogen [Mass/volume] in Serum or Plasma"
            }
          ],
          "text": "Urea nitrogen [Mass/volume] in Serum or Plasma"
        },
        "valueQuantity": {
          "system": "http://unitsofmeasure.org",
          "value": 7.9,
          "unit": "mg/dL",
          "code": "mg/dL"
        },
        "referenceRange": [
          {
            "low": {
              "value": 7,
              "code": "mg/dL",
              "system": "http://unitsofmeasure.org"
            }
          },
          {
            "high": {
              "value": 20,
              "code": "mg/dL",
              "system": "http://unitsofmeasure.org"
            }
          }
        ],
        "text": {
          "status": "generated",
          "div": "<div xmlns=\"http://www.w3.org/1999/xhtml\"><table class=\"hl7__eu__lab__report\"><tr><th>Test</th><th>03-Aug-2022</th><th>Reference&#xA0;Range</th><th>Unit</th></tr><tr><td>Urea nitrogen [Mass/volume] in Serum or Plasma</td><td>7.9</td><td>7 - 20</td><td></td><td>mg/dL</td></tr></table></div>"
        },
        "status": "final",
        "subject": {
          "reference": "urn:uuid:0be53f09-a920-4977-b5d0-062f2d35a54b",
          "display": "Θεμιστοκλής Λιναρδάκη"
        },
        "effectiveDateTime": "2022-08-03T06:16:00Z",
        "specimen": {
          "reference": "urn:uuid:39986e9d-6032-4015-8b08-73681c6510f6"
        }
      }
    },
    {
      "fullUrl": "urn:uuid:3e2a0a65-5a22-48c7-afa4-c898ac72cc1c",
      "resource": {
        "resourceType": "Observation",
        "id": "3e2a0a65-5a22-48c7-afa4-c898ac72cc1c",
        "meta": {
          "profile": [
            "http://hl7.eu/fhir/laboratory/StructureDefinition/Observation-resultslab-eu-lab"
          ]
        },
        "performer": [
          {
            "display": "The Central European Lab"
          }
        ],
        "category": [
          {
            "coding": [
              {
                "system": "http://terminology.hl7.org/CodeSystem/observation-category",
                "code": "laboratory"
              }
            ]
          }
        ],
        "code": {
          "coding": [
            {
              "code": "2160-0",
              "system": "http://loinc.org",
              "display": "Creatinine [Mass/volume] in Serum or Plasma"
            }
          ],
          "text": "Creatinine [Mass/volume] in Serum or Plasma"
        },
        "valueQuantity": {
          "system": "http://unitsofmeasure.org",
          "value": 2.1,
          "unit": "mg/dL",
          "code": "mg/dL"
        },
        "referenceRange": [
          {
            "low": {
              "value": 0.9,
              "code": "mg/dL",
              "system": "http://unitsofmeasure.org"
            }
          },
          {
            "high": {
              "value": 1.3,
              "code": "mg/dL",
              "system": "http://unitsofmeasure.org"
            }
          }
        ],
        "interpretation": [
          {
            "coding": [
              {
                "code": "H",
                "system": "http://terminology.hl7.org/CodeSystem/v3-ObservationInterpretation",
                "display": "High"
              }
            ]
          }
        ],
        "text": {
          "status": "generated",
          "div": "<div xmlns=\"http://www.w3.org/1999/xhtml\"><table class=\"hl7__eu__lab__report\"><tr><th>Test</th><th>03-Aug-2022</th><th>Reference&#xA0;Range</th><th>Unit</th></tr><tr><td>Creatinine [Mass/volume] in Serum or Plasma</td><td>2.1</td><td>0.9 - 1.3</td><td>H</td><td>mg/dL</td></tr></table></div>"
        },
        "status": "final",
        "subject": {
          "reference": "urn:uuid:0be53f09-a920-4977-b5d0-062f2d35a54b",
          "display": "Θεμιστοκλής Λιναρδάκη"
        },
        "effectiveDateTime": "2022-08-03T06:16:00Z",
        "specimen": {
          "reference": "urn:uuid:39986e9d-6032-4015-8b08-73681c6510f6"
        }
      }
    },
    {
      "fullUrl": "urn:uuid:203df6cc-beb3-4172-b2da-4915f8adab96",
      "resource": {
        "resourceType": "Observation",
        "id": "203df6cc-beb3-4172-b2da-4915f8adab96",
        "meta": {
          "profile": [
            "http://hl7.eu/fhir/laboratory/StructureDefinition/Observation-resultslab-eu-lab"
          ]
        },
        "performer": [
          {
            "display": "The Central European Lab"
          }
        ],
        "category": [
          {
            "coding": [
              {
                "system": "http://terminology.hl7.org/CodeSystem/observation-category",
                "code": "laboratory"
              }
            ]
          }
        ],
        "code": {
          "coding": [
            {
              "code": "17861-6",
              "system": "http://loinc.org",
              "display": "Calcium [Mass/volume] in Serum or Plasma"
            }
          ],
          "text": "Calcium [Mass/volume] in Serum or Plasma"
        },
        "valueQuantity": {
          "system": "http://unitsofmeasure.org",
          "value": 10.1,
          "unit": "mg/dL",
          "code": "mg/dL"
        },
        "referenceRange": [
          {
            "low": {
              "value": 8.5,
              "code": "mg/dL",
              "system": "http://unitsofmeasure.org"
            }
          },
          {
            "high": {
              "value": 10.5,
              "code": "mg/dL",
              "system": "http://unitsofmeasure.org"
            }
          }
        ],
        "text": {
          "status": "generated",
          "div": "<div xmlns=\"http://www.w3.org/1999/xhtml\"><table class=\"hl7__eu__lab__report\"><tr><th>Test</th><th>03-Aug-2022</th><th>Reference&#xA0;Range</th><th>Unit</th></tr><tr><td>Calcium [Mass/volume] in Serum or Plasma</td><td>10.1</td><td>8.5 - 10.5</td><td></td><td>mg/dL</td></tr></table></div>"
        },
        "status": "final",
        "subject": {
          "reference": "urn:uuid:0be53f09-a920-4977-b5d0-062f2d35a54b",
          "display": "Θεμιστοκλής Λιναρδάκη"
        },
        "effectiveDateTime": "2022-08-03T06:16:00Z",
        "specimen": {
          "reference": "urn:uuid:39986e9d-6032-4015-8b08-73681c6510f6"
        }
      }
    },
    {
      "fullUrl": "urn:uuid:a24a5559-f2a1-4b8b-a950-3f9fee9c9b8a",
      "resource": {
        "resourceType": "Observation",
        "id": "a24a5559-f2a1-4b8b-a950-3f9fee9c9b8a",
        "meta": {
          "profile": [
            "http://hl7.eu/fhir/laboratory/StructureDefinition/Observation-resultslab-eu-lab"
          ]
        },
        "performer": [
          {
            "display": "The Central European Lab"
          }
        ],
        "category": [
          {
            "coding": [
              {
                "system": "http://terminology.hl7.org/CodeSystem/observation-category",
                "code": "laboratory"
              }
            ]
          }
        ],
        "code": {
          "coding": [
            {
              "code": "2951-2",
              "system": "http://loinc.org",
              "display": "Sodium [Moles/volume] in Serum or Plasma"
            }
          ],
          "text": "Sodium [Moles/volume] in Serum or Plasma"
        },
        "valueQuantity": {
          "system": "http://unitsofmeasure.org",
          "value": 141.4,
          "unit": "mmol/L",
          "code": "mmol/L"
        },
        "referenceRange": [
          {
            "low": {
              "value": 135,
              "code": "mmol/L",
              "system": "http://unitsofmeasure.org"
            }
          },
          {
            "high": {
              "value": 145,
              "code": "mmol/L",
              "system": "http://unitsofmeasure.org"
            }
          }
        ],
        "text": {
          "status": "generated",
          "div": "<div xmlns=\"http://www.w3.org/1999/xhtml\"><table class=\"hl7__eu__lab__report\"><tr><th>Test</th><th>03-Aug-2022</th><th>Reference&#xA0;Range</th><th>Unit</th></tr><tr><td>Sodium [Moles/volume] in Serum or Plasma</td><td>141.4</td><td>135 - 145</td><td></td><td>mmol/L</td></tr></table></div>"
        },
        "status": "final",
        "subject": {
          "reference": "urn:uuid:0be53f09-a920-4977-b5d0-062f2d35a54b",
          "display": "Θεμιστοκλής Λιναρδάκη"
        },
        "effectiveDateTime": "2022-08-03T06:16:00Z",
        "specimen": {
          "reference": "urn:uuid:39986e9d-6032-4015-8b08-73681c6510f6"
        }
      }
    },
    {
      "fullUrl": "urn:uuid:1e9ff953-c4db-4f52-a47d-d91e18ceb90c",
      "resource": {
        "resourceType": "Observation",
        "id": "1e9ff953-c4db-4f52-a47d-d91e18ceb90c",
        "meta": {
          "profile": [
            "http://hl7.eu/fhir/laboratory/StructureDefinition/Observation-resultslab-eu-lab"
          ]
        },
        "performer": [
          {
            "display": "The Central European Lab"
          }
        ],
        "category": [
          {
            "coding": [
              {
                "system": "http://terminology.hl7.org/CodeSystem/observation-category",
                "code": "laboratory"
              }
            ]
          }
        ],
        "code": {
          "coding": [
            {
              "code": "2823-3",
              "system": "http://loinc.org",
              "display": "Potassium [Moles/volume] in Serum or Plasma"
            }
          ],
          "text": "Potassium [Moles/volume] in Serum or Plasma"
        },
        "valueQuantity": {
          "system": "http://unitsofmeasure.org",
          "value": 3.7,
          "unit": "mmol/L",
          "code": "mmol/L"
        },
        "referenceRange": [
          {
            "low": {
              "value": 3.5,
              "code": "mmol/L",
              "system": "http://unitsofmeasure.org"
            }
          },
          {
            "high": {
              "value": 5,
              "code": "mmol/L",
              "system": "http://unitsofmeasure.org"
            }
          }
        ],
        "text": {
          "status": "generated",
          "div": "<div xmlns=\"http://www.w3.org/1999/xhtml\"><table class=\"hl7__eu__lab__report\"><tr><th>Test</th><th>03-Aug-2022</th><th>Reference&#xA0;Range</th><th>Unit</th></tr><tr><td>Potassium [Moles/volume] in Serum or Plasma</td><td>3.7</td><td>3.5 - 5</td><td></td><td>mmol/L</td></tr></table></div>"
        },
        "status": "final",
        "subject": {
          "reference": "urn:uuid:0be53f09-a920-4977-b5d0-062f2d35a54b",
          "display": "Θεμιστοκλής Λιναρδάκη"
        },
        "effectiveDateTime": "2022-08-03T06:16:00Z",
        "specimen": {
          "reference": "urn:uuid:39986e9d-6032-4015-8b08-73681c6510f6"
        }
      }
    },
    {
      "fullUrl": "urn:uuid:d3a1833c-6941-458c-b386-fa33a075b3b3",
      "resource": {
        "resourceType": "Observation",
        "id": "d3a1833c-6941-458c-b386-fa33a075b3b3",
        "meta": {
          "profile": [
            "http://hl7.eu/fhir/laboratory/StructureDefinition/Observation-resultslab-eu-lab"
          ]
        },
        "performer": [
          {
            "display": "The Central European Lab"
          }
        ],
        "category": [
          {
            "coding": [
              {
                "system": "http://terminology.hl7.org/CodeSystem/observation-category",
                "code": "laboratory"
              }
            ]
          }
        ],
        "code": {
          "coding": [
            {
              "code": "2075-0",
              "system": "http://loinc.org",
              "display": "Chloride [Moles/volume] in Serum or Plasma"
            }
          ],
          "text": "Chloride [Moles/volume] in Serum or Plasma"
        },
        "valueQuantity": {
          "system": "http://unitsofmeasure.org",
          "value": 109.3,
          "unit": "mmol/L",
          "code": "mmol/L"
        },
        "referenceRange": [
          {
            "low": {
              "value": 98,
              "code": "mmol/L",
              "system": "http://unitsofmeasure.org"
            }
          },
          {
            "high": {
              "value": 108,
              "code": "mmol/L",
              "system": "http://unitsofmeasure.org"
            }
          }
        ],
        "interpretation": [
          {
            "coding": [
              {
                "code": "H",
                "system": "http://terminology.hl7.org/CodeSystem/v3-ObservationInterpretation",
                "display": "High"
              }
            ]
          }
        ],
        "text": {
          "status": "generated",
          "div": "<div xmlns=\"http://www.w3.org/1999/xhtml\"><table class=\"hl7__eu__lab__report\"><tr><th>Test</th><th>03-Aug-2022</th><th>Reference&#xA0;Range</th><th>Unit</th></tr><tr><td>Chloride [Moles/volume] in Serum or Plasma</td><td>109.3</td><td>98 - 108</td><td>H</td><td>mmol/L</td></tr></table></div>"
        },
        "status": "final",
        "subject": {
          "reference": "urn:uuid:0be53f09-a920-4977-b5d0-062f2d35a54b",
          "display": "Θεμιστοκλής Λιναρδάκη"
        },
        "effectiveDateTime": "2022-08-03T06:16:00Z",
        "specimen": {
          "reference": "urn:uuid:39986e9d-6032-4015-8b08-73681c6510f6"
        }
      }
    },
    {
      "fullUrl": "urn:uuid:d2a809d2-1bc3-45b2-a7d7-70a6ae5e14f8",
      "resource": {
        "resourceType": "Observation",
        "id": "d2a809d2-1bc3-45b2-a7d7-70a6ae5e14f8",
        "meta": {
          "profile": [
            "http://hl7.eu/fhir/laboratory/StructureDefinition/Observation-resultslab-eu-lab"
          ]
        },
        "performer": [
          {
            "display": "The Central European Lab"
          }
        ],
        "category": [
          {
            "coding": [
              {
                "system": "http://terminology.hl7.org/CodeSystem/observation-category",
                "code": "laboratory"
              }
            ]
          }
        ],
        "code": {
          "coding": [
            {
              "code": "2028-9",
              "system": "http://loinc.org",
              "display": "Carbon dioxide, total [Moles/volume] in Serum or Plasma"
            }
          ],
          "text": "Carbon dioxide, total [Moles/volume] in Serum or Plasma"
        },
        "valueQuantity": {
          "system": "http://unitsofmeasure.org",
          "value": 24.3,
          "unit": "mmol/L",
          "code": "mmol/L"
        },
        "referenceRange": [
          {
            "low": {
              "value": 22,
              "code": "mmol/L",
              "system": "http://unitsofmeasure.org"
            }
          },
          {
            "high": {
              "value": 29,
              "code": "mmol/L",
              "system": "http://unitsofmeasure.org"
            }
          }
        ],
        "text": {
          "status": "generated",
          "div": "<div xmlns=\"http://www.w3.org/1999/xhtml\"><table class=\"hl7__eu__lab__report\"><tr><th>Test</th><th>03-Aug-2022</th><th>Reference&#xA0;Range</th><th>Unit</th></tr><tr><td>Carbon dioxide, total [Moles/volume] in Serum or Plasma</td><td>24.3</td><td>22 - 29</td><td></td><td>mmol/L</td></tr></table></div>"
        },
        "status": "final",
        "subject": {
          "reference": "urn:uuid:0be53f09-a920-4977-b5d0-062f2d35a54b",
          "display": "Θεμιστοκλής Λιναρδάκη"
        },
        "effectiveDateTime": "2022-08-03T06:16:00Z",
        "specimen": {
          "reference": "urn:uuid:39986e9d-6032-4015-8b08-73681c6510f6"
        }
      }
    },
    {
      "fullUrl": "urn:uuid:53686138-3fec-4060-9670-72fcb6098bb1",
      "resource": {
        "resourceType": "Observation",
        "id": "53686138-3fec-4060-9670-72fcb6098bb1",
        "meta": {
          "profile": [
            "http://hl7.eu/fhir/laboratory/StructureDefinition/Observation-resultslab-eu-lab"
          ]
        },
        "performer": [
          {
            "display": "The Central European Lab"
          }
        ],
        "category": [
          {
            "coding": [
              {
                "system": "http://terminology.hl7.org/CodeSystem/observation-category",
                "code": "laboratory"
              }
            ]
          }
        ],
        "code": {
          "coding": [
            {
              "code": "5767-9",
              "system": "http://loinc.org",
              "display": "Appearance of Urine"
            }
          ],
          "text": "Appearance of Urine"
        },
        "text": {
          "status": "generated",
          "div": "<div xmlns=\"http://www.w3.org/1999/xhtml\"><table class=\"hl7__eu__lab__report\"><tr><th>Test</th><th>03-Aug-2022</th><th>Reference&#xA0;Range</th><th>Unit</th></tr><tr><td>Appearance of Urine</td></tr></table></div>"
        },
        "status": "final",
        "subject": {
          "reference": "urn:uuid:0be53f09-a920-4977-b5d0-062f2d35a54b",
          "display": "Θεμιστοκλής Λιναρδάκη"
        },
        "effectiveDateTime": "2022-08-03T06:16:00Z",
        "specimen": {
          "reference": "urn:uuid:dba66dfc-b2be-4ad8-92cc-9b6cfd5f9317"
        }
      }
    },
    {
      "fullUrl": "urn:uuid:52e3664d-1335-48e9-8be1-dd449ff52d4f",
      "resource": {
        "resourceType": "Observation",
        "id": "52e3664d-1335-48e9-8be1-dd449ff52d4f",
        "meta": {
          "profile": [
            "http://hl7.eu/fhir/laboratory/StructureDefinition/Observation-resultslab-eu-lab"
          ]
        },
        "performer": [
          {
            "display": "The Central European Lab"
          }
        ],
        "category": [
          {
            "coding": [
              {
                "system": "http://terminology.hl7.org/CodeSystem/observation-category",
                "code": "laboratory"
              }
            ]
          }
        ],
        "code": {
          "coding": [
            {
              "code": "34533-0",
              "system": "http://loinc.org",
              "display": "Odor of Urine"
            }
          ],
          "text": "Odor of Urine"
        },
        "text": {
          "status": "generated",
          "div": "<div xmlns=\"http://www.w3.org/1999/xhtml\"><table class=\"hl7__eu__lab__report\"><tr><th>Test</th><th>03-Aug-2022</th><th>Reference&#xA0;Range</th><th>Unit</th></tr><tr><td>Odor of Urine</td></tr></table></div>"
        },
        "status": "final",
        "subject": {
          "reference": "urn:uuid:0be53f09-a920-4977-b5d0-062f2d35a54b",
          "display": "Θεμιστοκλής Λιναρδάκη"
        },
        "effectiveDateTime": "2022-08-03T06:16:00Z",
        "specimen": {
          "reference": "urn:uuid:dba66dfc-b2be-4ad8-92cc-9b6cfd5f9317"
        }
      }
    },
    {
      "fullUrl": "urn:uuid:4858db4d-4dda-438b-844f-a6aea6a6444d",
      "resource": {
        "resourceType": "Observation",
        "id": "4858db4d-4dda-438b-844f-a6aea6a6444d",
        "meta": {
          "profile": [
            "http://hl7.eu/fhir/laboratory/StructureDefinition/Observation-resultslab-eu-lab"
          ]
        },
        "performer": [
          {
            "display": "The Central European Lab"
          }
        ],
        "category": [
          {
            "coding": [
              {
                "system": "http://terminology.hl7.org/CodeSystem/observation-category",
                "code": "laboratory"
              }
            ]
          }
        ],
        "code": {
          "coding": [
            {
              "code": "32167-9",
              "system": "http://loinc.org",
              "display": "Clarity of Urine"
            }
          ],
          "text": "Clarity of Urine"
        },
        "text": {
          "status": "generated",
          "div": "<div xmlns=\"http://www.w3.org/1999/xhtml\"><table class=\"hl7__eu__lab__report\"><tr><th>Test</th><th>03-Aug-2022</th><th>Reference&#xA0;Range</th><th>Unit</th></tr><tr><td>Clarity of Urine</td></tr></table></div>"
        },
        "status": "final",
        "subject": {
          "reference": "urn:uuid:0be53f09-a920-4977-b5d0-062f2d35a54b",
          "display": "Θεμιστοκλής Λιναρδάκη"
        },
        "effectiveDateTime": "2022-08-03T06:16:00Z",
        "specimen": {
          "reference": "urn:uuid:dba66dfc-b2be-4ad8-92cc-9b6cfd5f9317"
        }
      }
    },
    {
      "fullUrl": "urn:uuid:97d5f4de-e996-4c4c-9729-ef205b3cd5aa",
      "resource": {
        "resourceType": "Observation",
        "id": "97d5f4de-e996-4c4c-9729-ef205b3cd5aa",
        "meta": {
          "profile": [
            "http://hl7.eu/fhir/laboratory/StructureDefinition/Observation-resultslab-eu-lab"
          ]
        },
        "performer": [
          {
            "display": "The Central European Lab"
          }
        ],
        "category": [
          {
            "coding": [
              {
                "system": "http://terminology.hl7.org/CodeSystem/observation-category",
                "code": "laboratory"
              }
            ]
          }
        ],
        "code": {
          "coding": [
            {
              "code": "5778-6",
              "system": "http://loinc.org",
              "display": "Color of Urine"
            }
          ],
          "text": "Color of Urine"
        },
        "text": {
          "status": "generated",
          "div": "<div xmlns=\"http://www.w3.org/1999/xhtml\"><table class=\"hl7__eu__lab__report\"><tr><th>Test</th><th>03-Aug-2022</th><th>Reference&#xA0;Range</th><th>Unit</th></tr><tr><td>Color of Urine</td></tr></table></div>"
        },
        "status": "final",
        "subject": {
          "reference": "urn:uuid:0be53f09-a920-4977-b5d0-062f2d35a54b",
          "display": "Θεμιστοκλής Λιναρδάκη"
        },
        "effectiveDateTime": "2022-08-03T06:16:00Z",
        "specimen": {
          "reference": "urn:uuid:dba66dfc-b2be-4ad8-92cc-9b6cfd5f9317"
        }
      }
    },
    {
      "fullUrl": "urn:uuid:a7ac836d-7598-4347-a9d7-b44b9e71c776",
      "resource": {
        "resourceType": "Observation",
        "id": "a7ac836d-7598-4347-a9d7-b44b9e71c776",
        "meta": {
          "profile": [
            "http://hl7.eu/fhir/laboratory/StructureDefinition/Observation-resultslab-eu-lab"
          ]
        },
        "performer": [
          {
            "display": "The Central European Lab"
          }
        ],
        "category": [
          {
            "coding": [
              {
                "system": "http://terminology.hl7.org/CodeSystem/observation-category",
                "code": "laboratory"
              }
            ]
          }
        ],
        "code": {
          "coding": [
            {
              "code": "5792-7",
              "system": "http://loinc.org",
              "display": "Glucose [Mass/volume] in Urine by Test strip"
            }
          ],
          "text": "Glucose [Mass/volume] in Urine by Test strip"
        },
        "valueQuantity": {
          "system": "http://unitsofmeasure.org",
          "value": 1.5,
          "unit": "mg/dL",
          "code": "mg/dL"
        },
        "referenceRange": [
          {
            "low": {
              "value": 0,
              "code": "mg/dL",
              "system": "http://unitsofmeasure.org"
            }
          },
          {
            "high": {
              "value": 0.8,
              "code": "mg/dL",
              "system": "http://unitsofmeasure.org"
            }
          }
        ],
        "interpretation": [
          {
            "coding": [
              {
                "code": "H",
                "system": "http://terminology.hl7.org/CodeSystem/v3-ObservationInterpretation",
                "display": "High"
              }
            ]
          }
        ],
        "text": {
          "status": "generated",
          "div": "<div xmlns=\"http://www.w3.org/1999/xhtml\"><table class=\"hl7__eu__lab__report\"><tr><th>Test</th><th>03-Aug-2022</th><th>Reference&#xA0;Range</th><th>Unit</th></tr><tr><td>Glucose [Mass/volume] in Urine by Test strip</td><td>1.5</td><td>0 - 0.8</td><td>H</td><td>mg/dL</td></tr></table></div>"
        },
        "status": "final",
        "subject": {
          "reference": "urn:uuid:0be53f09-a920-4977-b5d0-062f2d35a54b",
          "display": "Θεμιστοκλής Λιναρδάκη"
        },
        "effectiveDateTime": "2022-08-03T06:16:00Z",
        "specimen": {
          "reference": "urn:uuid:dba66dfc-b2be-4ad8-92cc-9b6cfd5f9317"
        }
      }
    },
    {
      "fullUrl": "urn:uuid:4657decc-6aae-4a3f-a3cc-33aa73da05ad",
      "resource": {
        "resourceType": "Observation",
        "id": "4657decc-6aae-4a3f-a3cc-33aa73da05ad",
        "meta": {
          "profile": [
            "http://hl7.eu/fhir/laboratory/StructureDefinition/Observation-resultslab-eu-lab"
          ]
        },
        "performer": [
          {
            "display": "The Central European Lab"
          }
        ],
        "category": [
          {
            "coding": [
              {
                "system": "http://terminology.hl7.org/CodeSystem/observation-category",
                "code": "laboratory"
              }
            ]
          }
        ],
        "code": {
          "coding": [
            {
              "code": "25428-4",
              "system": "http://loinc.org",
              "display": "Glucose [Presence] in Urine by Test strip"
            }
          ],
          "text": "Glucose [Presence] in Urine by Test strip"
        },
        "text": {
          "status": "generated",
          "div": "<div xmlns=\"http://www.w3.org/1999/xhtml\"><table class=\"hl7__eu__lab__report\"><tr><th>Test</th><th>03-Aug-2022</th><th>Reference&#xA0;Range</th><th>Unit</th></tr><tr><td>Glucose [Presence] in Urine by Test strip</td></tr></table></div>"
        },
        "status": "final",
        "subject": {
          "reference": "urn:uuid:0be53f09-a920-4977-b5d0-062f2d35a54b",
          "display": "Θεμιστοκλής Λιναρδάκη"
        },
        "effectiveDateTime": "2022-08-03T06:16:00Z",
        "specimen": {
          "reference": "urn:uuid:dba66dfc-b2be-4ad8-92cc-9b6cfd5f9317"
        }
      }
    },
    {
      "fullUrl": "urn:uuid:484c7d74-b3e7-4bb9-9c0c-92f60dc0bed2",
      "resource": {
        "resourceType": "Observation",
        "id": "484c7d74-b3e7-4bb9-9c0c-92f60dc0bed2",
        "meta": {
          "profile": [
            "http://hl7.eu/fhir/laboratory/StructureDefinition/Observation-resultslab-eu-lab"
          ]
        },
        "performer": [
          {
            "display": "The Central European Lab"
          }
        ],
        "category": [
          {
            "coding": [
              {
                "system": "http://terminology.hl7.org/CodeSystem/observation-category",
                "code": "laboratory"
              }
            ]
          }
        ],
        "code": {
          "coding": [
            {
              "code": "20505-4",
              "system": "http://loinc.org",
              "display": "Bilirubin.total [Mass/volume] in Urine by Test strip"
            }
          ],
          "text": "Bilirubin.total [Mass/volume] in Urine by Test strip"
        },
        "valueQuantity": {
          "system": "http://unitsofmeasure.org",
          "value": 1.4,
          "unit": "mg/dL",
          "code": "mg/dL"
        },
        "referenceRange": [
          {
            "low": {
              "value": 0.2,
              "code": "mg/dL",
              "system": "http://unitsofmeasure.org"
            }
          },
          {
            "high": {
              "value": 1,
              "code": "mg/dL",
              "system": "http://unitsofmeasure.org"
            }
          }
        ],
        "interpretation": [
          {
            "coding": [
              {
                "code": "H",
                "system": "http://terminology.hl7.org/CodeSystem/v3-ObservationInterpretation",
                "display": "High"
              }
            ]
          }
        ],
        "text": {
          "status": "generated",
          "div": "<div xmlns=\"http://www.w3.org/1999/xhtml\"><table class=\"hl7__eu__lab__report\"><tr><th>Test</th><th>03-Aug-2022</th><th>Reference&#xA0;Range</th><th>Unit</th></tr><tr><td>Bilirubin.total [Mass/volume] in Urine by Test strip</td><td>1.4</td><td>0.2 - 1</td><td>H</td><td>mg/dL</td></tr></table></div>"
        },
        "status": "final",
        "subject": {
          "reference": "urn:uuid:0be53f09-a920-4977-b5d0-062f2d35a54b",
          "display": "Θεμιστοκλής Λιναρδάκη"
        },
        "effectiveDateTime": "2022-08-03T06:16:00Z",
        "specimen": {
          "reference": "urn:uuid:dba66dfc-b2be-4ad8-92cc-9b6cfd5f9317"
        }
      }
    },
    {
      "fullUrl": "urn:uuid:0e1fb188-0995-4ee7-87bd-6896a884451b",
      "resource": {
        "resourceType": "Observation",
        "id": "0e1fb188-0995-4ee7-87bd-6896a884451b",
        "meta": {
          "profile": [
            "http://hl7.eu/fhir/laboratory/StructureDefinition/Observation-resultslab-eu-lab"
          ]
        },
        "performer": [
          {
            "display": "The Central European Lab"
          }
        ],
        "category": [
          {
            "coding": [
              {
                "system": "http://terminology.hl7.org/CodeSystem/observation-category",
                "code": "laboratory"
              }
            ]
          }
        ],
        "code": {
          "coding": [
            {
              "code": "5770-3",
              "system": "http://loinc.org",
              "display": "Bilirubin.total [Presence] in Urine by Test strip"
            }
          ],
          "text": "Bilirubin.total [Presence] in Urine by Test strip"
        },
        "text": {
          "status": "generated",
          "div": "<div xmlns=\"http://www.w3.org/1999/xhtml\"><table class=\"hl7__eu__lab__report\"><tr><th>Test</th><th>03-Aug-2022</th><th>Reference&#xA0;Range</th><th>Unit</th></tr><tr><td>Bilirubin.total [Presence] in Urine by Test strip</td></tr></table></div>"
        },
        "status": "final",
        "subject": {
          "reference": "urn:uuid:0be53f09-a920-4977-b5d0-062f2d35a54b",
          "display": "Θεμιστοκλής Λιναρδάκη"
        },
        "effectiveDateTime": "2022-08-03T06:16:00Z",
        "specimen": {
          "reference": "urn:uuid:dba66dfc-b2be-4ad8-92cc-9b6cfd5f9317"
        }
      }
    },
    {
      "fullUrl": "urn:uuid:ecc15506-845c-4815-9a90-e889fefe8583",
      "resource": {
        "resourceType": "Observation",
        "id": "ecc15506-845c-4815-9a90-e889fefe8583",
        "meta": {
          "profile": [
            "http://hl7.eu/fhir/laboratory/StructureDefinition/Observation-resultslab-eu-lab"
          ]
        },
        "performer": [
          {
            "display": "The Central European Lab"
          }
        ],
        "category": [
          {
            "coding": [
              {
                "system": "http://terminology.hl7.org/CodeSystem/observation-category",
                "code": "laboratory"
              }
            ]
          }
        ],
        "code": {
          "coding": [
            {
              "code": "5797-6",
              "system": "http://loinc.org",
              "display": "Ketones [Mass/volume] in Urine by Test strip"
            }
          ],
          "text": "Ketones [Mass/volume] in Urine by Test strip"
        },
        "valueQuantity": {
          "system": "http://unitsofmeasure.org",
          "value": 16.4,
          "unit": "mg/dL",
          "code": "mg/dL"
        },
        "referenceRange": [
          {
            "low": {
              "value": 0,
              "code": "mg/dL",
              "system": "http://unitsofmeasure.org"
            }
          },
          {
            "high": {
              "value": 5,
              "code": "mg/dL",
              "system": "http://unitsofmeasure.org"
            }
          }
        ],
        "interpretation": [
          {
            "coding": [
              {
                "code": "H",
                "system": "http://terminology.hl7.org/CodeSystem/v3-ObservationInterpretation",
                "display": "High"
              }
            ]
          }
        ],
        "text": {
          "status": "generated",
          "div": "<div xmlns=\"http://www.w3.org/1999/xhtml\"><table class=\"hl7__eu__lab__report\"><tr><th>Test</th><th>03-Aug-2022</th><th>Reference&#xA0;Range</th><th>Unit</th></tr><tr><td>Ketones [Mass/volume] in Urine by Test strip</td><td>16.4</td><td>0 - 5</td><td>H</td><td>mg/dL</td></tr></table></div>"
        },
        "status": "final",
        "subject": {
          "reference": "urn:uuid:0be53f09-a920-4977-b5d0-062f2d35a54b",
          "display": "Θεμιστοκλής Λιναρδάκη"
        },
        "effectiveDateTime": "2022-08-03T06:16:00Z",
        "specimen": {
          "reference": "urn:uuid:dba66dfc-b2be-4ad8-92cc-9b6cfd5f9317"
        }
      }
    },
    {
      "fullUrl": "urn:uuid:98db6521-1a31-4c44-9012-fd216d1b2018",
      "resource": {
        "resourceType": "Observation",
        "id": "98db6521-1a31-4c44-9012-fd216d1b2018",
        "meta": {
          "profile": [
            "http://hl7.eu/fhir/laboratory/StructureDefinition/Observation-resultslab-eu-lab"
          ]
        },
        "performer": [
          {
            "display": "The Central European Lab"
          }
        ],
        "category": [
          {
            "coding": [
              {
                "system": "http://terminology.hl7.org/CodeSystem/observation-category",
                "code": "laboratory"
              }
            ]
          }
        ],
        "code": {
          "coding": [
            {
              "code": "2514-8",
              "system": "http://loinc.org",
              "display": "Ketones [Presence] in Urine by Test strip"
            }
          ],
          "text": "Ketones [Presence] in Urine by Test strip"
        },
        "text": {
          "status": "generated",
          "div": "<div xmlns=\"http://www.w3.org/1999/xhtml\"><table class=\"hl7__eu__lab__report\"><tr><th>Test</th><th>03-Aug-2022</th><th>Reference&#xA0;Range</th><th>Unit</th></tr><tr><td>Ketones [Presence] in Urine by Test strip</td></tr></table></div>"
        },
        "status": "final",
        "subject": {
          "reference": "urn:uuid:0be53f09-a920-4977-b5d0-062f2d35a54b",
          "display": "Θεμιστοκλής Λιναρδάκη"
        },
        "effectiveDateTime": "2022-08-03T06:16:00Z",
        "specimen": {
          "reference": "urn:uuid:dba66dfc-b2be-4ad8-92cc-9b6cfd5f9317"
        }
      }
    },
    {
      "fullUrl": "urn:uuid:9cf92919-828a-4137-bde7-77de5e42967e",
      "resource": {
        "resourceType": "Observation",
        "id": "9cf92919-828a-4137-bde7-77de5e42967e",
        "meta": {
          "profile": [
            "http://hl7.eu/fhir/laboratory/StructureDefinition/Observation-resultslab-eu-lab"
          ]
        },
        "performer": [
          {
            "display": "The Central European Lab"
          }
        ],
        "category": [
          {
            "coding": [
              {
                "system": "http://terminology.hl7.org/CodeSystem/observation-category",
                "code": "laboratory"
              }
            ]
          }
        ],
        "code": {
          "coding": [
            {
              "code": "5811-5",
              "system": "http://loinc.org",
              "display": "Specific gravity of Urine by Test strip"
            }
          ],
          "text": "Specific gravity of Urine by Test strip"
        },
        "valueQuantity": {
          "system": "http://unitsofmeasure.org",
          "value": 1,
          "unit": "{nominal}",
          "code": "{nominal}"
        },
        "referenceRange": [
          {
            "low": {
              "value": 1.005,
              "code": "g/mL",
              "system": "http://unitsofmeasure.org"
            }
          },
          {
            "high": {
              "value": 1.03,
              "code": "g/mL",
              "system": "http://unitsofmeasure.org"
            }
          }
        ],
        "interpretation": [
          {
            "coding": [
              {
                "code": "L",
                "system": "http://terminology.hl7.org/CodeSystem/v3-ObservationInterpretation",
                "display": "Low"
              }
            ]
          }
        ],
        "text": {
          "status": "generated",
          "div": "<div xmlns=\"http://www.w3.org/1999/xhtml\"><table class=\"hl7__eu__lab__report\"><tr><th>Test</th><th>03-Aug-2022</th><th>Reference&#xA0;Range</th><th>Unit</th></tr><tr><td>Specific gravity of Urine by Test strip</td><td>1.0</td><td>1.005 - 1.03</td><td>L</td><td>{nominal}</td></tr></table></div>"
        },
        "status": "final",
        "subject": {
          "reference": "urn:uuid:0be53f09-a920-4977-b5d0-062f2d35a54b",
          "display": "Θεμιστοκλής Λιναρδάκη"
        },
        "effectiveDateTime": "2022-08-03T06:16:00Z",
        "specimen": {
          "reference": "urn:uuid:dba66dfc-b2be-4ad8-92cc-9b6cfd5f9317"
        }
      }
    },
    {
      "fullUrl": "urn:uuid:dd5ec99a-fa4b-47ca-8dfb-26c71213a7c9",
      "resource": {
        "resourceType": "Observation",
        "id": "dd5ec99a-fa4b-47ca-8dfb-26c71213a7c9",
        "meta": {
          "profile": [
            "http://hl7.eu/fhir/laboratory/StructureDefinition/Observation-resultslab-eu-lab"
          ]
        },
        "performer": [
          {
            "display": "The Central European Lab"
          }
        ],
        "category": [
          {
            "coding": [
              {
                "system": "http://terminology.hl7.org/CodeSystem/observation-category",
                "code": "laboratory"
              }
            ]
          }
        ],
        "code": {
          "coding": [
            {
              "code": "5803-2",
              "system": "http://loinc.org",
              "display": "pH of Urine by Test strip"
            }
          ],
          "text": "pH of Urine by Test strip"
        },
        "valueQuantity": {
          "system": "http://unitsofmeasure.org",
          "value": 6,
          "unit": "pH",
          "code": "pH"
        },
        "referenceRange": [
          {
            "low": {
              "value": 4.6,
              "code": "pH",
              "system": "http://unitsofmeasure.org"
            }
          },
          {
            "high": {
              "value": 7,
              "code": "pH",
              "system": "http://unitsofmeasure.org"
            }
          }
        ],
        "text": {
          "status": "generated",
          "div": "<div xmlns=\"http://www.w3.org/1999/xhtml\"><table class=\"hl7__eu__lab__report\"><tr><th>Test</th><th>03-Aug-2022</th><th>Reference&#xA0;Range</th><th>Unit</th></tr><tr><td>pH of Urine by Test strip</td><td>6.0</td><td>4.6 - 7</td><td></td><td>pH</td></tr></table></div>"
        },
        "status": "final",
        "subject": {
          "reference": "urn:uuid:0be53f09-a920-4977-b5d0-062f2d35a54b",
          "display": "Θεμιστοκλής Λιναρδάκη"
        },
        "effectiveDateTime": "2022-08-03T06:16:00Z",
        "specimen": {
          "reference": "urn:uuid:dba66dfc-b2be-4ad8-92cc-9b6cfd5f9317"
        }
      }
    },
    {
      "fullUrl": "urn:uuid:33f747b5-1cdc-4082-ae17-27e51bea16e3",
      "resource": {
        "resourceType": "Observation",
        "id": "33f747b5-1cdc-4082-ae17-27e51bea16e3",
        "meta": {
          "profile": [
            "http://hl7.eu/fhir/laboratory/StructureDefinition/Observation-resultslab-eu-lab"
          ]
        },
        "performer": [
          {
            "display": "The Central European Lab"
          }
        ],
        "category": [
          {
            "coding": [
              {
                "system": "http://terminology.hl7.org/CodeSystem/observation-category",
                "code": "laboratory"
              }
            ]
          }
        ],
        "code": {
          "coding": [
            {
              "code": "5804-0",
              "system": "http://loinc.org",
              "display": "Protein [Mass/volume] in Urine by Test strip"
            }
          ],
          "text": "Protein [Mass/volume] in Urine by Test strip"
        },
        "valueQuantity": {
          "system": "http://unitsofmeasure.org",
          "value": 260.9,
          "unit": "mg/dL",
          "code": "mg/dL"
        },
        "referenceRange": [
          {
            "low": {
              "value": 0,
              "code": "mg/dL",
              "system": "http://unitsofmeasure.org"
            }
          },
          {
            "high": {
              "value": 150,
              "code": "mg/dL",
              "system": "http://unitsofmeasure.org"
            }
          }
        ],
        "interpretation": [
          {
            "coding": [
              {
                "code": "H",
                "system": "http://terminology.hl7.org/CodeSystem/v3-ObservationInterpretation",
                "display": "High"
              }
            ]
          }
        ],
        "text": {
          "status": "generated",
          "div": "<div xmlns=\"http://www.w3.org/1999/xhtml\"><table class=\"hl7__eu__lab__report\"><tr><th>Test</th><th>03-Aug-2022</th><th>Reference&#xA0;Range</th><th>Unit</th></tr><tr><td>Protein [Mass/volume] in Urine by Test strip</td><td>260.9</td><td>0 - 150</td><td>H</td><td>mg/dL</td></tr></table></div>"
        },
        "status": "final",
        "subject": {
          "reference": "urn:uuid:0be53f09-a920-4977-b5d0-062f2d35a54b",
          "display": "Θεμιστοκλής Λιναρδάκη"
        },
        "effectiveDateTime": "2022-08-03T06:16:00Z",
        "specimen": {
          "reference": "urn:uuid:dba66dfc-b2be-4ad8-92cc-9b6cfd5f9317"
        }
      }
    },
    {
      "fullUrl": "urn:uuid:4669876c-a809-41ad-964b-2589f1fc2822",
      "resource": {
        "resourceType": "Observation",
        "id": "4669876c-a809-41ad-964b-2589f1fc2822",
        "meta": {
          "profile": [
            "http://hl7.eu/fhir/laboratory/StructureDefinition/Observation-resultslab-eu-lab"
          ]
        },
        "performer": [
          {
            "display": "The Central European Lab"
          }
        ],
        "category": [
          {
            "coding": [
              {
                "system": "http://terminology.hl7.org/CodeSystem/observation-category",
                "code": "laboratory"
              }
            ]
          }
        ],
        "code": {
          "coding": [
            {
              "code": "20454-5",
              "system": "http://loinc.org",
              "display": "Protein [Presence] in Urine by Test strip"
            }
          ],
          "text": "Protein [Presence] in Urine by Test strip"
        },
        "text": {
          "status": "generated",
          "div": "<div xmlns=\"http://www.w3.org/1999/xhtml\"><table class=\"hl7__eu__lab__report\"><tr><th>Test</th><th>03-Aug-2022</th><th>Reference&#xA0;Range</th><th>Unit</th></tr><tr><td>Protein [Presence] in Urine by Test strip</td></tr></table></div>"
        },
        "status": "final",
        "subject": {
          "reference": "urn:uuid:0be53f09-a920-4977-b5d0-062f2d35a54b",
          "display": "Θεμιστοκλής Λιναρδάκη"
        },
        "effectiveDateTime": "2022-08-03T06:16:00Z",
        "specimen": {
          "reference": "urn:uuid:dba66dfc-b2be-4ad8-92cc-9b6cfd5f9317"
        }
      }
    },
    {
      "fullUrl": "urn:uuid:dfd4b1d5-b417-4ef8-9cb7-1892918312b3",
      "resource": {
        "resourceType": "Observation",
        "id": "dfd4b1d5-b417-4ef8-9cb7-1892918312b3",
        "meta": {
          "profile": [
            "http://hl7.eu/fhir/laboratory/StructureDefinition/Observation-resultslab-eu-lab"
          ]
        },
        "performer": [
          {
            "display": "The Central European Lab"
          }
        ],
        "category": [
          {
            "coding": [
              {
                "system": "http://terminology.hl7.org/CodeSystem/observation-category",
                "code": "laboratory"
              }
            ]
          }
        ],
        "code": {
          "coding": [
            {
              "code": "5802-4",
              "system": "http://loinc.org",
              "display": "Nitrite [Presence] in Urine by Test strip"
            }
          ],
          "text": "Nitrite [Presence] in Urine by Test strip"
        },
        "text": {
          "status": "generated",
          "div": "<div xmlns=\"http://www.w3.org/1999/xhtml\"><table class=\"hl7__eu__lab__report\"><tr><th>Test</th><th>03-Aug-2022</th><th>Reference&#xA0;Range</th><th>Unit</th></tr><tr><td>Nitrite [Presence] in Urine by Test strip</td></tr></table></div>"
        },
        "status": "final",
        "subject": {
          "reference": "urn:uuid:0be53f09-a920-4977-b5d0-062f2d35a54b",
          "display": "Θεμιστοκλής Λιναρδάκη"
        },
        "effectiveDateTime": "2022-08-03T06:16:00Z",
        "specimen": {
          "reference": "urn:uuid:dba66dfc-b2be-4ad8-92cc-9b6cfd5f9317"
        }
      }
    },
    {
      "fullUrl": "urn:uuid:e8c60b1c-c626-47c0-b9bf-4c51625bbda7",
      "resource": {
        "resourceType": "Observation",
        "id": "e8c60b1c-c626-47c0-b9bf-4c51625bbda7",
        "meta": {
          "profile": [
            "http://hl7.eu/fhir/laboratory/StructureDefinition/Observation-resultslab-eu-lab"
          ]
        },
        "performer": [
          {
            "display": "The Central European Lab"
          }
        ],
        "category": [
          {
            "coding": [
              {
                "system": "http://terminology.hl7.org/CodeSystem/observation-category",
                "code": "laboratory"
              }
            ]
          }
        ],
        "code": {
          "coding": [
            {
              "code": "5794-3",
              "system": "http://loinc.org",
              "display": "Hemoglobin [Presence] in Urine by Test strip"
            }
          ],
          "text": "Hemoglobin [Presence] in Urine by Test strip"
        },
        "text": {
          "status": "generated",
          "div": "<div xmlns=\"http://www.w3.org/1999/xhtml\"><table class=\"hl7__eu__lab__report\"><tr><th>Test</th><th>03-Aug-2022</th><th>Reference&#xA0;Range</th><th>Unit</th></tr><tr><td>Hemoglobin [Presence] in Urine by Test strip</td></tr></table></div>"
        },
        "status": "final",
        "subject": {
          "reference": "urn:uuid:0be53f09-a920-4977-b5d0-062f2d35a54b",
          "display": "Θεμιστοκλής Λιναρδάκη"
        },
        "effectiveDateTime": "2022-08-03T06:16:00Z",
        "specimen": {
          "reference": "urn:uuid:dba66dfc-b2be-4ad8-92cc-9b6cfd5f9317"
        }
      }
    },
    {
      "fullUrl": "urn:uuid:b470eec1-537d-424a-89bb-71b4768cc47d",
      "resource": {
        "resourceType": "Observation",
        "id": "b470eec1-537d-424a-89bb-71b4768cc47d",
        "meta": {
          "profile": [
            "http://hl7.eu/fhir/laboratory/StructureDefinition/Observation-resultslab-eu-lab"
          ]
        },
        "performer": [
          {
            "display": "The Central European Lab"
          }
        ],
        "category": [
          {
            "coding": [
              {
                "system": "http://terminology.hl7.org/CodeSystem/observation-category",
                "code": "laboratory"
              }
            ]
          }
        ],
        "code": {
          "coding": [
            {
              "code": "5799-2",
              "system": "http://loinc.org",
              "display": "Leukocyte esterase [Presence] in Urine by Test strip"
            }
          ],
          "text": "Leukocyte esterase [Presence] in Urine by Test strip"
        },
        "text": {
          "status": "generated",
          "div": "<div xmlns=\"http://www.w3.org/1999/xhtml\"><table class=\"hl7__eu__lab__report\"><tr><th>Test</th><th>03-Aug-2022</th><th>Reference&#xA0;Range</th><th>Unit</th></tr><tr><td>Leukocyte esterase [Presence] in Urine by Test strip</td></tr></table></div>"
        },
        "status": "final",
        "subject": {
          "reference": "urn:uuid:0be53f09-a920-4977-b5d0-062f2d35a54b",
          "display": "Θεμιστοκλής Λιναρδάκη"
        },
        "effectiveDateTime": "2022-08-03T06:16:00Z",
        "specimen": {
          "reference": "urn:uuid:dba66dfc-b2be-4ad8-92cc-9b6cfd5f9317"
        }
      }
    },
    {
      "fullUrl": "urn:uuid:83020606-3a9f-4698-a156-9c64f2370114",
      "resource": {
        "resourceType": "Observation",
        "id": "83020606-3a9f-4698-a156-9c64f2370114",
        "meta": {
          "profile": [
            "http://hl7.eu/fhir/laboratory/StructureDefinition/Observation-resultslab-eu-lab"
          ]
        },
        "performer": [
          {
            "display": "The Central European Lab"
          }
        ],
        "category": [
          {
            "coding": [
              {
                "system": "http://terminology.hl7.org/CodeSystem/observation-category",
                "code": "laboratory"
              }
            ]
          }
        ],
        "code": {
          "coding": [
            {
              "code": "4548-4",
              "system": "http://loinc.org",
              "display": "Hemoglobin A1c/Hemoglobin.total in Blood"
            }
          ],
          "text": "Hemoglobin A1c/Hemoglobin.total in Blood"
        },
        "valueQuantity": {
          "system": "http://unitsofmeasure.org",
          "value": 3.3,
          "unit": "%",
          "code": "%"
        },
        "referenceRange": [
          {
            "low": {
              "value": 4.3,
              "code": "%",
              "system": "http://unitsofmeasure.org"
            }
          },
          {
            "high": {
              "value": 6.4,
              "code": "%",
              "system": "http://unitsofmeasure.org"
            }
          }
        ],
        "interpretation": [
          {
            "coding": [
              {
                "code": "L",
                "system": "http://terminology.hl7.org/CodeSystem/v3-ObservationInterpretation",
                "display": "Low"
              }
            ]
          }
        ],
        "text": {
          "status": "generated",
          "div": "<div xmlns=\"http://www.w3.org/1999/xhtml\"><table class=\"hl7__eu__lab__report\"><tr><th>Test</th><th>03-Aug-2022</th><th>Reference&#xA0;Range</th><th>Unit</th></tr><tr><td>Hemoglobin A1c/Hemoglobin.total in Blood</td><td>3.3</td><td>4.3 - 6.4</td><td>L</td><td>%</td></tr></table></div>"
        },
        "status": "final",
        "subject": {
          "reference": "urn:uuid:0be53f09-a920-4977-b5d0-062f2d35a54b",
          "display": "Θεμιστοκλής Λιναρδάκη"
        },
        "effectiveDateTime": "2022-08-03T06:16:00Z",
        "specimen": {
          "reference": "urn:uuid:6eac9d04-e8cd-4342-b043-77c0eef8b869"
        }
      }
    },
    {
      "fullUrl": "urn:uuid:540de152-b93b-403e-9d86-74f7e97f4f2a",
      "resource": {
        "resourceType": "Observation",
        "id": "540de152-b93b-403e-9d86-74f7e97f4f2a",
        "meta": {
          "profile": [
            "http://hl7.eu/fhir/laboratory/StructureDefinition/Observation-resultslab-eu-lab"
          ]
        },
        "performer": [
          {
            "display": "The Central European Lab"
          }
        ],
        "category": [
          {
            "coding": [
              {
                "system": "http://terminology.hl7.org/CodeSystem/observation-category",
                "code": "laboratory"
              }
            ]
          }
        ],
        "code": {
          "coding": [
            {
              "code": "2339-0",
              "system": "http://loinc.org",
              "display": "Glucose [Mass/volume] in Blood"
            }
          ],
          "text": "Glucose [Mass/volume] in Blood"
        },
        "valueQuantity": {
          "system": "http://unitsofmeasure.org",
          "value": 64.7,
          "unit": "mg/dL",
          "code": "mg/dL"
        },
        "referenceRange": [
          {
            "low": {
              "value": 70,
              "code": "mg/dL",
              "system": "http://unitsofmeasure.org"
            }
          },
          {
            "high": {
              "value": 140,
              "code": "mg/dL",
              "system": "http://unitsofmeasure.org"
            }
          }
        ],
        "interpretation": [
          {
            "coding": [
              {
                "code": "L",
                "system": "http://terminology.hl7.org/CodeSystem/v3-ObservationInterpretation",
                "display": "Low"
              }
            ]
          }
        ],
        "text": {
          "status": "generated",
          "div": "<div xmlns=\"http://www.w3.org/1999/xhtml\"><table class=\"hl7__eu__lab__report\"><tr><th>Test</th><th>03-Aug-2022</th><th>Reference&#xA0;Range</th><th>Unit</th></tr><tr><td>Glucose [Mass/volume] in Blood</td><td>64.7</td><td>70 - 140</td><td>L</td><td>mg/dL</td></tr></table></div>"
        },
        "status": "final",
        "subject": {
          "reference": "urn:uuid:0be53f09-a920-4977-b5d0-062f2d35a54b",
          "display": "Θεμιστοκλής Λιναρδάκη"
        },
        "effectiveDateTime": "2022-08-03T06:16:00Z",
        "specimen": {
          "reference": "urn:uuid:6eac9d04-e8cd-4342-b043-77c0eef8b869"
        }
      }
    },
    {
      "fullUrl": "urn:uuid:55169a61-bfb2-49a5-9fe8-eb7cc5369218",
      "resource": {
        "resourceType": "Observation",
        "id": "55169a61-bfb2-49a5-9fe8-eb7cc5369218",
        "meta": {
          "profile": [
            "http://hl7.eu/fhir/laboratory/StructureDefinition/Observation-resultslab-eu-lab"
          ]
        },
        "performer": [
          {
            "display": "The Central European Lab"
          }
        ],
        "category": [
          {
            "coding": [
              {
                "system": "http://terminology.hl7.org/CodeSystem/observation-category",
                "code": "laboratory"
              }
            ]
          }
        ],
        "code": {
          "coding": [
            {
              "code": "6299-2",
              "system": "http://loinc.org",
              "display": "Urea nitrogen [Mass/volume] in Blood"
            }
          ],
          "text": "Urea nitrogen [Mass/volume] in Blood"
        },
        "valueQuantity": {
          "system": "http://unitsofmeasure.org",
          "value": 7.9,
          "unit": "mg/dL",
          "code": "mg/dL"
        },
        "referenceRange": [
          {
            "low": {
              "value": 7,
              "code": "mg/dL",
              "system": "http://unitsofmeasure.org"
            }
          },
          {
            "high": {
              "value": 20,
              "code": "mg/dL",
              "system": "http://unitsofmeasure.org"
            }
          }
        ],
        "text": {
          "status": "generated",
          "div": "<div xmlns=\"http://www.w3.org/1999/xhtml\"><table class=\"hl7__eu__lab__report\"><tr><th>Test</th><th>03-Aug-2022</th><th>Reference&#xA0;Range</th><th>Unit</th></tr><tr><td>Urea nitrogen [Mass/volume] in Blood</td><td>7.9</td><td>7 - 20</td><td></td><td>mg/dL</td></tr></table></div>"
        },
        "status": "final",
        "subject": {
          "reference": "urn:uuid:0be53f09-a920-4977-b5d0-062f2d35a54b",
          "display": "Θεμιστοκλής Λιναρδάκη"
        },
        "effectiveDateTime": "2022-08-03T06:16:00Z",
        "specimen": {
          "reference": "urn:uuid:6eac9d04-e8cd-4342-b043-77c0eef8b869"
        }
      }
    },
    {
      "fullUrl": "urn:uuid:4b373031-219e-4343-8e01-f53d01a8a48f",
      "resource": {
        "resourceType": "Observation",
        "id": "4b373031-219e-4343-8e01-f53d01a8a48f",
        "meta": {
          "profile": [
            "http://hl7.eu/fhir/laboratory/StructureDefinition/Observation-resultslab-eu-lab"
          ]
        },
        "performer": [
          {
            "display": "The Central European Lab"
          }
        ],
        "category": [
          {
            "coding": [
              {
                "system": "http://terminology.hl7.org/CodeSystem/observation-category",
                "code": "laboratory"
              }
            ]
          }
        ],
        "code": {
          "coding": [
            {
              "code": "38483-4",
              "system": "http://loinc.org",
              "display": "Creatinine [Mass/volume] in Blood"
            }
          ],
          "text": "Creatinine [Mass/volume] in Blood"
        },
        "valueQuantity": {
          "system": "http://unitsofmeasure.org",
          "value": 6.2,
          "unit": "mg/dL",
          "code": "mg/dL"
        },
        "referenceRange": [
          {
            "low": {
              "value": 0.6,
              "code": "mg/dL",
              "system": "http://unitsofmeasure.org"
            }
          },
          {
            "high": {
              "value": 1.3,
              "code": "mg/dL",
              "system": "http://unitsofmeasure.org"
            }
          }
        ],
        "interpretation": [
          {
            "coding": [
              {
                "code": "H",
                "system": "http://terminology.hl7.org/CodeSystem/v3-ObservationInterpretation",
                "display": "High"
              }
            ]
          }
        ],
        "text": {
          "status": "generated",
          "div": "<div xmlns=\"http://www.w3.org/1999/xhtml\"><table class=\"hl7__eu__lab__report\"><tr><th>Test</th><th>03-Aug-2022</th><th>Reference&#xA0;Range</th><th>Unit</th></tr><tr><td>Creatinine [Mass/volume] in Blood</td><td>6.2</td><td>0.6 - 1.3</td><td>H</td><td>mg/dL</td></tr></table></div>"
        },
        "status": "final",
        "subject": {
          "reference": "urn:uuid:0be53f09-a920-4977-b5d0-062f2d35a54b",
          "display": "Θεμιστοκλής Λιναρδάκη"
        },
        "effectiveDateTime": "2022-08-03T06:16:00Z",
        "specimen": {
          "reference": "urn:uuid:6eac9d04-e8cd-4342-b043-77c0eef8b869"
        }
      }
    },
    {
      "fullUrl": "urn:uuid:13ae6fea-c547-4eca-8a20-f63658f25be1",
      "resource": {
        "resourceType": "Observation",
        "id": "13ae6fea-c547-4eca-8a20-f63658f25be1",
        "meta": {
          "profile": [
            "http://hl7.eu/fhir/laboratory/StructureDefinition/Observation-resultslab-eu-lab"
          ]
        },
        "performer": [
          {
            "display": "The Central European Lab"
          }
        ],
        "category": [
          {
            "coding": [
              {
                "system": "http://terminology.hl7.org/CodeSystem/observation-category",
                "code": "laboratory"
              }
            ]
          }
        ],
        "code": {
          "coding": [
            {
              "code": "49765-1",
              "system": "http://loinc.org",
              "display": "Calcium [Mass/volume] in Blood"
            }
          ],
          "text": "Calcium [Mass/volume] in Blood"
        },
        "valueQuantity": {
          "system": "http://unitsofmeasure.org",
          "value": 10.1,
          "unit": "mg/dL",
          "code": "mg/dL"
        },
        "referenceRange": [
          {
            "low": {
              "value": 8.5,
              "code": "mg/dL",
              "system": "http://unitsofmeasure.org"
            }
          },
          {
            "high": {
              "value": 10.5,
              "code": "mg/dL",
              "system": "http://unitsofmeasure.org"
            }
          }
        ],
        "text": {
          "status": "generated",
          "div": "<div xmlns=\"http://www.w3.org/1999/xhtml\"><table class=\"hl7__eu__lab__report\"><tr><th>Test</th><th>03-Aug-2022</th><th>Reference&#xA0;Range</th><th>Unit</th></tr><tr><td>Calcium [Mass/volume] in Blood</td><td>10.1</td><td>8.5 - 10.5</td><td></td><td>mg/dL</td></tr></table></div>"
        },
        "status": "final",
        "subject": {
          "reference": "urn:uuid:0be53f09-a920-4977-b5d0-062f2d35a54b",
          "display": "Θεμιστοκλής Λιναρδάκη"
        },
        "effectiveDateTime": "2022-08-03T06:16:00Z",
        "specimen": {
          "reference": "urn:uuid:6eac9d04-e8cd-4342-b043-77c0eef8b869"
        }
      }
    },
    {
      "fullUrl": "urn:uuid:4e089d89-06b3-426d-8b61-342538bdf605",
      "resource": {
        "resourceType": "Observation",
        "id": "4e089d89-06b3-426d-8b61-342538bdf605",
        "meta": {
          "profile": [
            "http://hl7.eu/fhir/laboratory/StructureDefinition/Observation-resultslab-eu-lab"
          ]
        },
        "performer": [
          {
            "display": "The Central European Lab"
          }
        ],
        "category": [
          {
            "coding": [
              {
                "system": "http://terminology.hl7.org/CodeSystem/observation-category",
                "code": "laboratory"
              }
            ]
          }
        ],
        "code": {
          "coding": [
            {
              "code": "2947-0",
              "system": "http://loinc.org",
              "display": "Sodium [Moles/volume] in Blood"
            }
          ],
          "text": "Sodium [Moles/volume] in Blood"
        },
        "valueQuantity": {
          "system": "http://unitsofmeasure.org",
          "value": 141.4,
          "unit": "mmol/L",
          "code": "mmol/L"
        },
        "referenceRange": [
          {
            "low": {
              "value": 135,
              "code": "mmol/L",
              "system": "http://unitsofmeasure.org"
            }
          },
          {
            "high": {
              "value": 145,
              "code": "mmol/L",
              "system": "http://unitsofmeasure.org"
            }
          }
        ],
        "text": {
          "status": "generated",
          "div": "<div xmlns=\"http://www.w3.org/1999/xhtml\"><table class=\"hl7__eu__lab__report\"><tr><th>Test</th><th>03-Aug-2022</th><th>Reference&#xA0;Range</th><th>Unit</th></tr><tr><td>Sodium [Moles/volume] in Blood</td><td>141.4</td><td>135 - 145</td><td></td><td>mmol/L</td></tr></table></div>"
        },
        "status": "final",
        "subject": {
          "reference": "urn:uuid:0be53f09-a920-4977-b5d0-062f2d35a54b",
          "display": "Θεμιστοκλής Λιναρδάκη"
        },
        "effectiveDateTime": "2022-08-03T06:16:00Z",
        "specimen": {
          "reference": "urn:uuid:6eac9d04-e8cd-4342-b043-77c0eef8b869"
        }
      }
    },
    {
      "fullUrl": "urn:uuid:aa05e360-ff21-45ff-8989-75a0cadbb95e",
      "resource": {
        "resourceType": "Observation",
        "id": "aa05e360-ff21-45ff-8989-75a0cadbb95e",
        "meta": {
          "profile": [
            "http://hl7.eu/fhir/laboratory/StructureDefinition/Observation-resultslab-eu-lab"
          ]
        },
        "performer": [
          {
            "display": "The Central European Lab"
          }
        ],
        "category": [
          {
            "coding": [
              {
                "system": "http://terminology.hl7.org/CodeSystem/observation-category",
                "code": "laboratory"
              }
            ]
          }
        ],
        "code": {
          "coding": [
            {
              "code": "6298-4",
              "system": "http://loinc.org",
              "display": "Potassium [Moles/volume] in Blood"
            }
          ],
          "text": "Potassium [Moles/volume] in Blood"
        },
        "valueQuantity": {
          "system": "http://unitsofmeasure.org",
          "value": 3.7,
          "unit": "mmol/L",
          "code": "mmol/L"
        },
        "referenceRange": [
          {
            "low": {
              "value": 3.5,
              "code": "mmol/L",
              "system": "http://unitsofmeasure.org"
            }
          },
          {
            "high": {
              "value": 5.3,
              "code": "mmol/L",
              "system": "http://unitsofmeasure.org"
            }
          }
        ],
        "text": {
          "status": "generated",
          "div": "<div xmlns=\"http://www.w3.org/1999/xhtml\"><table class=\"hl7__eu__lab__report\"><tr><th>Test</th><th>03-Aug-2022</th><th>Reference&#xA0;Range</th><th>Unit</th></tr><tr><td>Potassium [Moles/volume] in Blood</td><td>3.7</td><td>3.5 - 5.3</td><td></td><td>mmol/L</td></tr></table></div>"
        },
        "status": "final",
        "subject": {
          "reference": "urn:uuid:0be53f09-a920-4977-b5d0-062f2d35a54b",
          "display": "Θεμιστοκλής Λιναρδάκη"
        },
        "effectiveDateTime": "2022-08-03T06:16:00Z",
        "specimen": {
          "reference": "urn:uuid:6eac9d04-e8cd-4342-b043-77c0eef8b869"
        }
      }
    },
    {
      "fullUrl": "urn:uuid:a4f6326d-14b7-46f5-94e4-96007635740c",
      "resource": {
        "resourceType": "Observation",
        "id": "a4f6326d-14b7-46f5-94e4-96007635740c",
        "meta": {
          "profile": [
            "http://hl7.eu/fhir/laboratory/StructureDefinition/Observation-resultslab-eu-lab"
          ]
        },
        "performer": [
          {
            "display": "The Central European Lab"
          }
        ],
        "category": [
          {
            "coding": [
              {
                "system": "http://terminology.hl7.org/CodeSystem/observation-category",
                "code": "laboratory"
              }
            ]
          }
        ],
        "code": {
          "coding": [
            {
              "code": "2069-3",
              "system": "http://loinc.org",
              "display": "Chloride [Moles/volume] in Blood"
            }
          ],
          "text": "Chloride [Moles/volume] in Blood"
        },
        "valueQuantity": {
          "system": "http://unitsofmeasure.org",
          "value": 109.3,
          "unit": "mmol/L",
          "code": "mmol/L"
        },
        "referenceRange": [
          {
            "low": {
              "value": 98,
              "code": "mmol/L",
              "system": "http://unitsofmeasure.org"
            }
          },
          {
            "high": {
              "value": 110,
              "code": "mmol/L",
              "system": "http://unitsofmeasure.org"
            }
          }
        ],
        "text": {
          "status": "generated",
          "div": "<div xmlns=\"http://www.w3.org/1999/xhtml\"><table class=\"hl7__eu__lab__report\"><tr><th>Test</th><th>03-Aug-2022</th><th>Reference&#xA0;Range</th><th>Unit</th></tr><tr><td>Chloride [Moles/volume] in Blood</td><td>109.3</td><td>98 - 110</td><td></td><td>mmol/L</td></tr></table></div>"
        },
        "status": "final",
        "subject": {
          "reference": "urn:uuid:0be53f09-a920-4977-b5d0-062f2d35a54b",
          "display": "Θεμιστοκλής Λιναρδάκη"
        },
        "effectiveDateTime": "2022-08-03T06:16:00Z",
        "specimen": {
          "reference": "urn:uuid:6eac9d04-e8cd-4342-b043-77c0eef8b869"
        }
      }
    },
    {
      "fullUrl": "urn:uuid:4de8c3b6-a894-4229-98a8-87590607c9f5",
      "resource": {
        "resourceType": "Observation",
        "id": "4de8c3b6-a894-4229-98a8-87590607c9f5",
        "meta": {
          "profile": [
            "http://hl7.eu/fhir/laboratory/StructureDefinition/Observation-resultslab-eu-lab"
          ]
        },
        "performer": [
          {
            "display": "The Central European Lab"
          }
        ],
        "category": [
          {
            "coding": [
              {
                "system": "http://terminology.hl7.org/CodeSystem/observation-category",
                "code": "laboratory"
              }
            ]
          }
        ],
        "code": {
          "coding": [
            {
              "code": "20565-8",
              "system": "http://loinc.org",
              "display": "Carbon dioxide, total [Moles/volume] in Blood"
            }
          ],
          "text": "Carbon dioxide, total [Moles/volume] in Blood"
        },
        "valueQuantity": {
          "system": "http://unitsofmeasure.org",
          "value": 24.3,
          "unit": "mmol/L",
          "code": "mmol/L"
        },
        "referenceRange": [
          {
            "low": {
              "value": 22,
              "code": "mmol/L",
              "system": "http://unitsofmeasure.org"
            }
          },
          {
            "high": {
              "value": 29,
              "code": "mmol/L",
              "system": "http://unitsofmeasure.org"
            }
          }
        ],
        "text": {
          "status": "generated",
          "div": "<div xmlns=\"http://www.w3.org/1999/xhtml\"><table class=\"hl7__eu__lab__report\"><tr><th>Test</th><th>03-Aug-2022</th><th>Reference&#xA0;Range</th><th>Unit</th></tr><tr><td>Carbon dioxide, total [Moles/volume] in Blood</td><td>24.3</td><td>22 - 29</td><td></td><td>mmol/L</td></tr></table></div>"
        },
        "status": "final",
        "subject": {
          "reference": "urn:uuid:0be53f09-a920-4977-b5d0-062f2d35a54b",
          "display": "Θεμιστοκλής Λιναρδάκη"
        },
        "effectiveDateTime": "2022-08-03T06:16:00Z",
        "specimen": {
          "reference": "urn:uuid:6eac9d04-e8cd-4342-b043-77c0eef8b869"
        }
      }
    },
    {
      "fullUrl": "urn:uuid:837904cb-31a8-459f-9fb2-b64cebc98fcc",
      "resource": {
        "resourceType": "Device",
        "id": "837904cb-31a8-459f-9fb2-b64cebc98fcc",
        "deviceName": [
          {
            "name": "SYNDERAI Synthetic Generator",
            "type": "manufacturer-name"
          }
        ],
        "version": [
          {
            "value": "5.0"
          }
        ],
        "text": {
          "status": "generated",
          "div": "<div xmlns=\"http://www.w3.org/1999/xhtml\">SYNDERAI Synthetic Generator v5.0</div>"
        },
        "status": "active\"",
        "distinctIdentifier": "synderai-generator-50",
        "manufacturer": "SYNDERAI Project"
      }
    },
    {
      "fullUrl": "urn:uuid:4640c9c6-7f0c-4b51-8d86-267befac89a6",
      "resource": {
        "resourceType": "Provenance",
        "id": "4640c9c6-7f0c-4b51-8d86-267befac89a6",
        "target": [
          {
            "reference": "Patient/0be53f09-a920-4977-b5d0-062f2d35a54b"
          },
          {
            "reference": "Bundle/71eca4bf-915d-4b4e-bc96-e7b952fbefad"
          },
          {
            "reference": "Composition/3e4b76f2-a715-4738-beb8-c1e14feed07c"
          },
          {
            "reference": "PractitionerRole/48d7692b-0858-4ad3-8e90-49d26ebcb46f"
          },
          {
            "reference": "Practitioner/b9f8a5bf-0c2e-462f-a89f-c30ac78e284d"
          },
          {
            "reference": "PractitionerRole/5319adc6-e601-44b0-aacb-eee72042fd14"
          },
          {
            "reference": "Organization/d5e6f0e4-c3b8-4dd8-aa5c-089e717dfacb"
          }
        ],
        "activity": {
          "text": "Synthetic Example Data Generation"
        },
        "policy": [
          "https://synderai.net/synderai-synthetic-data-policy"
        ],
        "agent": [
          {
            "type": {
              "text": "author"
            },
            "who": {
              "reference": "Device/837904cb-31a8-459f-9fb2-b64cebc98fcc"
            }
          }
        ],
        "reason": [
          {
            "text": "Interoperability Testing and Training (non-clinical use)"
          }
        ],
        "text": {
          "status": "generated",
          "div": "<div xmlns=\"http://www.w3.org/1999/xhtml\">Provenance for SYNDERAI Synthetic Example Data Resource</div>"
        },
        "recorded": "2022-08-03T08:16:00Z"
      }
    },
    {
      "fullUrl": "urn:uuid:48d7692b-0858-4ad3-8e90-49d26ebcb46f",
      "resource": {
        "resourceType": "PractitionerRole",
        "id": "48d7692b-0858-4ad3-8e90-49d26ebcb46f",
        "meta": {
          "profile": [
            "http://hl7.eu/fhir/base/StructureDefinition/practitionerRole-eu"
          ]
        },
        "text": {
          "status": "generated",
          "div": "<div xmlns=\"http://www.w3.org/1999/xhtml\">Laboratory Role Id: 48d7692b-0858-4ad3-8e90-49d26ebcb46f</div>"
        },
        "practitioner": {
          "reference": "urn:uuid:b9f8a5bf-0c2e-462f-a89f-c30ac78e284d"
        }
      }
    },
    {
      "fullUrl": "urn:uuid:b9f8a5bf-0c2e-462f-a89f-c30ac78e284d",
      "resource": {
        "resourceType": "Practitioner",
        "id": "b9f8a5bf-0c2e-462f-a89f-c30ac78e284d",
        "meta": {
          "profile": [
            "http://hl7.eu/fhir/base/StructureDefinition/practitioner-eu"
          ]
        },
        "identifier": [
          {
            "assigner": {
              "display": "HL7 Europe"
            },
            "system": "urn:oid:2.16.840.1.113883.2.51.999",
            "value": "9c6c2073-fc56-44e9-9b5d-2df1b8cf9fa5"
          }
        ],
        "name": [
          {
            "prefix": [
              "dr"
            ],
            "given": [
              "Ex"
            ],
            "family": "Ample"
          }
        ],
        "address": [
          {
            "line": [
              "Laboratoire Central Européenne",
              "Boulevard du Jardin Botanique 32"
            ],
            "postalCode": "1000",
            "city": "Brussels",
            "country": "Belgium"
          }
        ],
        "text": {
          "status": "generated",
          "div": "<div xmlns=\"http://www.w3.org/1999/xhtml\">Laboratory: Laboratoire Central Européenne, 1000 Brussels, Belgium</div>"
        }
      }
    }
  ],
  "type": "document",
  "timestamp": "2022-08-03T08:16:00Z"
}
