{
  "resourceType": "Bundle",
  "id": "4ac60d41-3554-437c-83f9-0066794cc5b8",
  "meta": {
    "profile": [
      "http://hl7.eu/fhir/laboratory/StructureDefinition/Bundle-eu-lab"
    ]
  },
  "identifier": {
    "assigner": {
      "display": "HL7 Europe"
    },
    "system": "urn:oid:2.16.840.1.113883.2.51.999",
    "value": "514fb36c-b3cf-4c78-8759-5ab6c64541c8"
  },
  "entry": [
    {
      "fullUrl": "urn:uuid:abe11492-d965-40db-a088-245cc85e4782",
      "resource": {
        "resourceType": "Composition",
        "id": "abe11492-d965-40db-a088-245cc85e4782",
        "meta": {
          "profile": [
            "http://hl7.eu/fhir/laboratory/StructureDefinition/Composition-eu-lab"
          ]
        },
        "identifier": {
          "assigner": {
            "display": "HL7 Europe"
          },
          "system": "urn:oid:2.16.840.1.113883.2.51.999",
          "value": "c4d47a65-9586-46c6-aa5d-730f308053e4"
        },
        "author": [
          {
            "reference": "urn:uuid:07c8468e-0430-4bab-8bd3-4cd19603d846"
          }
        ],
        "category": [
          {
            "coding": [
              {
                "code": "26436-6",
                "system": "http://loinc.org",
                "display": "Laboratory studies (set)"
              }
            ]
          }
        ],
        "type": {
          "coding": [
            {
              "code": "11502-2",
              "system": "http://loinc.org",
              "display": "Laboratory report"
            }
          ],
          "text": "Laboratory Report"
        },
        "section": [
          {
            "code": {
              "coding": [
                {
                  "code": "26436-6",
                  "system": "http://loinc.org",
                  "display": "Laboratory studies (set)"
                }
              ],
              "text": "Laboratory studies"
            },
            "section": [
              {
                "code": {
                  "coding": [
                    {
                      "code": "$18719-5",
                      "system": "http://loinc.org",
                      "display": "Chemistry studies (set)"
                    }
                  ],
                  "text": "Chemistry"
                },
                "entry": [
                  {
                    "reference": "urn:uuid:21b1df8d-c780-41da-bd8e-692137f5a1d5"
                  },
                  {
                    "reference": "urn:uuid:549f306a-7966-45b4-a586-d80c48f9f852"
                  },
                  {
                    "reference": "urn:uuid:ecebeba3-4f6a-444a-b57c-6482445289e0"
                  },
                  {
                    "reference": "urn:uuid:03321933-0042-4e73-82ee-db24bd9f7ed1"
                  },
                  {
                    "reference": "urn:uuid:04b20d51-08f5-4830-903a-c24bc3893394"
                  },
                  {
                    "reference": "urn:uuid:165af7e9-b24c-4c69-9db6-89fad662914c"
                  },
                  {
                    "reference": "urn:uuid:5e17e46d-ad7e-47a2-ad7a-1c6098635e7f"
                  },
                  {
                    "reference": "urn:uuid:a692f9bd-ec20-45bf-9938-ffe19afb250f"
                  },
                  {
                    "reference": "urn:uuid:46f29e0c-af36-471d-a797-303e1b15628b"
                  },
                  {
                    "reference": "urn:uuid:7c3a82fc-d990-4847-ad56-0287c6a05082"
                  },
                  {
                    "reference": "urn:uuid:7744b8b2-757d-4fc6-9a2d-efbd453e9d7e"
                  },
                  {
                    "reference": "urn:uuid:8dbf4724-d136-4054-b163-087186f02306"
                  },
                  {
                    "reference": "urn:uuid:5de7d1e1-a391-49ef-a34f-8a9ac4ed4c16"
                  },
                  {
                    "reference": "urn:uuid:77d9d492-c3ae-4992-99a2-60cb7ed5fff4"
                  },
                  {
                    "reference": "urn:uuid:21c92953-5cc0-4d3c-8fe2-c0c722176fb2"
                  },
                  {
                    "reference": "urn:uuid:2c5265c9-0d97-4cdb-b903-1e831a9e5168"
                  },
                  {
                    "reference": "urn:uuid:92a47b87-09cb-4516-8615-7cdc4e78c7b5"
                  },
                  {
                    "reference": "urn:uuid:1ef585cb-6e6c-4474-82c8-f777ee7ba1be"
                  },
                  {
                    "reference": "urn:uuid:f82be2a0-2ced-4cc7-b7f7-273d8de780b7"
                  },
                  {
                    "reference": "urn:uuid:968f5ab4-f30a-4b32-b078-2efa7d968d97"
                  },
                  {
                    "reference": "urn:uuid:d0475a26-5b09-42f1-ba4d-f52d01e3df4e"
                  },
                  {
                    "reference": "urn:uuid:7e8ac7c1-825a-4ad3-bd15-b3f3ac40cc51"
                  },
                  {
                    "reference": "urn:uuid:ea23e10c-e098-4f0c-8b0f-d1e9a1f55b44"
                  }
                ],
                "text": {
                  "status": "generated",
                  "div": "<div xmlns=\"http://www.w3.org/1999/xhtml\"><h3>Chemistry</h3><table class=\"hl7__eu__lab__report\"><thead><tr><th>Test</th><th>06-MAY-2017</th><th>Reference&#xA0;Range</th><th>Unit</th></tr></thead><tbody><tr><td>Cholesterol [Mass/volume] in Serum or Plasma</td><td><strong>267.7 H</strong></td><td>130 - 200</td><td>mg/dL</td></tr><tr><td>Triglyceride [Mass/volume] in Serum or Plasma</td><td><strong>362.2 H</strong></td><td>0 - 199</td><td>mg/dL</td></tr><tr><td>Cholesterol in LDL [Mass/volume] in Serum or Plasma by Direct assay</td><td>102.5</td><td>0 - 130</td><td>mg/dL</td></tr><tr><td>Cholesterol in HDL [Mass/volume] in Serum or Plasma</td><td>64.5</td><td>50 - 100</td><td>mg/dL</td></tr><tr><td>Glucose [Mass/volume] in Blood</td><td>82.3</td><td>70 - 140</td><td>mg/dL</td></tr><tr><td>Urea nitrogen [Mass/volume] in Blood</td><td>7.7</td><td>7 - 20</td><td>mg/dL</td></tr><tr><td>Creatinine [Mass/volume] in Blood</td><td><strong>2.6 H</strong></td><td>0.6 - 1.3</td><td>mg/dL</td></tr><tr><td>Calcium [Mass/volume] in Blood</td><td>9.0</td><td>8.5 - 10.5</td><td>mg/dL</td></tr><tr><td>Sodium [Moles/volume] in Blood</td><td>143.8</td><td>135 - 145</td><td>mmol/L</td></tr><tr><td>Potassium [Moles/volume] in Blood</td><td><strong>5.2 H</strong></td><td>3.6 - 5.1</td><td>mmol/L</td></tr><tr><td>Chloride [Moles/volume] in Blood</td><td>103.3</td><td>98 - 107</td><td>mmol/L</td></tr><tr><td>Carbon dioxide, total [Moles/volume] in Blood</td><td>25.0</td><td>22 - 32</td><td>mmol/L</td></tr><tr><td>Protein [Mass/volume] in Serum or Plasma</td><td>6.0</td><td>6 - 8.3</td><td>g/dL</td></tr><tr><td>Albumin [Mass/volume] in Serum or Plasma</td><td><strong>5.5 H</strong></td><td>3.5 - 5</td><td>g/dL</td></tr><tr><td>Globulin [Mass/volume] in Serum by calculation</td><td>3.2</td><td>2 - 3.9</td><td>g/L</td></tr><tr><td>Bilirubin.total [Mass/volume] in Serum or Plasma</td><td>0.6</td><td>0.3 - 1.2</td><td>mg/dL</td></tr><tr><td>Alkaline phosphatase [Enzymatic activity/volume] in Serum or Plasma</td><td>63.9</td><td>32 - 150</td><td>U/L</td></tr><tr><td>Alanine aminotransferase [Enzymatic activity/volume] in Serum or Plasma</td><td><strong>39.7 H</strong></td><td>13 - 32</td><td>U/L</td></tr><tr><td>Aspartate aminotransferase [Enzymatic activity/volume] in Serum or Plasma</td><td>39.7</td><td>10 - 40</td><td>U/L</td></tr><tr><td>Cholesterol [Mass/volume] in Serum or Plasma</td><td><strong>284.2 H</strong></td><td>130 - 200</td><td>mg/dL</td></tr><tr><td>Triglyceride [Mass/volume] in Serum or Plasma</td><td>130.5</td><td>0 - 199</td><td>mg/dL</td></tr><tr><td>Cholesterol in LDL [Mass/volume] in Serum or Plasma by Direct assay</td><td><strong>198.5 H</strong></td><td>0 - 130</td><td>mg/dL</td></tr><tr><td>Cholesterol in HDL [Mass/volume] in Serum or Plasma</td><td>59.6</td><td>50 - 100</td><td>mg/dL</td></tr></tbody></table></div>"
                },
                "title": "Chemistry"
              }
            ],
            "title": "Laboratory Report"
          },
          {
            "text": {
              "status": "generated",
              "div": "<div xmlns=\"http://www.w3.org/1999/xhtml\"><h3>Annotation</h3><table class=\"hl7__eu__lab__report\"><tr><th>Conclusion and Recommendations based on this report and previous findings known to us</th></tr><tr><td>The patient shows persistent hypercholesterolemia and hypertriglyceridemia, with elevated LDL cholesterol, increasing cardiovascular risk. There is also mild hypercreatininemia, suggesting possible renal impairment, and mild hyperkalemia. Albumin is slightly elevated, and ALT is mildly increased, which may indicate mild liver involvement. Other parameters are within normal limits. Clinical correlation and further evaluation of renal and hepatic function are recommended.</td></tr></table></div>"
            },
            "code": {
              "coding": [
                {
                  "system": "http://loinc.org",
                  "code": "48767-8",
                  "display": "Annotation comment"
                }
              ]
            },
            "title": "Annotation comment"
          }
        ],
        "status": "final",
        "subject": {
          "reference": "urn:uuid:9ff97b87-db0f-473d-8bd9-a3085cf21f88",
          "display": "Aniela Prażmo"
        },
        "date": "2017-05-06T15:25:25Z",
        "title": "Laboratory Report",
        "confidentiality": "N"
      }
    },
    {
      "fullUrl": "urn:uuid:32760ccf-e4ea-43b7-94c2-21d4440ec456",
      "resource": {
        "resourceType": "DiagnosticReport",
        "id": "32760ccf-e4ea-43b7-94c2-21d4440ec456",
        "meta": {
          "profile": [
            "http://hl7.eu/fhir/laboratory/StructureDefinition/DiagnosticReport-eu-lab"
          ]
        },
        "identifier": [
          {
            "assigner": {
              "display": "HL7 Europe"
            },
            "system": "urn:oid:2.16.840.1.113883.2.51.999",
            "value": "c764f0e0-d4eb-43d2-912c-539fb3f249d6"
          }
        ],
        "extension": [
          {
            "url": "http://hl7.org/fhir/5.0/StructureDefinition/extension-DiagnosticReport.composition",
            "valueReference": {
              "reference": "urn:uuid:c4d47a65-9586-46c6-aa5d-730f308053e4"
            }
          }
        ],
        "category": [
          {
            "coding": [
              {
                "code": "26436-6",
                "system": "http://loinc.org",
                "display": "Laboratory studies (set)"
              }
            ]
          }
        ],
        "specimen": [
          {
            "reference": "urn:uuid:68f7cb98-fbff-41fc-9ebb-6902023e8528"
          },
          {
            "reference": "urn:uuid:96ae19c2-ec7f-40c2-99dd-3273b2a7ba27"
          },
          {
            "reference": "urn:uuid:35fbf049-5dd3-44cf-b462-0ee70249c769"
          }
        ],
        "result": [
          {
            "reference": "urn:uuid:21b1df8d-c780-41da-bd8e-692137f5a1d5"
          },
          {
            "reference": "urn:uuid:549f306a-7966-45b4-a586-d80c48f9f852"
          },
          {
            "reference": "urn:uuid:ecebeba3-4f6a-444a-b57c-6482445289e0"
          },
          {
            "reference": "urn:uuid:03321933-0042-4e73-82ee-db24bd9f7ed1"
          },
          {
            "reference": "urn:uuid:04b20d51-08f5-4830-903a-c24bc3893394"
          },
          {
            "reference": "urn:uuid:165af7e9-b24c-4c69-9db6-89fad662914c"
          },
          {
            "reference": "urn:uuid:5e17e46d-ad7e-47a2-ad7a-1c6098635e7f"
          },
          {
            "reference": "urn:uuid:a692f9bd-ec20-45bf-9938-ffe19afb250f"
          },
          {
            "reference": "urn:uuid:46f29e0c-af36-471d-a797-303e1b15628b"
          },
          {
            "reference": "urn:uuid:7c3a82fc-d990-4847-ad56-0287c6a05082"
          },
          {
            "reference": "urn:uuid:7744b8b2-757d-4fc6-9a2d-efbd453e9d7e"
          },
          {
            "reference": "urn:uuid:8dbf4724-d136-4054-b163-087186f02306"
          },
          {
            "reference": "urn:uuid:5de7d1e1-a391-49ef-a34f-8a9ac4ed4c16"
          },
          {
            "reference": "urn:uuid:77d9d492-c3ae-4992-99a2-60cb7ed5fff4"
          },
          {
            "reference": "urn:uuid:21c92953-5cc0-4d3c-8fe2-c0c722176fb2"
          },
          {
            "reference": "urn:uuid:2c5265c9-0d97-4cdb-b903-1e831a9e5168"
          },
          {
            "reference": "urn:uuid:92a47b87-09cb-4516-8615-7cdc4e78c7b5"
          },
          {
            "reference": "urn:uuid:1ef585cb-6e6c-4474-82c8-f777ee7ba1be"
          },
          {
            "reference": "urn:uuid:f82be2a0-2ced-4cc7-b7f7-273d8de780b7"
          },
          {
            "reference": "urn:uuid:968f5ab4-f30a-4b32-b078-2efa7d968d97"
          },
          {
            "reference": "urn:uuid:d0475a26-5b09-42f1-ba4d-f52d01e3df4e"
          },
          {
            "reference": "urn:uuid:7e8ac7c1-825a-4ad3-bd15-b3f3ac40cc51"
          },
          {
            "reference": "urn:uuid:ea23e10c-e098-4f0c-8b0f-d1e9a1f55b44"
          }
        ],
        "status": "registered",
        "code": {
          "coding": [
            {
              "code": "11502-2",
              "system": "http://loinc.org",
              "display": "Laboratory report"
            }
          ]
        },
        "subject": {
          "reference": "urn:uuid:9ff97b87-db0f-473d-8bd9-a3085cf21f88",
          "display": "Aniela Prażmo"
        }
      }
    },
    {
      "fullUrl": "urn:uuid:9ff97b87-db0f-473d-8bd9-a3085cf21f88",
      "resource": {
        "resourceType": "Patient",
        "id": "9ff97b87-db0f-473d-8bd9-a3085cf21f88",
        "meta": {
          "security": [
            {
              "system": "http://terminology.hl7.org/CodeSystem/v3-ActReason",
              "code": "HTEST"
            },
            {
              "system": "http://terminology.hl7.org/CodeSystem/v3-ActReason",
              "code": "TRAIN"
            }
          ],
          "tag": [
            {
              "system": "https://synderai.net/fhir/CodeSystem/tags",
              "code": "synthetic",
              "display": "SYNDERAI Synthetic data"
            }
          ],
          "profile": [
            "http://hl7.eu/fhir/base/StructureDefinition/patient-eu-core"
          ]
        },
        "identifier": [
          {
            "type": {
              "coding": [
                {
                  "code": "PT",
                  "system": "http://terminology.hl7.org/CodeSystem/v2-0203"
                }
              ]
            },
            "system": "http://ec.europa.eu/identifier/eci",
            "value": "9657-869171-7"
          },
          {
            "type": {
              "coding": [
                {
                  "code": "MR",
                  "system": "http://terminology.hl7.org/CodeSystem/v2-0203"
                }
              ]
            },
            "system": "http://local.setting.eu/identifier",
            "value": "ab00158c-e2d0-01e4-6cf5-730949937551"
          }
        ],
        "name": [
          {
            "family": "Prażmo"
          },
          {
            "given": [
              "Aniela"
            ]
          },
          {
            "text": "Aniela Prażmo"
          }
        ],
        "address": [
          {
            "line": [
              "pl. Kołłątaja 62/43"
            ],
            "use": "home",
            "type": "physical",
            "postalCode": "97-200",
            "city": "Tomaszów Mazowiecki",
            "country": "Poland"
          }
        ],
        "telecom": [
          {
            "system": "phone",
            "value": "+48 782 809 233"
          }
        ],
        "extension": [
          {
            "url": "http://hl7.org/fhir/StructureDefinition/patient-nationality",
            "valueCodeableConcept": {
              "coding": [
                {
                  "code": "PL",
                  "system": "http://hl7.org/fhir/ValueSet/country"
                }
              ]
            }
          }
        ],
        "text": {
          "status": "generated",
          "div": "<div xmlns=\"http://www.w3.org/1999/xhtml\"><table class=\"hl7__ips\"><tr><td>Aniela Prażmo</td><td>female</td><td>08-Feb-1941</td></tr></table></div>"
        },
        "gender": "female",
        "birthDate": "1941-02-08"
      }
    },
    {
      "fullUrl": "urn:uuid:db635634-872c-4432-bd0b-4d443489b632",
      "resource": {
        "resourceType": "ServiceRequest",
        "id": "db635634-872c-4432-bd0b-4d443489b632",
        "meta": {
          "profile": [
            "http://hl7.eu/fhir/laboratory/StructureDefinition/ServiceRequest-eu-lab"
          ]
        },
        "identifier": [
          {
            "system": "http://example.org",
            "value": "19c1b866-1448-4023-9e8b-8f0c3e14bef8"
          }
        ],
        "specimen": [
          {
            "reference": "urn:uuid:68f7cb98-fbff-41fc-9ebb-6902023e8528"
          },
          {
            "reference": "urn:uuid:96ae19c2-ec7f-40c2-99dd-3273b2a7ba27"
          },
          {
            "reference": "urn:uuid:35fbf049-5dd3-44cf-b462-0ee70249c769"
          }
        ],
        "reasonCode": [
          {
            "coding": [
              {
                "code": "64859006",
                "system": "http://snomed.info/sct",
                "display": "Osteoporosis"
              }
            ]
          },
          {
            "coding": [
              {
                "code": "55822004",
                "system": "http://snomed.info/sct",
                "display": "Hyperlipidemia"
              }
            ]
          },
          {
            "coding": [
              {
                "code": "414545008",
                "system": "http://snomed.info/sct",
                "display": "Ischemic heart disease"
              }
            ]
          },
          {
            "coding": [
              {
                "code": "59621000",
                "system": "http://snomed.info/sct",
                "display": "Essential hypertension"
              }
            ]
          },
          {
            "coding": [
              {
                "code": "40055000",
                "system": "http://snomed.info/sct",
                "display": "Chronic sinusitis"
              }
            ]
          }
        ],
        "status": "active",
        "intent": "order",
        "code": {
          "coding": [
            {
              "code": "108252007",
              "system": "http://snomed.info/sct",
              "display": "Laboratory procedure"
            }
          ]
        },
        "subject": {
          "reference": "urn:uuid:9ff97b87-db0f-473d-8bd9-a3085cf21f88",
          "display": "Aniela Prażmo"
        },
        "requester": {
          "reference": "urn:uuid:3ec17685-5bb9-4a83-b4d3-04994ad52096"
        }
      }
    },
    {
      "fullUrl": "urn:uuid:3ec17685-5bb9-4a83-b4d3-04994ad52096",
      "resource": {
        "resourceType": "PractitionerRole",
        "id": "3ec17685-5bb9-4a83-b4d3-04994ad52096",
        "meta": {
          "profile": [
            "http://hl7.eu/fhir/base/StructureDefinition/practitionerRole-eu"
          ]
        },
        "text": {
          "status": "generated",
          "div": "<div xmlns=\"http://www.w3.org/1999/xhtml\">Provider Role Id: 3ec17685-5bb9-4a83-b4d3-04994ad52096</div>"
        },
        "organization": {
          "reference": "urn:uuid:926a66e2-f7d7-42ee-8e8d-c32748df4872"
        }
      }
    },
    {
      "fullUrl": "urn:uuid:926a66e2-f7d7-42ee-8e8d-c32748df4872",
      "resource": {
        "resourceType": "Organization",
        "id": "926a66e2-f7d7-42ee-8e8d-c32748df4872",
        "meta": {
          "profile": [
            "http://hl7.eu/fhir/base/StructureDefinition/organization-eu"
          ]
        },
        "identifier": [
          {
            "assigner": {
              "display": "HL7 Europe"
            },
            "system": "urn:oid:2.16.840.1.113883.2.51.999",
            "value": "098cd90c-ee4c-4346-a4ed-40804ce2689d"
          }
        ],
        "address": [
          {
            "city": "Tomaszów Mazowiecki",
            "postalCode": "97-200",
            "country": "Poland"
          }
        ],
        "text": {
          "status": "generated",
          "div": "<div xmlns=\"http://www.w3.org/1999/xhtml\">Provider Organization: Poradnia rehabilitacyjna</div>"
        },
        "name": "Poradnia rehabilitacyjna"
      }
    },
    {
      "fullUrl": "urn:uuid:68f7cb98-fbff-41fc-9ebb-6902023e8528",
      "resource": {
        "resourceType": "Specimen",
        "id": "68f7cb98-fbff-41fc-9ebb-6902023e8528",
        "meta": {
          "profile": [
            "http://hl7.eu/fhir/laboratory/StructureDefinition/Specimen-eu-lab"
          ]
        },
        "collection": {
          "collectedDateTime": "2017-05-06"
        },
        "text": {
          "status": "generated",
          "div": "<div xmlns=\"http://www.w3.org/1999/xhtml\"><table class=\"hl7__eu__lab__report\"><tr><th>Specimen</th><th>Collection Date</th></tr><tr><td>Acellular blood (serum or plasma) specimen</td><td><span class=\"nb\">06-May-2017</span></td></tr></table></div>"
        },
        "type": {
          "coding": [
            {
              "code": "122592007",
              "system": "http://snomed.info/sct",
              "display": "Acellular blood (serum or plasma) specimen"
            }
          ]
        }
      }
    },
    {
      "fullUrl": "urn:uuid:96ae19c2-ec7f-40c2-99dd-3273b2a7ba27",
      "resource": {
        "resourceType": "Specimen",
        "id": "96ae19c2-ec7f-40c2-99dd-3273b2a7ba27",
        "meta": {
          "profile": [
            "http://hl7.eu/fhir/laboratory/StructureDefinition/Specimen-eu-lab"
          ]
        },
        "collection": {
          "collectedDateTime": "2017-05-06"
        },
        "text": {
          "status": "generated",
          "div": "<div xmlns=\"http://www.w3.org/1999/xhtml\"><table class=\"hl7__eu__lab__report\"><tr><th>Specimen</th><th>Collection Date</th></tr><tr><td>Whole blood specimen (specimen)</td><td><span class=\"nb\">06-May-2017</span></td></tr></table></div>"
        },
        "type": {
          "coding": [
            {
              "code": "258580003",
              "system": "http://snomed.info/sct",
              "display": "Whole blood specimen (specimen)"
            }
          ]
        }
      }
    },
    {
      "fullUrl": "urn:uuid:35fbf049-5dd3-44cf-b462-0ee70249c769",
      "resource": {
        "resourceType": "Specimen",
        "id": "35fbf049-5dd3-44cf-b462-0ee70249c769",
        "meta": {
          "profile": [
            "http://hl7.eu/fhir/laboratory/StructureDefinition/Specimen-eu-lab"
          ]
        },
        "collection": {
          "collectedDateTime": "2017-05-06"
        },
        "text": {
          "status": "generated",
          "div": "<div xmlns=\"http://www.w3.org/1999/xhtml\"><table class=\"hl7__eu__lab__report\"><tr><th>Specimen</th><th>Collection Date</th></tr><tr><td>Serum specimen</td><td><span class=\"nb\">06-May-2017</span></td></tr></table></div>"
        },
        "type": {
          "coding": [
            {
              "code": "119364003",
              "system": "http://snomed.info/sct",
              "display": "Serum specimen"
            }
          ]
        }
      }
    },
    {
      "fullUrl": "urn:uuid:21b1df8d-c780-41da-bd8e-692137f5a1d5",
      "resource": {
        "resourceType": "Observation",
        "id": "21b1df8d-c780-41da-bd8e-692137f5a1d5",
        "meta": {
          "profile": [
            "http://hl7.eu/fhir/laboratory/StructureDefinition/Observation-resultslab-eu-lab"
          ]
        },
        "performer": [
          {
            "display": "The Central European Lab"
          }
        ],
        "category": [
          {
            "coding": [
              {
                "system": "http://terminology.hl7.org/CodeSystem/observation-category",
                "code": "laboratory"
              }
            ]
          }
        ],
        "code": {
          "coding": [
            {
              "code": "2093-3",
              "system": "http://loinc.org",
              "display": "Cholesterol [Mass/volume] in Serum or Plasma"
            }
          ],
          "text": "Cholesterol [Mass/volume] in Serum or Plasma"
        },
        "valueQuantity": {
          "system": "http://unitsofmeasure.org",
          "value": 267.7,
          "unit": "mg/dL",
          "code": "mg/dL"
        },
        "referenceRange": [
          {
            "low": {
              "value": 130,
              "code": "mg/dL",
              "system": "http://unitsofmeasure.org"
            }
          },
          {
            "high": {
              "value": 200,
              "code": "mg/dL",
              "system": "http://unitsofmeasure.org"
            }
          }
        ],
        "interpretation": [
          {
            "coding": [
              {
                "code": "H",
                "system": "http://terminology.hl7.org/CodeSystem/v3-ObservationInterpretation",
                "display": "High"
              }
            ]
          }
        ],
        "text": {
          "status": "generated",
          "div": "<div xmlns=\"http://www.w3.org/1999/xhtml\"><table class=\"hl7__eu__lab__report\"><tr><th>Test</th><th>06-May-2017</th><th>Reference&#xA0;Range</th><th>Unit</th></tr><tr><td>Cholesterol [Mass/volume] in Serum or Plasma</td><td>267.7</td><td>130 - 200</td><td>H</td><td>mg/dL</td></tr></table></div>"
        },
        "status": "final",
        "subject": {
          "reference": "urn:uuid:9ff97b87-db0f-473d-8bd9-a3085cf21f88",
          "display": "Aniela Prażmo"
        },
        "effectiveDateTime": "2017-05-06T13:25:25Z",
        "specimen": {
          "reference": "urn:uuid:68f7cb98-fbff-41fc-9ebb-6902023e8528"
        }
      }
    },
    {
      "fullUrl": "urn:uuid:549f306a-7966-45b4-a586-d80c48f9f852",
      "resource": {
        "resourceType": "Observation",
        "id": "549f306a-7966-45b4-a586-d80c48f9f852",
        "meta": {
          "profile": [
            "http://hl7.eu/fhir/laboratory/StructureDefinition/Observation-resultslab-eu-lab"
          ]
        },
        "performer": [
          {
            "display": "The Central European Lab"
          }
        ],
        "category": [
          {
            "coding": [
              {
                "system": "http://terminology.hl7.org/CodeSystem/observation-category",
                "code": "laboratory"
              }
            ]
          }
        ],
        "code": {
          "coding": [
            {
              "code": "2571-8",
              "system": "http://loinc.org",
              "display": "Triglyceride [Mass/volume] in Serum or Plasma"
            }
          ],
          "text": "Triglyceride [Mass/volume] in Serum or Plasma"
        },
        "valueQuantity": {
          "system": "http://unitsofmeasure.org",
          "value": 362.2,
          "unit": "mg/dL",
          "code": "mg/dL"
        },
        "referenceRange": [
          {
            "low": {
              "value": 0,
              "code": "mg/dL",
              "system": "http://unitsofmeasure.org"
            }
          },
          {
            "high": {
              "value": 199,
              "code": "mg/dL",
              "system": "http://unitsofmeasure.org"
            }
          }
        ],
        "interpretation": [
          {
            "coding": [
              {
                "code": "H",
                "system": "http://terminology.hl7.org/CodeSystem/v3-ObservationInterpretation",
                "display": "High"
              }
            ]
          }
        ],
        "text": {
          "status": "generated",
          "div": "<div xmlns=\"http://www.w3.org/1999/xhtml\"><table class=\"hl7__eu__lab__report\"><tr><th>Test</th><th>06-May-2017</th><th>Reference&#xA0;Range</th><th>Unit</th></tr><tr><td>Triglyceride [Mass/volume] in Serum or Plasma</td><td>362.2</td><td>0 - 199</td><td>H</td><td>mg/dL</td></tr></table></div>"
        },
        "status": "final",
        "subject": {
          "reference": "urn:uuid:9ff97b87-db0f-473d-8bd9-a3085cf21f88",
          "display": "Aniela Prażmo"
        },
        "effectiveDateTime": "2017-05-06T13:25:25Z",
        "specimen": {
          "reference": "urn:uuid:68f7cb98-fbff-41fc-9ebb-6902023e8528"
        }
      }
    },
    {
      "fullUrl": "urn:uuid:ecebeba3-4f6a-444a-b57c-6482445289e0",
      "resource": {
        "resourceType": "Observation",
        "id": "ecebeba3-4f6a-444a-b57c-6482445289e0",
        "meta": {
          "profile": [
            "http://hl7.eu/fhir/laboratory/StructureDefinition/Observation-resultslab-eu-lab"
          ]
        },
        "performer": [
          {
            "display": "The Central European Lab"
          }
        ],
        "category": [
          {
            "coding": [
              {
                "system": "http://terminology.hl7.org/CodeSystem/observation-category",
                "code": "laboratory"
              }
            ]
          }
        ],
        "code": {
          "coding": [
            {
              "code": "18262-6",
              "system": "http://loinc.org",
              "display": "Cholesterol in LDL [Mass/volume] in Serum or Plasma by Direct assay"
            }
          ],
          "text": "Cholesterol in LDL [Mass/volume] in Serum or Plasma by Direct assay"
        },
        "valueQuantity": {
          "system": "http://unitsofmeasure.org",
          "value": 102.5,
          "unit": "mg/dL",
          "code": "mg/dL"
        },
        "referenceRange": [
          {
            "low": {
              "value": 0,
              "code": "mg/dL",
              "system": "http://unitsofmeasure.org"
            }
          },
          {
            "high": {
              "value": 130,
              "code": "mg/dL",
              "system": "http://unitsofmeasure.org"
            }
          }
        ],
        "text": {
          "status": "generated",
          "div": "<div xmlns=\"http://www.w3.org/1999/xhtml\"><table class=\"hl7__eu__lab__report\"><tr><th>Test</th><th>06-May-2017</th><th>Reference&#xA0;Range</th><th>Unit</th></tr><tr><td>Cholesterol in LDL [Mass/volume] in Serum or Plasma by Direct assay</td><td>102.5</td><td>0 - 130</td><td></td><td>mg/dL</td></tr></table></div>"
        },
        "status": "final",
        "subject": {
          "reference": "urn:uuid:9ff97b87-db0f-473d-8bd9-a3085cf21f88",
          "display": "Aniela Prażmo"
        },
        "effectiveDateTime": "2017-05-06T13:25:25Z",
        "specimen": {
          "reference": "urn:uuid:68f7cb98-fbff-41fc-9ebb-6902023e8528"
        }
      }
    },
    {
      "fullUrl": "urn:uuid:03321933-0042-4e73-82ee-db24bd9f7ed1",
      "resource": {
        "resourceType": "Observation",
        "id": "03321933-0042-4e73-82ee-db24bd9f7ed1",
        "meta": {
          "profile": [
            "http://hl7.eu/fhir/laboratory/StructureDefinition/Observation-resultslab-eu-lab"
          ]
        },
        "performer": [
          {
            "display": "The Central European Lab"
          }
        ],
        "category": [
          {
            "coding": [
              {
                "system": "http://terminology.hl7.org/CodeSystem/observation-category",
                "code": "laboratory"
              }
            ]
          }
        ],
        "code": {
          "coding": [
            {
              "code": "2085-9",
              "system": "http://loinc.org",
              "display": "Cholesterol in HDL [Mass/volume] in Serum or Plasma"
            }
          ],
          "text": "Cholesterol in HDL [Mass/volume] in Serum or Plasma"
        },
        "valueQuantity": {
          "system": "http://unitsofmeasure.org",
          "value": 64.5,
          "unit": "mg/dL",
          "code": "mg/dL"
        },
        "referenceRange": [
          {
            "low": {
              "value": 50,
              "code": "mg/dL",
              "system": "http://unitsofmeasure.org"
            }
          },
          {
            "high": {
              "value": 100,
              "code": "mg/dL",
              "system": "http://unitsofmeasure.org"
            }
          }
        ],
        "text": {
          "status": "generated",
          "div": "<div xmlns=\"http://www.w3.org/1999/xhtml\"><table class=\"hl7__eu__lab__report\"><tr><th>Test</th><th>06-May-2017</th><th>Reference&#xA0;Range</th><th>Unit</th></tr><tr><td>Cholesterol in HDL [Mass/volume] in Serum or Plasma</td><td>64.5</td><td>50 - 100</td><td></td><td>mg/dL</td></tr></table></div>"
        },
        "status": "final",
        "subject": {
          "reference": "urn:uuid:9ff97b87-db0f-473d-8bd9-a3085cf21f88",
          "display": "Aniela Prażmo"
        },
        "effectiveDateTime": "2017-05-06T13:25:25Z",
        "specimen": {
          "reference": "urn:uuid:68f7cb98-fbff-41fc-9ebb-6902023e8528"
        }
      }
    },
    {
      "fullUrl": "urn:uuid:04b20d51-08f5-4830-903a-c24bc3893394",
      "resource": {
        "resourceType": "Observation",
        "id": "04b20d51-08f5-4830-903a-c24bc3893394",
        "meta": {
          "profile": [
            "http://hl7.eu/fhir/laboratory/StructureDefinition/Observation-resultslab-eu-lab"
          ]
        },
        "performer": [
          {
            "display": "The Central European Lab"
          }
        ],
        "category": [
          {
            "coding": [
              {
                "system": "http://terminology.hl7.org/CodeSystem/observation-category",
                "code": "laboratory"
              }
            ]
          }
        ],
        "code": {
          "coding": [
            {
              "code": "2339-0",
              "system": "http://loinc.org",
              "display": "Glucose [Mass/volume] in Blood"
            }
          ],
          "text": "Glucose [Mass/volume] in Blood"
        },
        "valueQuantity": {
          "system": "http://unitsofmeasure.org",
          "value": 82.3,
          "unit": "mg/dL",
          "code": "mg/dL"
        },
        "referenceRange": [
          {
            "low": {
              "value": 70,
              "code": "mg/dL",
              "system": "http://unitsofmeasure.org"
            }
          },
          {
            "high": {
              "value": 140,
              "code": "mg/dL",
              "system": "http://unitsofmeasure.org"
            }
          }
        ],
        "text": {
          "status": "generated",
          "div": "<div xmlns=\"http://www.w3.org/1999/xhtml\"><table class=\"hl7__eu__lab__report\"><tr><th>Test</th><th>06-May-2017</th><th>Reference&#xA0;Range</th><th>Unit</th></tr><tr><td>Glucose [Mass/volume] in Blood</td><td>82.3</td><td>70 - 140</td><td></td><td>mg/dL</td></tr></table></div>"
        },
        "status": "final",
        "subject": {
          "reference": "urn:uuid:9ff97b87-db0f-473d-8bd9-a3085cf21f88",
          "display": "Aniela Prażmo"
        },
        "effectiveDateTime": "2017-05-06T13:25:25Z",
        "specimen": {
          "reference": "urn:uuid:96ae19c2-ec7f-40c2-99dd-3273b2a7ba27"
        }
      }
    },
    {
      "fullUrl": "urn:uuid:165af7e9-b24c-4c69-9db6-89fad662914c",
      "resource": {
        "resourceType": "Observation",
        "id": "165af7e9-b24c-4c69-9db6-89fad662914c",
        "meta": {
          "profile": [
            "http://hl7.eu/fhir/laboratory/StructureDefinition/Observation-resultslab-eu-lab"
          ]
        },
        "performer": [
          {
            "display": "The Central European Lab"
          }
        ],
        "category": [
          {
            "coding": [
              {
                "system": "http://terminology.hl7.org/CodeSystem/observation-category",
                "code": "laboratory"
              }
            ]
          }
        ],
        "code": {
          "coding": [
            {
              "code": "6299-2",
              "system": "http://loinc.org",
              "display": "Urea nitrogen [Mass/volume] in Blood"
            }
          ],
          "text": "Urea nitrogen [Mass/volume] in Blood"
        },
        "valueQuantity": {
          "system": "http://unitsofmeasure.org",
          "value": 7.7,
          "unit": "mg/dL",
          "code": "mg/dL"
        },
        "referenceRange": [
          {
            "low": {
              "value": 7,
              "code": "mg/dL",
              "system": "http://unitsofmeasure.org"
            }
          },
          {
            "high": {
              "value": 20,
              "code": "mg/dL",
              "system": "http://unitsofmeasure.org"
            }
          }
        ],
        "text": {
          "status": "generated",
          "div": "<div xmlns=\"http://www.w3.org/1999/xhtml\"><table class=\"hl7__eu__lab__report\"><tr><th>Test</th><th>06-May-2017</th><th>Reference&#xA0;Range</th><th>Unit</th></tr><tr><td>Urea nitrogen [Mass/volume] in Blood</td><td>7.7</td><td>7 - 20</td><td></td><td>mg/dL</td></tr></table></div>"
        },
        "status": "final",
        "subject": {
          "reference": "urn:uuid:9ff97b87-db0f-473d-8bd9-a3085cf21f88",
          "display": "Aniela Prażmo"
        },
        "effectiveDateTime": "2017-05-06T13:25:25Z",
        "specimen": {
          "reference": "urn:uuid:96ae19c2-ec7f-40c2-99dd-3273b2a7ba27"
        }
      }
    },
    {
      "fullUrl": "urn:uuid:5e17e46d-ad7e-47a2-ad7a-1c6098635e7f",
      "resource": {
        "resourceType": "Observation",
        "id": "5e17e46d-ad7e-47a2-ad7a-1c6098635e7f",
        "meta": {
          "profile": [
            "http://hl7.eu/fhir/laboratory/StructureDefinition/Observation-resultslab-eu-lab"
          ]
        },
        "performer": [
          {
            "display": "The Central European Lab"
          }
        ],
        "category": [
          {
            "coding": [
              {
                "system": "http://terminology.hl7.org/CodeSystem/observation-category",
                "code": "laboratory"
              }
            ]
          }
        ],
        "code": {
          "coding": [
            {
              "code": "38483-4",
              "system": "http://loinc.org",
              "display": "Creatinine [Mass/volume] in Blood"
            }
          ],
          "text": "Creatinine [Mass/volume] in Blood"
        },
        "valueQuantity": {
          "system": "http://unitsofmeasure.org",
          "value": 2.6,
          "unit": "mg/dL",
          "code": "mg/dL"
        },
        "referenceRange": [
          {
            "low": {
              "value": 0.6,
              "code": "mg/dL",
              "system": "http://unitsofmeasure.org"
            }
          },
          {
            "high": {
              "value": 1.3,
              "code": "mg/dL",
              "system": "http://unitsofmeasure.org"
            }
          }
        ],
        "interpretation": [
          {
            "coding": [
              {
                "code": "H",
                "system": "http://terminology.hl7.org/CodeSystem/v3-ObservationInterpretation",
                "display": "High"
              }
            ]
          }
        ],
        "text": {
          "status": "generated",
          "div": "<div xmlns=\"http://www.w3.org/1999/xhtml\"><table class=\"hl7__eu__lab__report\"><tr><th>Test</th><th>06-May-2017</th><th>Reference&#xA0;Range</th><th>Unit</th></tr><tr><td>Creatinine [Mass/volume] in Blood</td><td>2.6</td><td>0.6 - 1.3</td><td>H</td><td>mg/dL</td></tr></table></div>"
        },
        "status": "final",
        "subject": {
          "reference": "urn:uuid:9ff97b87-db0f-473d-8bd9-a3085cf21f88",
          "display": "Aniela Prażmo"
        },
        "effectiveDateTime": "2017-05-06T13:25:25Z",
        "specimen": {
          "reference": "urn:uuid:96ae19c2-ec7f-40c2-99dd-3273b2a7ba27"
        }
      }
    },
    {
      "fullUrl": "urn:uuid:a692f9bd-ec20-45bf-9938-ffe19afb250f",
      "resource": {
        "resourceType": "Observation",
        "id": "a692f9bd-ec20-45bf-9938-ffe19afb250f",
        "meta": {
          "profile": [
            "http://hl7.eu/fhir/laboratory/StructureDefinition/Observation-resultslab-eu-lab"
          ]
        },
        "performer": [
          {
            "display": "The Central European Lab"
          }
        ],
        "category": [
          {
            "coding": [
              {
                "system": "http://terminology.hl7.org/CodeSystem/observation-category",
                "code": "laboratory"
              }
            ]
          }
        ],
        "code": {
          "coding": [
            {
              "code": "49765-1",
              "system": "http://loinc.org",
              "display": "Calcium [Mass/volume] in Blood"
            }
          ],
          "text": "Calcium [Mass/volume] in Blood"
        },
        "valueQuantity": {
          "system": "http://unitsofmeasure.org",
          "value": 9,
          "unit": "mg/dL",
          "code": "mg/dL"
        },
        "referenceRange": [
          {
            "low": {
              "value": 8.5,
              "code": "mg/dL",
              "system": "http://unitsofmeasure.org"
            }
          },
          {
            "high": {
              "value": 10.5,
              "code": "mg/dL",
              "system": "http://unitsofmeasure.org"
            }
          }
        ],
        "text": {
          "status": "generated",
          "div": "<div xmlns=\"http://www.w3.org/1999/xhtml\"><table class=\"hl7__eu__lab__report\"><tr><th>Test</th><th>06-May-2017</th><th>Reference&#xA0;Range</th><th>Unit</th></tr><tr><td>Calcium [Mass/volume] in Blood</td><td>9.0</td><td>8.5 - 10.5</td><td></td><td>mg/dL</td></tr></table></div>"
        },
        "status": "final",
        "subject": {
          "reference": "urn:uuid:9ff97b87-db0f-473d-8bd9-a3085cf21f88",
          "display": "Aniela Prażmo"
        },
        "effectiveDateTime": "2017-05-06T13:25:25Z",
        "specimen": {
          "reference": "urn:uuid:96ae19c2-ec7f-40c2-99dd-3273b2a7ba27"
        }
      }
    },
    {
      "fullUrl": "urn:uuid:46f29e0c-af36-471d-a797-303e1b15628b",
      "resource": {
        "resourceType": "Observation",
        "id": "46f29e0c-af36-471d-a797-303e1b15628b",
        "meta": {
          "profile": [
            "http://hl7.eu/fhir/laboratory/StructureDefinition/Observation-resultslab-eu-lab"
          ]
        },
        "performer": [
          {
            "display": "The Central European Lab"
          }
        ],
        "category": [
          {
            "coding": [
              {
                "system": "http://terminology.hl7.org/CodeSystem/observation-category",
                "code": "laboratory"
              }
            ]
          }
        ],
        "code": {
          "coding": [
            {
              "code": "2947-0",
              "system": "http://loinc.org",
              "display": "Sodium [Moles/volume] in Blood"
            }
          ],
          "text": "Sodium [Moles/volume] in Blood"
        },
        "valueQuantity": {
          "system": "http://unitsofmeasure.org",
          "value": 143.8,
          "unit": "mmol/L",
          "code": "mmol/L"
        },
        "referenceRange": [
          {
            "low": {
              "value": 135,
              "code": "mmol/L",
              "system": "http://unitsofmeasure.org"
            }
          },
          {
            "high": {
              "value": 145,
              "code": "mmol/L",
              "system": "http://unitsofmeasure.org"
            }
          }
        ],
        "text": {
          "status": "generated",
          "div": "<div xmlns=\"http://www.w3.org/1999/xhtml\"><table class=\"hl7__eu__lab__report\"><tr><th>Test</th><th>06-May-2017</th><th>Reference&#xA0;Range</th><th>Unit</th></tr><tr><td>Sodium [Moles/volume] in Blood</td><td>143.8</td><td>135 - 145</td><td></td><td>mmol/L</td></tr></table></div>"
        },
        "status": "final",
        "subject": {
          "reference": "urn:uuid:9ff97b87-db0f-473d-8bd9-a3085cf21f88",
          "display": "Aniela Prażmo"
        },
        "effectiveDateTime": "2017-05-06T13:25:25Z",
        "specimen": {
          "reference": "urn:uuid:96ae19c2-ec7f-40c2-99dd-3273b2a7ba27"
        }
      }
    },
    {
      "fullUrl": "urn:uuid:7c3a82fc-d990-4847-ad56-0287c6a05082",
      "resource": {
        "resourceType": "Observation",
        "id": "7c3a82fc-d990-4847-ad56-0287c6a05082",
        "meta": {
          "profile": [
            "http://hl7.eu/fhir/laboratory/StructureDefinition/Observation-resultslab-eu-lab"
          ]
        },
        "performer": [
          {
            "display": "The Central European Lab"
          }
        ],
        "category": [
          {
            "coding": [
              {
                "system": "http://terminology.hl7.org/CodeSystem/observation-category",
                "code": "laboratory"
              }
            ]
          }
        ],
        "code": {
          "coding": [
            {
              "code": "6298-4",
              "system": "http://loinc.org",
              "display": "Potassium [Moles/volume] in Blood"
            }
          ],
          "text": "Potassium [Moles/volume] in Blood"
        },
        "valueQuantity": {
          "system": "http://unitsofmeasure.org",
          "value": 5.2,
          "unit": "mmol/L",
          "code": "mmol/L"
        },
        "referenceRange": [
          {
            "low": {
              "value": 3.6,
              "code": "mmol/L",
              "system": "http://unitsofmeasure.org"
            }
          },
          {
            "high": {
              "value": 5.1,
              "code": "mmol/L",
              "system": "http://unitsofmeasure.org"
            }
          }
        ],
        "interpretation": [
          {
            "coding": [
              {
                "code": "H",
                "system": "http://terminology.hl7.org/CodeSystem/v3-ObservationInterpretation",
                "display": "High"
              }
            ]
          }
        ],
        "text": {
          "status": "generated",
          "div": "<div xmlns=\"http://www.w3.org/1999/xhtml\"><table class=\"hl7__eu__lab__report\"><tr><th>Test</th><th>06-May-2017</th><th>Reference&#xA0;Range</th><th>Unit</th></tr><tr><td>Potassium [Moles/volume] in Blood</td><td>5.2</td><td>3.6 - 5.1</td><td>H</td><td>mmol/L</td></tr></table></div>"
        },
        "status": "final",
        "subject": {
          "reference": "urn:uuid:9ff97b87-db0f-473d-8bd9-a3085cf21f88",
          "display": "Aniela Prażmo"
        },
        "effectiveDateTime": "2017-05-06T13:25:25Z",
        "specimen": {
          "reference": "urn:uuid:96ae19c2-ec7f-40c2-99dd-3273b2a7ba27"
        }
      }
    },
    {
      "fullUrl": "urn:uuid:7744b8b2-757d-4fc6-9a2d-efbd453e9d7e",
      "resource": {
        "resourceType": "Observation",
        "id": "7744b8b2-757d-4fc6-9a2d-efbd453e9d7e",
        "meta": {
          "profile": [
            "http://hl7.eu/fhir/laboratory/StructureDefinition/Observation-resultslab-eu-lab"
          ]
        },
        "performer": [
          {
            "display": "The Central European Lab"
          }
        ],
        "category": [
          {
            "coding": [
              {
                "system": "http://terminology.hl7.org/CodeSystem/observation-category",
                "code": "laboratory"
              }
            ]
          }
        ],
        "code": {
          "coding": [
            {
              "code": "2069-3",
              "system": "http://loinc.org",
              "display": "Chloride [Moles/volume] in Blood"
            }
          ],
          "text": "Chloride [Moles/volume] in Blood"
        },
        "valueQuantity": {
          "system": "http://unitsofmeasure.org",
          "value": 103.3,
          "unit": "mmol/L",
          "code": "mmol/L"
        },
        "referenceRange": [
          {
            "low": {
              "value": 98,
              "code": "mmol/L",
              "system": "http://unitsofmeasure.org"
            }
          },
          {
            "high": {
              "value": 107,
              "code": "mmol/L",
              "system": "http://unitsofmeasure.org"
            }
          }
        ],
        "text": {
          "status": "generated",
          "div": "<div xmlns=\"http://www.w3.org/1999/xhtml\"><table class=\"hl7__eu__lab__report\"><tr><th>Test</th><th>06-May-2017</th><th>Reference&#xA0;Range</th><th>Unit</th></tr><tr><td>Chloride [Moles/volume] in Blood</td><td>103.3</td><td>98 - 107</td><td></td><td>mmol/L</td></tr></table></div>"
        },
        "status": "final",
        "subject": {
          "reference": "urn:uuid:9ff97b87-db0f-473d-8bd9-a3085cf21f88",
          "display": "Aniela Prażmo"
        },
        "effectiveDateTime": "2017-05-06T13:25:25Z",
        "specimen": {
          "reference": "urn:uuid:96ae19c2-ec7f-40c2-99dd-3273b2a7ba27"
        }
      }
    },
    {
      "fullUrl": "urn:uuid:8dbf4724-d136-4054-b163-087186f02306",
      "resource": {
        "resourceType": "Observation",
        "id": "8dbf4724-d136-4054-b163-087186f02306",
        "meta": {
          "profile": [
            "http://hl7.eu/fhir/laboratory/StructureDefinition/Observation-resultslab-eu-lab"
          ]
        },
        "performer": [
          {
            "display": "The Central European Lab"
          }
        ],
        "category": [
          {
            "coding": [
              {
                "system": "http://terminology.hl7.org/CodeSystem/observation-category",
                "code": "laboratory"
              }
            ]
          }
        ],
        "code": {
          "coding": [
            {
              "code": "20565-8",
              "system": "http://loinc.org",
              "display": "Carbon dioxide, total [Moles/volume] in Blood"
            }
          ],
          "text": "Carbon dioxide, total [Moles/volume] in Blood"
        },
        "valueQuantity": {
          "system": "http://unitsofmeasure.org",
          "value": 25,
          "unit": "mmol/L",
          "code": "mmol/L"
        },
        "referenceRange": [
          {
            "low": {
              "value": 22,
              "code": "mmol/L",
              "system": "http://unitsofmeasure.org"
            }
          },
          {
            "high": {
              "value": 32,
              "code": "mmol/L",
              "system": "http://unitsofmeasure.org"
            }
          }
        ],
        "text": {
          "status": "generated",
          "div": "<div xmlns=\"http://www.w3.org/1999/xhtml\"><table class=\"hl7__eu__lab__report\"><tr><th>Test</th><th>06-May-2017</th><th>Reference&#xA0;Range</th><th>Unit</th></tr><tr><td>Carbon dioxide, total [Moles/volume] in Blood</td><td>25.0</td><td>22 - 32</td><td></td><td>mmol/L</td></tr></table></div>"
        },
        "status": "final",
        "subject": {
          "reference": "urn:uuid:9ff97b87-db0f-473d-8bd9-a3085cf21f88",
          "display": "Aniela Prażmo"
        },
        "effectiveDateTime": "2017-05-06T13:25:25Z",
        "specimen": {
          "reference": "urn:uuid:96ae19c2-ec7f-40c2-99dd-3273b2a7ba27"
        }
      }
    },
    {
      "fullUrl": "urn:uuid:5de7d1e1-a391-49ef-a34f-8a9ac4ed4c16",
      "resource": {
        "resourceType": "Observation",
        "id": "5de7d1e1-a391-49ef-a34f-8a9ac4ed4c16",
        "meta": {
          "profile": [
            "http://hl7.eu/fhir/laboratory/StructureDefinition/Observation-resultslab-eu-lab"
          ]
        },
        "performer": [
          {
            "display": "The Central European Lab"
          }
        ],
        "category": [
          {
            "coding": [
              {
                "system": "http://terminology.hl7.org/CodeSystem/observation-category",
                "code": "laboratory"
              }
            ]
          }
        ],
        "code": {
          "coding": [
            {
              "code": "2885-2",
              "system": "http://loinc.org",
              "display": "Protein [Mass/volume] in Serum or Plasma"
            }
          ],
          "text": "Protein [Mass/volume] in Serum or Plasma"
        },
        "valueQuantity": {
          "system": "http://unitsofmeasure.org",
          "value": 6,
          "unit": "g/dL",
          "code": "g/dL"
        },
        "referenceRange": [
          {
            "low": {
              "value": 6,
              "code": "g/dL",
              "system": "http://unitsofmeasure.org"
            }
          },
          {
            "high": {
              "value": 8.3,
              "code": "g/dL",
              "system": "http://unitsofmeasure.org"
            }
          }
        ],
        "text": {
          "status": "generated",
          "div": "<div xmlns=\"http://www.w3.org/1999/xhtml\"><table class=\"hl7__eu__lab__report\"><tr><th>Test</th><th>06-May-2017</th><th>Reference&#xA0;Range</th><th>Unit</th></tr><tr><td>Protein [Mass/volume] in Serum or Plasma</td><td>6.0</td><td>6 - 8.3</td><td></td><td>g/dL</td></tr></table></div>"
        },
        "status": "final",
        "subject": {
          "reference": "urn:uuid:9ff97b87-db0f-473d-8bd9-a3085cf21f88",
          "display": "Aniela Prażmo"
        },
        "effectiveDateTime": "2017-05-06T13:25:25Z",
        "specimen": {
          "reference": "urn:uuid:68f7cb98-fbff-41fc-9ebb-6902023e8528"
        }
      }
    },
    {
      "fullUrl": "urn:uuid:77d9d492-c3ae-4992-99a2-60cb7ed5fff4",
      "resource": {
        "resourceType": "Observation",
        "id": "77d9d492-c3ae-4992-99a2-60cb7ed5fff4",
        "meta": {
          "profile": [
            "http://hl7.eu/fhir/laboratory/StructureDefinition/Observation-resultslab-eu-lab"
          ]
        },
        "performer": [
          {
            "display": "The Central European Lab"
          }
        ],
        "category": [
          {
            "coding": [
              {
                "system": "http://terminology.hl7.org/CodeSystem/observation-category",
                "code": "laboratory"
              }
            ]
          }
        ],
        "code": {
          "coding": [
            {
              "code": "1751-7",
              "system": "http://loinc.org",
              "display": "Albumin [Mass/volume] in Serum or Plasma"
            }
          ],
          "text": "Albumin [Mass/volume] in Serum or Plasma"
        },
        "valueQuantity": {
          "system": "http://unitsofmeasure.org",
          "value": 5.5,
          "unit": "g/dL",
          "code": "g/dL"
        },
        "referenceRange": [
          {
            "low": {
              "value": 3.5,
              "code": "g/dL",
              "system": "http://unitsofmeasure.org"
            }
          },
          {
            "high": {
              "value": 5,
              "code": "g/dL",
              "system": "http://unitsofmeasure.org"
            }
          }
        ],
        "interpretation": [
          {
            "coding": [
              {
                "code": "H",
                "system": "http://terminology.hl7.org/CodeSystem/v3-ObservationInterpretation",
                "display": "High"
              }
            ]
          }
        ],
        "text": {
          "status": "generated",
          "div": "<div xmlns=\"http://www.w3.org/1999/xhtml\"><table class=\"hl7__eu__lab__report\"><tr><th>Test</th><th>06-May-2017</th><th>Reference&#xA0;Range</th><th>Unit</th></tr><tr><td>Albumin [Mass/volume] in Serum or Plasma</td><td>5.5</td><td>3.5 - 5</td><td>H</td><td>g/dL</td></tr></table></div>"
        },
        "status": "final",
        "subject": {
          "reference": "urn:uuid:9ff97b87-db0f-473d-8bd9-a3085cf21f88",
          "display": "Aniela Prażmo"
        },
        "effectiveDateTime": "2017-05-06T13:25:25Z",
        "specimen": {
          "reference": "urn:uuid:68f7cb98-fbff-41fc-9ebb-6902023e8528"
        }
      }
    },
    {
      "fullUrl": "urn:uuid:21c92953-5cc0-4d3c-8fe2-c0c722176fb2",
      "resource": {
        "resourceType": "Observation",
        "id": "21c92953-5cc0-4d3c-8fe2-c0c722176fb2",
        "meta": {
          "profile": [
            "http://hl7.eu/fhir/laboratory/StructureDefinition/Observation-resultslab-eu-lab"
          ]
        },
        "performer": [
          {
            "display": "The Central European Lab"
          }
        ],
        "category": [
          {
            "coding": [
              {
                "system": "http://terminology.hl7.org/CodeSystem/observation-category",
                "code": "laboratory"
              }
            ]
          }
        ],
        "code": {
          "coding": [
            {
              "code": "10834-0",
              "system": "http://loinc.org",
              "display": "Globulin [Mass/volume] in Serum by calculation"
            }
          ],
          "text": "Globulin [Mass/volume] in Serum by calculation"
        },
        "valueQuantity": {
          "system": "http://unitsofmeasure.org",
          "value": 3.2,
          "unit": "g/L",
          "code": "g/L"
        },
        "referenceRange": [
          {
            "low": {
              "value": 2,
              "code": "g/L",
              "system": "http://unitsofmeasure.org"
            }
          },
          {
            "high": {
              "value": 3.9,
              "code": "g/L",
              "system": "http://unitsofmeasure.org"
            }
          }
        ],
        "text": {
          "status": "generated",
          "div": "<div xmlns=\"http://www.w3.org/1999/xhtml\"><table class=\"hl7__eu__lab__report\"><tr><th>Test</th><th>06-May-2017</th><th>Reference&#xA0;Range</th><th>Unit</th></tr><tr><td>Globulin [Mass/volume] in Serum by calculation</td><td>3.2</td><td>2 - 3.9</td><td></td><td>g/L</td></tr></table></div>"
        },
        "status": "final",
        "subject": {
          "reference": "urn:uuid:9ff97b87-db0f-473d-8bd9-a3085cf21f88",
          "display": "Aniela Prażmo"
        },
        "effectiveDateTime": "2017-05-06T13:25:25Z",
        "specimen": {
          "reference": "urn:uuid:35fbf049-5dd3-44cf-b462-0ee70249c769"
        }
      }
    },
    {
      "fullUrl": "urn:uuid:2c5265c9-0d97-4cdb-b903-1e831a9e5168",
      "resource": {
        "resourceType": "Observation",
        "id": "2c5265c9-0d97-4cdb-b903-1e831a9e5168",
        "meta": {
          "profile": [
            "http://hl7.eu/fhir/laboratory/StructureDefinition/Observation-resultslab-eu-lab"
          ]
        },
        "performer": [
          {
            "display": "The Central European Lab"
          }
        ],
        "category": [
          {
            "coding": [
              {
                "system": "http://terminology.hl7.org/CodeSystem/observation-category",
                "code": "laboratory"
              }
            ]
          }
        ],
        "code": {
          "coding": [
            {
              "code": "1975-2",
              "system": "http://loinc.org",
              "display": "Bilirubin.total [Mass/volume] in Serum or Plasma"
            }
          ],
          "text": "Bilirubin.total [Mass/volume] in Serum or Plasma"
        },
        "valueQuantity": {
          "system": "http://unitsofmeasure.org",
          "value": 0.6,
          "unit": "mg/dL",
          "code": "mg/dL"
        },
        "referenceRange": [
          {
            "low": {
              "value": 0.3,
              "code": "mg/dL",
              "system": "http://unitsofmeasure.org"
            }
          },
          {
            "high": {
              "value": 1.2,
              "code": "mg/dL",
              "system": "http://unitsofmeasure.org"
            }
          }
        ],
        "text": {
          "status": "generated",
          "div": "<div xmlns=\"http://www.w3.org/1999/xhtml\"><table class=\"hl7__eu__lab__report\"><tr><th>Test</th><th>06-May-2017</th><th>Reference&#xA0;Range</th><th>Unit</th></tr><tr><td>Bilirubin.total [Mass/volume] in Serum or Plasma</td><td>0.6</td><td>0.3 - 1.2</td><td></td><td>mg/dL</td></tr></table></div>"
        },
        "status": "final",
        "subject": {
          "reference": "urn:uuid:9ff97b87-db0f-473d-8bd9-a3085cf21f88",
          "display": "Aniela Prażmo"
        },
        "effectiveDateTime": "2017-05-06T13:25:25Z",
        "specimen": {
          "reference": "urn:uuid:68f7cb98-fbff-41fc-9ebb-6902023e8528"
        }
      }
    },
    {
      "fullUrl": "urn:uuid:92a47b87-09cb-4516-8615-7cdc4e78c7b5",
      "resource": {
        "resourceType": "Observation",
        "id": "92a47b87-09cb-4516-8615-7cdc4e78c7b5",
        "meta": {
          "profile": [
            "http://hl7.eu/fhir/laboratory/StructureDefinition/Observation-resultslab-eu-lab"
          ]
        },
        "performer": [
          {
            "display": "The Central European Lab"
          }
        ],
        "category": [
          {
            "coding": [
              {
                "system": "http://terminology.hl7.org/CodeSystem/observation-category",
                "code": "laboratory"
              }
            ]
          }
        ],
        "code": {
          "coding": [
            {
              "code": "6768-6",
              "system": "http://loinc.org",
              "display": "Alkaline phosphatase [Enzymatic activity/volume] in Serum or Plasma"
            }
          ],
          "text": "Alkaline phosphatase [Enzymatic activity/volume] in Serum or Plasma"
        },
        "valueQuantity": {
          "system": "http://unitsofmeasure.org",
          "value": 63.9,
          "unit": "U/L",
          "code": "U/L"
        },
        "referenceRange": [
          {
            "low": {
              "value": 32,
              "code": "U/L",
              "system": "http://unitsofmeasure.org"
            }
          },
          {
            "high": {
              "value": 150,
              "code": "U/L",
              "system": "http://unitsofmeasure.org"
            }
          }
        ],
        "text": {
          "status": "generated",
          "div": "<div xmlns=\"http://www.w3.org/1999/xhtml\"><table class=\"hl7__eu__lab__report\"><tr><th>Test</th><th>06-May-2017</th><th>Reference&#xA0;Range</th><th>Unit</th></tr><tr><td>Alkaline phosphatase [Enzymatic activity/volume] in Serum or Plasma</td><td>63.9</td><td>32 - 150</td><td></td><td>U/L</td></tr></table></div>"
        },
        "status": "final",
        "subject": {
          "reference": "urn:uuid:9ff97b87-db0f-473d-8bd9-a3085cf21f88",
          "display": "Aniela Prażmo"
        },
        "effectiveDateTime": "2017-05-06T13:25:25Z",
        "specimen": {
          "reference": "urn:uuid:68f7cb98-fbff-41fc-9ebb-6902023e8528"
        }
      }
    },
    {
      "fullUrl": "urn:uuid:1ef585cb-6e6c-4474-82c8-f777ee7ba1be",
      "resource": {
        "resourceType": "Observation",
        "id": "1ef585cb-6e6c-4474-82c8-f777ee7ba1be",
        "meta": {
          "profile": [
            "http://hl7.eu/fhir/laboratory/StructureDefinition/Observation-resultslab-eu-lab"
          ]
        },
        "performer": [
          {
            "display": "The Central European Lab"
          }
        ],
        "category": [
          {
            "coding": [
              {
                "system": "http://terminology.hl7.org/CodeSystem/observation-category",
                "code": "laboratory"
              }
            ]
          }
        ],
        "code": {
          "coding": [
            {
              "code": "1742-6",
              "system": "http://loinc.org",
              "display": "Alanine aminotransferase [Enzymatic activity/volume] in Serum or Plasma"
            }
          ],
          "text": "Alanine aminotransferase [Enzymatic activity/volume] in Serum or Plasma"
        },
        "valueQuantity": {
          "system": "http://unitsofmeasure.org",
          "value": 39.7,
          "unit": "U/L",
          "code": "U/L"
        },
        "referenceRange": [
          {
            "low": {
              "value": 13,
              "code": "U/L",
              "system": "http://unitsofmeasure.org"
            }
          },
          {
            "high": {
              "value": 32,
              "code": "U/L",
              "system": "http://unitsofmeasure.org"
            }
          }
        ],
        "interpretation": [
          {
            "coding": [
              {
                "code": "H",
                "system": "http://terminology.hl7.org/CodeSystem/v3-ObservationInterpretation",
                "display": "High"
              }
            ]
          }
        ],
        "text": {
          "status": "generated",
          "div": "<div xmlns=\"http://www.w3.org/1999/xhtml\"><table class=\"hl7__eu__lab__report\"><tr><th>Test</th><th>06-May-2017</th><th>Reference&#xA0;Range</th><th>Unit</th></tr><tr><td>Alanine aminotransferase [Enzymatic activity/volume] in Serum or Plasma</td><td>39.7</td><td>13 - 32</td><td>H</td><td>U/L</td></tr></table></div>"
        },
        "status": "final",
        "subject": {
          "reference": "urn:uuid:9ff97b87-db0f-473d-8bd9-a3085cf21f88",
          "display": "Aniela Prażmo"
        },
        "effectiveDateTime": "2017-05-06T13:25:25Z",
        "specimen": {
          "reference": "urn:uuid:68f7cb98-fbff-41fc-9ebb-6902023e8528"
        }
      }
    },
    {
      "fullUrl": "urn:uuid:f82be2a0-2ced-4cc7-b7f7-273d8de780b7",
      "resource": {
        "resourceType": "Observation",
        "id": "f82be2a0-2ced-4cc7-b7f7-273d8de780b7",
        "meta": {
          "profile": [
            "http://hl7.eu/fhir/laboratory/StructureDefinition/Observation-resultslab-eu-lab"
          ]
        },
        "performer": [
          {
            "display": "The Central European Lab"
          }
        ],
        "category": [
          {
            "coding": [
              {
                "system": "http://terminology.hl7.org/CodeSystem/observation-category",
                "code": "laboratory"
              }
            ]
          }
        ],
        "code": {
          "coding": [
            {
              "code": "1920-8",
              "system": "http://loinc.org",
              "display": "Aspartate aminotransferase [Enzymatic activity/volume] in Serum or Plasma"
            }
          ],
          "text": "Aspartate aminotransferase [Enzymatic activity/volume] in Serum or Plasma"
        },
        "valueQuantity": {
          "system": "http://unitsofmeasure.org",
          "value": 39.7,
          "unit": "U/L",
          "code": "U/L"
        },
        "referenceRange": [
          {
            "low": {
              "value": 10,
              "code": "U/L",
              "system": "http://unitsofmeasure.org"
            }
          },
          {
            "high": {
              "value": 40,
              "code": "U/L",
              "system": "http://unitsofmeasure.org"
            }
          }
        ],
        "text": {
          "status": "generated",
          "div": "<div xmlns=\"http://www.w3.org/1999/xhtml\"><table class=\"hl7__eu__lab__report\"><tr><th>Test</th><th>06-May-2017</th><th>Reference&#xA0;Range</th><th>Unit</th></tr><tr><td>Aspartate aminotransferase [Enzymatic activity/volume] in Serum or Plasma</td><td>39.7</td><td>10 - 40</td><td></td><td>U/L</td></tr></table></div>"
        },
        "status": "final",
        "subject": {
          "reference": "urn:uuid:9ff97b87-db0f-473d-8bd9-a3085cf21f88",
          "display": "Aniela Prażmo"
        },
        "effectiveDateTime": "2017-05-06T13:25:25Z",
        "specimen": {
          "reference": "urn:uuid:68f7cb98-fbff-41fc-9ebb-6902023e8528"
        }
      }
    },
    {
      "fullUrl": "urn:uuid:968f5ab4-f30a-4b32-b078-2efa7d968d97",
      "resource": {
        "resourceType": "Observation",
        "id": "968f5ab4-f30a-4b32-b078-2efa7d968d97",
        "meta": {
          "profile": [
            "http://hl7.eu/fhir/laboratory/StructureDefinition/Observation-resultslab-eu-lab"
          ]
        },
        "performer": [
          {
            "display": "The Central European Lab"
          }
        ],
        "category": [
          {
            "coding": [
              {
                "system": "http://terminology.hl7.org/CodeSystem/observation-category",
                "code": "laboratory"
              }
            ]
          }
        ],
        "code": {
          "coding": [
            {
              "code": "2093-3",
              "system": "http://loinc.org",
              "display": "Cholesterol [Mass/volume] in Serum or Plasma"
            }
          ],
          "text": "Cholesterol [Mass/volume] in Serum or Plasma"
        },
        "valueQuantity": {
          "system": "http://unitsofmeasure.org",
          "value": 284.2,
          "unit": "mg/dL",
          "code": "mg/dL"
        },
        "referenceRange": [
          {
            "low": {
              "value": 130,
              "code": "mg/dL",
              "system": "http://unitsofmeasure.org"
            }
          },
          {
            "high": {
              "value": 200,
              "code": "mg/dL",
              "system": "http://unitsofmeasure.org"
            }
          }
        ],
        "interpretation": [
          {
            "coding": [
              {
                "code": "H",
                "system": "http://terminology.hl7.org/CodeSystem/v3-ObservationInterpretation",
                "display": "High"
              }
            ]
          }
        ],
        "text": {
          "status": "generated",
          "div": "<div xmlns=\"http://www.w3.org/1999/xhtml\"><table class=\"hl7__eu__lab__report\"><tr><th>Test</th><th>06-May-2017</th><th>Reference&#xA0;Range</th><th>Unit</th></tr><tr><td>Cholesterol [Mass/volume] in Serum or Plasma</td><td>284.2</td><td>130 - 200</td><td>H</td><td>mg/dL</td></tr></table></div>"
        },
        "status": "final",
        "subject": {
          "reference": "urn:uuid:9ff97b87-db0f-473d-8bd9-a3085cf21f88",
          "display": "Aniela Prażmo"
        },
        "effectiveDateTime": "2017-05-06T13:25:25Z",
        "specimen": {
          "reference": "urn:uuid:68f7cb98-fbff-41fc-9ebb-6902023e8528"
        }
      }
    },
    {
      "fullUrl": "urn:uuid:d0475a26-5b09-42f1-ba4d-f52d01e3df4e",
      "resource": {
        "resourceType": "Observation",
        "id": "d0475a26-5b09-42f1-ba4d-f52d01e3df4e",
        "meta": {
          "profile": [
            "http://hl7.eu/fhir/laboratory/StructureDefinition/Observation-resultslab-eu-lab"
          ]
        },
        "performer": [
          {
            "display": "The Central European Lab"
          }
        ],
        "category": [
          {
            "coding": [
              {
                "system": "http://terminology.hl7.org/CodeSystem/observation-category",
                "code": "laboratory"
              }
            ]
          }
        ],
        "code": {
          "coding": [
            {
              "code": "2571-8",
              "system": "http://loinc.org",
              "display": "Triglyceride [Mass/volume] in Serum or Plasma"
            }
          ],
          "text": "Triglyceride [Mass/volume] in Serum or Plasma"
        },
        "valueQuantity": {
          "system": "http://unitsofmeasure.org",
          "value": 130.5,
          "unit": "mg/dL",
          "code": "mg/dL"
        },
        "referenceRange": [
          {
            "low": {
              "value": 0,
              "code": "mg/dL",
              "system": "http://unitsofmeasure.org"
            }
          },
          {
            "high": {
              "value": 199,
              "code": "mg/dL",
              "system": "http://unitsofmeasure.org"
            }
          }
        ],
        "text": {
          "status": "generated",
          "div": "<div xmlns=\"http://www.w3.org/1999/xhtml\"><table class=\"hl7__eu__lab__report\"><tr><th>Test</th><th>06-May-2017</th><th>Reference&#xA0;Range</th><th>Unit</th></tr><tr><td>Triglyceride [Mass/volume] in Serum or Plasma</td><td>130.5</td><td>0 - 199</td><td></td><td>mg/dL</td></tr></table></div>"
        },
        "status": "final",
        "subject": {
          "reference": "urn:uuid:9ff97b87-db0f-473d-8bd9-a3085cf21f88",
          "display": "Aniela Prażmo"
        },
        "effectiveDateTime": "2017-05-06T13:25:25Z",
        "specimen": {
          "reference": "urn:uuid:68f7cb98-fbff-41fc-9ebb-6902023e8528"
        }
      }
    },
    {
      "fullUrl": "urn:uuid:7e8ac7c1-825a-4ad3-bd15-b3f3ac40cc51",
      "resource": {
        "resourceType": "Observation",
        "id": "7e8ac7c1-825a-4ad3-bd15-b3f3ac40cc51",
        "meta": {
          "profile": [
            "http://hl7.eu/fhir/laboratory/StructureDefinition/Observation-resultslab-eu-lab"
          ]
        },
        "performer": [
          {
            "display": "The Central European Lab"
          }
        ],
        "category": [
          {
            "coding": [
              {
                "system": "http://terminology.hl7.org/CodeSystem/observation-category",
                "code": "laboratory"
              }
            ]
          }
        ],
        "code": {
          "coding": [
            {
              "code": "18262-6",
              "system": "http://loinc.org",
              "display": "Cholesterol in LDL [Mass/volume] in Serum or Plasma by Direct assay"
            }
          ],
          "text": "Cholesterol in LDL [Mass/volume] in Serum or Plasma by Direct assay"
        },
        "valueQuantity": {
          "system": "http://unitsofmeasure.org",
          "value": 198.5,
          "unit": "mg/dL",
          "code": "mg/dL"
        },
        "referenceRange": [
          {
            "low": {
              "value": 0,
              "code": "mg/dL",
              "system": "http://unitsofmeasure.org"
            }
          },
          {
            "high": {
              "value": 130,
              "code": "mg/dL",
              "system": "http://unitsofmeasure.org"
            }
          }
        ],
        "interpretation": [
          {
            "coding": [
              {
                "code": "H",
                "system": "http://terminology.hl7.org/CodeSystem/v3-ObservationInterpretation",
                "display": "High"
              }
            ]
          }
        ],
        "text": {
          "status": "generated",
          "div": "<div xmlns=\"http://www.w3.org/1999/xhtml\"><table class=\"hl7__eu__lab__report\"><tr><th>Test</th><th>06-May-2017</th><th>Reference&#xA0;Range</th><th>Unit</th></tr><tr><td>Cholesterol in LDL [Mass/volume] in Serum or Plasma by Direct assay</td><td>198.5</td><td>0 - 130</td><td>H</td><td>mg/dL</td></tr></table></div>"
        },
        "status": "final",
        "subject": {
          "reference": "urn:uuid:9ff97b87-db0f-473d-8bd9-a3085cf21f88",
          "display": "Aniela Prażmo"
        },
        "effectiveDateTime": "2017-05-06T13:25:25Z",
        "specimen": {
          "reference": "urn:uuid:68f7cb98-fbff-41fc-9ebb-6902023e8528"
        }
      }
    },
    {
      "fullUrl": "urn:uuid:ea23e10c-e098-4f0c-8b0f-d1e9a1f55b44",
      "resource": {
        "resourceType": "Observation",
        "id": "ea23e10c-e098-4f0c-8b0f-d1e9a1f55b44",
        "meta": {
          "profile": [
            "http://hl7.eu/fhir/laboratory/StructureDefinition/Observation-resultslab-eu-lab"
          ]
        },
        "performer": [
          {
            "display": "The Central European Lab"
          }
        ],
        "category": [
          {
            "coding": [
              {
                "system": "http://terminology.hl7.org/CodeSystem/observation-category",
                "code": "laboratory"
              }
            ]
          }
        ],
        "code": {
          "coding": [
            {
              "code": "2085-9",
              "system": "http://loinc.org",
              "display": "Cholesterol in HDL [Mass/volume] in Serum or Plasma"
            }
          ],
          "text": "Cholesterol in HDL [Mass/volume] in Serum or Plasma"
        },
        "valueQuantity": {
          "system": "http://unitsofmeasure.org",
          "value": 59.6,
          "unit": "mg/dL",
          "code": "mg/dL"
        },
        "referenceRange": [
          {
            "low": {
              "value": 50,
              "code": "mg/dL",
              "system": "http://unitsofmeasure.org"
            }
          },
          {
            "high": {
              "value": 100,
              "code": "mg/dL",
              "system": "http://unitsofmeasure.org"
            }
          }
        ],
        "text": {
          "status": "generated",
          "div": "<div xmlns=\"http://www.w3.org/1999/xhtml\"><table class=\"hl7__eu__lab__report\"><tr><th>Test</th><th>06-May-2017</th><th>Reference&#xA0;Range</th><th>Unit</th></tr><tr><td>Cholesterol in HDL [Mass/volume] in Serum or Plasma</td><td>59.6</td><td>50 - 100</td><td></td><td>mg/dL</td></tr></table></div>"
        },
        "status": "final",
        "subject": {
          "reference": "urn:uuid:9ff97b87-db0f-473d-8bd9-a3085cf21f88",
          "display": "Aniela Prażmo"
        },
        "effectiveDateTime": "2017-05-06T13:25:25Z",
        "specimen": {
          "reference": "urn:uuid:68f7cb98-fbff-41fc-9ebb-6902023e8528"
        }
      }
    },
    {
      "fullUrl": "urn:uuid:2ef19333-a0f1-4b2a-8217-0d42b1d4155f",
      "resource": {
        "resourceType": "Device",
        "id": "2ef19333-a0f1-4b2a-8217-0d42b1d4155f",
        "deviceName": [
          {
            "name": "SYNDERAI Synthetic Generator",
            "type": "manufacturer-name"
          }
        ],
        "version": [
          {
            "value": "5.0"
          }
        ],
        "text": {
          "status": "generated",
          "div": "<div xmlns=\"http://www.w3.org/1999/xhtml\">SYNDERAI Synthetic Generator v5.0</div>"
        },
        "status": "active\"",
        "distinctIdentifier": "synderai-generator-50",
        "manufacturer": "SYNDERAI Project"
      }
    },
    {
      "fullUrl": "urn:uuid:18029eb5-b41e-43c6-8781-4282742148a1",
      "resource": {
        "resourceType": "Provenance",
        "id": "18029eb5-b41e-43c6-8781-4282742148a1",
        "target": [
          {
            "reference": "Patient/9ff97b87-db0f-473d-8bd9-a3085cf21f88"
          },
          {
            "reference": "Bundle/4ac60d41-3554-437c-83f9-0066794cc5b8"
          },
          {
            "reference": "Composition/abe11492-d965-40db-a088-245cc85e4782"
          },
          {
            "reference": "PractitionerRole/07c8468e-0430-4bab-8bd3-4cd19603d846"
          },
          {
            "reference": "Practitioner/a85facca-7870-4cd5-a129-984785c68088"
          },
          {
            "reference": "PractitionerRole/3ec17685-5bb9-4a83-b4d3-04994ad52096"
          },
          {
            "reference": "Organization/926a66e2-f7d7-42ee-8e8d-c32748df4872"
          }
        ],
        "activity": {
          "text": "Synthetic Example Data Generation"
        },
        "policy": [
          "https://synderai.net/synderai-synthetic-data-policy"
        ],
        "agent": [
          {
            "type": {
              "text": "author"
            },
            "who": {
              "reference": "Device/2ef19333-a0f1-4b2a-8217-0d42b1d4155f"
            }
          }
        ],
        "reason": [
          {
            "text": "Interoperability Testing and Training (non-clinical use)"
          }
        ],
        "text": {
          "status": "generated",
          "div": "<div xmlns=\"http://www.w3.org/1999/xhtml\">Provenance for SYNDERAI Synthetic Example Data Resource</div>"
        },
        "recorded": "2017-05-06T15:25:25Z"
      }
    },
    {
      "fullUrl": "urn:uuid:07c8468e-0430-4bab-8bd3-4cd19603d846",
      "resource": {
        "resourceType": "PractitionerRole",
        "id": "07c8468e-0430-4bab-8bd3-4cd19603d846",
        "meta": {
          "profile": [
            "http://hl7.eu/fhir/base/StructureDefinition/practitionerRole-eu"
          ]
        },
        "text": {
          "status": "generated",
          "div": "<div xmlns=\"http://www.w3.org/1999/xhtml\">Laboratory Role Id: 07c8468e-0430-4bab-8bd3-4cd19603d846</div>"
        },
        "practitioner": {
          "reference": "urn:uuid:a85facca-7870-4cd5-a129-984785c68088"
        }
      }
    },
    {
      "fullUrl": "urn:uuid:a85facca-7870-4cd5-a129-984785c68088",
      "resource": {
        "resourceType": "Practitioner",
        "id": "a85facca-7870-4cd5-a129-984785c68088",
        "meta": {
          "profile": [
            "http://hl7.eu/fhir/base/StructureDefinition/practitioner-eu"
          ]
        },
        "identifier": [
          {
            "assigner": {
              "display": "HL7 Europe"
            },
            "system": "urn:oid:2.16.840.1.113883.2.51.999",
            "value": "b658c4cb-47cd-41dd-aec8-2f41460b0f7a"
          }
        ],
        "name": [
          {
            "prefix": [
              "dr"
            ],
            "given": [
              "Ex"
            ],
            "family": "Ample"
          }
        ],
        "address": [
          {
            "line": [
              "Laboratoire Central Européenne",
              "Boulevard du Jardin Botanique 32"
            ],
            "postalCode": "1000",
            "city": "Brussels",
            "country": "Belgium"
          }
        ],
        "text": {
          "status": "generated",
          "div": "<div xmlns=\"http://www.w3.org/1999/xhtml\">Laboratory: Laboratoire Central Européenne, 1000 Brussels, Belgium</div>"
        }
      }
    }
  ],
  "type": "document",
  "timestamp": "2017-05-06T15:25:25Z"
}
