{
  "resourceType": "Bundle",
  "id": "e8a5e255-b1ad-4a5e-98c5-317be8c2fdba",
  "meta": {
    "profile": [
      "http://hl7.eu/fhir/laboratory/StructureDefinition/Bundle-eu-lab"
    ]
  },
  "identifier": {
    "assigner": {
      "display": "HL7 Europe"
    },
    "system": "urn:oid:2.16.840.1.113883.2.51.999",
    "value": "4951c13c-0521-4a2d-8681-23ec7b301fd1"
  },
  "entry": [
    {
      "fullUrl": "urn:uuid:9be903f7-93d7-413b-addc-fa6f384e0404",
      "resource": {
        "resourceType": "Composition",
        "id": "9be903f7-93d7-413b-addc-fa6f384e0404",
        "meta": {
          "profile": [
            "http://hl7.eu/fhir/laboratory/StructureDefinition/Composition-eu-lab"
          ]
        },
        "identifier": {
          "assigner": {
            "display": "HL7 Europe"
          },
          "system": "urn:oid:2.16.840.1.113883.2.51.999",
          "value": "b2cb04b9-f5c5-4de9-bb1f-0cf4f91c0299"
        },
        "author": [
          {
            "reference": "urn:uuid:fda8e69e-7899-4627-8cc1-be65e2cf29f4"
          }
        ],
        "category": [
          {
            "coding": [
              {
                "code": "26436-6",
                "system": "http://loinc.org",
                "display": "Laboratory studies (set)"
              }
            ]
          }
        ],
        "type": {
          "coding": [
            {
              "code": "11502-2",
              "system": "http://loinc.org",
              "display": "Laboratory report"
            }
          ],
          "text": "Laboratory Report"
        },
        "section": [
          {
            "code": {
              "coding": [
                {
                  "code": "26436-6",
                  "system": "http://loinc.org",
                  "display": "Laboratory studies (set)"
                }
              ],
              "text": "Laboratory studies"
            },
            "section": [
              {
                "code": {
                  "coding": [
                    {
                      "code": "$18723-7",
                      "system": "http://loinc.org",
                      "display": "Hematology studies (set)"
                    }
                  ],
                  "text": "Hematology"
                },
                "entry": [
                  {
                    "reference": "urn:uuid:70bcf3ad-ea3f-4685-89ed-37c1e0361793"
                  },
                  {
                    "reference": "urn:uuid:f2158286-2db7-4a63-bac0-dfbc1b4c09e6"
                  },
                  {
                    "reference": "urn:uuid:d7cac303-6ffc-4c9e-94d1-9594769ff9c0"
                  },
                  {
                    "reference": "urn:uuid:694f6cb9-bfe7-49f2-815a-7b12d93d7d89"
                  },
                  {
                    "reference": "urn:uuid:138f27f3-5938-4543-9d79-5192082b9b40"
                  },
                  {
                    "reference": "urn:uuid:413bc9dd-14b3-45c6-8789-281c1263f105"
                  },
                  {
                    "reference": "urn:uuid:7cde9601-263a-4d0e-9bdd-43710d6a618c"
                  },
                  {
                    "reference": "urn:uuid:18766ffa-683b-4049-a12a-875345d5e383"
                  },
                  {
                    "reference": "urn:uuid:1758079c-5685-479a-adcb-488578858174"
                  },
                  {
                    "reference": "urn:uuid:7ce8bae4-2057-4317-90a2-50955833b3d9"
                  },
                  {
                    "reference": "urn:uuid:62f0a938-42dc-4204-89ac-398df6b32820"
                  }
                ],
                "text": {
                  "status": "generated",
                  "div": "<div xmlns=\"http://www.w3.org/1999/xhtml\"><h3>Hematology</h3><table class=\"hl7__eu__lab__report\"><thead><tr><th>Test</th><th>23-JUN-2016</th><th>Reference&#xA0;Range</th><th>Unit</th></tr></thead><tbody><tr><td>Leukocytes [#/volume] in Blood by Automated count</td><td>4.0</td><td>3.6 - 10.5</td><td>10*3/uL</td></tr><tr><td>Erythrocytes [#/volume] in Blood by Automated count</td><td><strong>4.4 L</strong></td><td>4.5 - 5</td><td>10*6/uL</td></tr><tr><td>Hemoglobin [Mass/volume] in Blood</td><td><strong>16.3 H</strong></td><td>12 - 15.5</td><td>g/dL</td></tr><tr><td>Hematocrit [Volume Fraction] of Blood by Automated count</td><td>44.1</td><td>37 - 52</td><td>%</td></tr><tr><td>MCV [Entitic volume] by Automated count</td><td>93.0</td><td>82 - 98</td><td>fL</td></tr><tr><td>MCH [Entitic mass] by Automated count</td><td>31.4</td><td>27 - 34.5</td><td>pg</td></tr><tr><td>MCHC [Mass/volume] by Automated count</td><td>35.5</td><td>32 - 37</td><td>g/dL</td></tr><tr><td>Erythrocyte distribution width [Entitic volume] by Automated count</td><td>44.5</td><td>36 - 55</td><td>fL</td></tr><tr><td>Platelets [#/volume] in Blood by Automated count</td><td>215.2</td><td>150 - 400</td><td>10*3/uL</td></tr><tr><td>Platelet distribution width [Entitic volume] in Blood by Automated count</td><td><strong>233.6 H</strong></td><td>11.6 - 17.4</td><td>fL</td></tr><tr><td>Platelet mean volume [Entitic volume] in Blood by Automated count</td><td>11.9</td><td>7.2 - 13.5</td><td>fL</td></tr></tbody></table></div>"
                },
                "title": "Hematology"
              },
              {
                "code": {
                  "coding": [
                    {
                      "code": "$18719-5",
                      "system": "http://loinc.org",
                      "display": "Chemistry studies (set)"
                    }
                  ],
                  "text": "Chemistry"
                },
                "entry": [
                  {
                    "reference": "urn:uuid:c6a64383-b4d3-4448-881f-f80f75c5249b"
                  },
                  {
                    "reference": "urn:uuid:84143758-45c5-4d57-9d0b-51a53d1e92d9"
                  },
                  {
                    "reference": "urn:uuid:b7c93a58-36c1-413f-b251-306137244b11"
                  },
                  {
                    "reference": "urn:uuid:cf147694-4fd2-430a-a867-822156adcf74"
                  },
                  {
                    "reference": "urn:uuid:ecd3aad4-fbb4-4270-af2c-e405e86ca00e"
                  },
                  {
                    "reference": "urn:uuid:7225f4a5-ecab-4d81-9014-7587f05e074b"
                  },
                  {
                    "reference": "urn:uuid:16197118-2a51-4455-a003-21f2dfd2c463"
                  },
                  {
                    "reference": "urn:uuid:1bb66849-c13c-4a64-bb56-9c4c532c57a1"
                  },
                  {
                    "reference": "urn:uuid:eb0feb86-5d73-4aff-999c-7d461b21f13a"
                  },
                  {
                    "reference": "urn:uuid:26f9d59c-2df8-4baf-8c71-551a75507ec1"
                  },
                  {
                    "reference": "urn:uuid:425ca6a7-7c83-4e7a-888c-b5560380380d"
                  },
                  {
                    "reference": "urn:uuid:25d1ee70-11f7-4b9a-8881-2c4fba3cb147"
                  },
                  {
                    "reference": "urn:uuid:70629e23-85c1-4832-854f-b6200de5ba3a"
                  },
                  {
                    "reference": "urn:uuid:4a370e08-2408-4346-a995-b44a629eaafa"
                  },
                  {
                    "reference": "urn:uuid:16e2e2d4-cddc-4c44-b8dd-dc0ab72b21a3"
                  },
                  {
                    "reference": "urn:uuid:36d0ea3e-bb78-4df7-9ed2-f57d19ba6cd1"
                  },
                  {
                    "reference": "urn:uuid:8dfcf725-fff9-4df5-b977-a7364f89a33d"
                  },
                  {
                    "reference": "urn:uuid:0ccf7585-08f3-4753-abca-700ed056088e"
                  }
                ],
                "text": {
                  "status": "generated",
                  "div": "<div xmlns=\"http://www.w3.org/1999/xhtml\"><h3>Chemistry</h3><table class=\"hl7__eu__lab__report\"><thead><tr><th>Test</th><th>23-JUN-2016</th><th>Reference&#xA0;Range</th><th>Unit</th></tr></thead><tbody><tr><td>Glucose [Mass/volume] in Serum or Plasma</td><td><strong>67.1 L</strong></td><td>70 - 139</td><td>mg/dL</td></tr><tr><td>Urea nitrogen [Mass/volume] in Serum or Plasma</td><td>18.3</td><td>7 - 20</td><td>mg/dL</td></tr><tr><td>Creatinine [Mass/volume] in Serum or Plasma</td><td><strong>1.9 H</strong></td><td>0.6 - 1.1</td><td>mg/dL</td></tr><tr><td>Calcium [Mass/volume] in Serum or Plasma</td><td>8.9</td><td>8.5 - 10.4</td><td>mg/dL</td></tr><tr><td>Sodium [Moles/volume] in Serum or Plasma</td><td>139.7</td><td>135 - 145</td><td>mmol/L</td></tr><tr><td>Potassium [Moles/volume] in Serum or Plasma</td><td><strong>5.2 H</strong></td><td>3.5 - 5.1</td><td>mmol/L</td></tr><tr><td>Chloride [Moles/volume] in Serum or Plasma</td><td>101.8</td><td>98 - 110</td><td>mmol/L</td></tr><tr><td>Carbon dioxide, total [Moles/volume] in Serum or Plasma</td><td>26.6</td><td>22 - 32</td><td>mmol/L</td></tr><tr><td>Ketones [Presence] in Urine by Test strip</td><td>Urine ketone test = +</td><td></td><td></td></tr><tr><td>Hemoglobin A1c/Hemoglobin.total in Blood</td><td><strong>3.1 L</strong></td><td>4 - 6</td><td>%</td></tr><tr><td>Glucose [Mass/volume] in Blood</td><td><strong>67.1 L</strong></td><td>70 - 100</td><td>mg/dL</td></tr><tr><td>Urea nitrogen [Mass/volume] in Blood</td><td>18.3</td><td>7 - 20</td><td>mg/dL</td></tr><tr><td>Creatinine [Mass/volume] in Blood</td><td>1.3</td><td>0.6 - 1.3</td><td>mg/dL</td></tr><tr><td>Calcium [Mass/volume] in Blood</td><td>8.9</td><td>8.6 - 10.4</td><td>mg/dL</td></tr><tr><td>Sodium [Moles/volume] in Blood</td><td>139.7</td><td>135 - 145</td><td>mmol/L</td></tr><tr><td>Potassium [Moles/volume] in Blood</td><td><strong>5.2 H</strong></td><td>3.5 - 5.1</td><td>mmol/L</td></tr><tr><td>Chloride [Moles/volume] in Blood</td><td>101.8</td><td>98 - 110</td><td>mmol/L</td></tr><tr><td>Carbon dioxide, total [Moles/volume] in Blood</td><td>26.6</td><td>22 - 29</td><td>mmol/L</td></tr></tbody></table></div>"
                },
                "title": "Chemistry"
              },
              {
                "code": {
                  "coding": [
                    {
                      "code": "$18729-4",
                      "system": "http://loinc.org",
                      "display": "Urinalysis studies (set)"
                    }
                  ],
                  "text": "Urinalysis"
                },
                "entry": [
                  {
                    "reference": "urn:uuid:09c1c2a5-0abd-4293-926e-606d7e03a58f"
                  },
                  {
                    "reference": "urn:uuid:1c7edd5d-aac9-481b-b7d1-7243d8390c21"
                  },
                  {
                    "reference": "urn:uuid:099ea420-971c-4e34-a080-5733063e47e9"
                  },
                  {
                    "reference": "urn:uuid:bafff473-4daa-48c7-a459-c5c31248088f"
                  },
                  {
                    "reference": "urn:uuid:ea576ec0-14d1-4956-8599-860c816266e8"
                  },
                  {
                    "reference": "urn:uuid:3b5e2356-a040-49f0-a066-3576e55582ca"
                  },
                  {
                    "reference": "urn:uuid:258ce5dc-8465-44f5-aa13-d626b15edb4f"
                  },
                  {
                    "reference": "urn:uuid:2896acac-f616-4667-947b-f1a63def035c"
                  },
                  {
                    "reference": "urn:uuid:4061a9ff-278e-4f04-b508-0ac0d15f6bba"
                  },
                  {
                    "reference": "urn:uuid:4f180a2e-befd-4057-b7dc-540eeb77639a"
                  },
                  {
                    "reference": "urn:uuid:aaf4906a-46f3-4519-aa9d-1bbead0af1ce"
                  },
                  {
                    "reference": "urn:uuid:c71da876-4e93-4459-ba95-46d12b40b559"
                  }
                ],
                "text": {
                  "status": "generated",
                  "div": "<div xmlns=\"http://www.w3.org/1999/xhtml\"><h3>Urinalysis</h3><table class=\"hl7__eu__lab__report\"><thead><tr><th>Test</th><th>23-JUN-2016</th><th>Reference&#xA0;Range</th><th>Unit</th></tr></thead><tbody><tr><td>Glucose [Mass/volume] in Urine by Test strip</td><td><strong>2.3 H</strong></td><td>0 - 0</td><td>mg/dL</td></tr><tr><td>Glucose [Presence] in Urine by Test strip</td><td>++</td><td></td><td></td></tr><tr><td>Bilirubin.total [Mass/volume] in Urine by Test strip</td><td>0.9</td><td>0 - 1.6</td><td>mg/dL</td></tr><tr><td>Bilirubin.total [Presence] in Urine by Test strip</td><td>Finding of bilirubin in urine</td><td></td><td></td></tr><tr><td>Ketones [Mass/volume] in Urine by Test strip</td><td><strong>3.3 H</strong></td><td>0 - 0.5</td><td>mg/dL</td></tr><tr><td>Specific gravity of Urine by Test strip</td><td><strong>1.0 L</strong></td><td>1.005 - 1.03</td><td>{nominal}</td></tr><tr><td>pH of Urine by Test strip</td><td>6.1</td><td>4.5 - 7.5</td><td>pH</td></tr><tr><td>Protein [Mass/volume] in Urine by Test strip</td><td><strong>237.7 H</strong></td><td>0 - 15</td><td>mg/dL</td></tr><tr><td>Protein [Presence] in Urine by Test strip</td><td>Urine protein test = ++</td><td></td><td></td></tr><tr><td>Nitrite [Presence] in Urine by Test strip</td><td>Urine nitrite negative</td><td></td><td></td></tr><tr><td>Hemoglobin [Presence] in Urine by Test strip</td><td>Urine blood test = negative</td><td></td><td></td></tr><tr><td>Leukocyte esterase [Presence] in Urine by Test strip</td><td>Urine leukocyte test negative</td><td></td><td></td></tr></tbody></table></div>"
                },
                "title": "Urinalysis"
              },
              {
                "code": {
                  "coding": [
                    {
                      "code": "$LP7846-1",
                      "system": "http://loinc.org",
                      "display": "Specimen information"
                    }
                  ],
                  "text": "Specimen information"
                },
                "entry": [
                  {
                    "reference": "urn:uuid:7b5136be-92f4-496d-bc21-0c13f81533bc"
                  },
                  {
                    "reference": "urn:uuid:f1e898e9-6124-4da6-9165-4876d0911364"
                  },
                  {
                    "reference": "urn:uuid:04aba61c-cdff-4fe5-ac12-8b65add196af"
                  },
                  {
                    "reference": "urn:uuid:a652ce7e-3bf6-4f7e-aad1-4beb5f42018f"
                  }
                ],
                "text": {
                  "status": "generated",
                  "div": "<div xmlns=\"http://www.w3.org/1999/xhtml\"><h3>Specimen information</h3><table class=\"hl7__eu__lab__report\"><thead><tr><th>Test</th><th>23-JUN-2016</th><th>Specimen</th><th></th></tr></thead><tbody><tr><td>Appearance of Urine</td><td>Cloudy urine</td><td>Urine</td><td></td></tr><tr><td>Odor of Urine</td><td>Urine smell ammoniacal</td><td>Urine</td><td></td></tr><tr><td>Clarity of Urine</td><td>Translucent</td><td>Urine</td><td></td></tr><tr><td>Color of Urine</td><td>Brown color</td><td>Urine</td><td></td></tr></tbody></table></div>"
                },
                "title": "Specimen information"
              }
            ],
            "title": "Laboratory Report"
          },
          {
            "text": {
              "status": "generated",
              "div": "<div xmlns=\"http://www.w3.org/1999/xhtml\"><h3>Annotation</h3><table class=\"hl7__eu__lab__report\"><tr><th>Conclusion and Recommendations based on this report and previous findings known to us</th></tr><tr><td>The patient shows hypoglycemia with low HbA1c, elevated creatinine, and mild hyperkalemia, suggesting possible renal impairment. Urinalysis reveals significant proteinuria, glycosuria, ketonuria, and abnormal urine appearance, indicating possible nephrotic syndrome or diabetic nephropathy, though diabetes control appears tight or overcorrected. Hemoglobin is elevated with low erythrocyte count, possibly due to hemoconcentration. Recommend clinical correlation for renal function, review of diabetes management, and further nephrological evaluation.</td></tr></table></div>"
            },
            "code": {
              "coding": [
                {
                  "system": "http://loinc.org",
                  "code": "48767-8",
                  "display": "Annotation comment"
                }
              ]
            },
            "title": "Annotation comment"
          }
        ],
        "status": "final",
        "subject": {
          "reference": "urn:uuid:4f67a13d-ad07-4135-9bdc-20c1696df634",
          "display": "Molly Jenkins"
        },
        "date": "2016-06-23T16:42:11Z",
        "title": "Laboratory Report",
        "confidentiality": "N"
      }
    },
    {
      "fullUrl": "urn:uuid:95bb5c8b-4dfb-4400-9ac4-4f7b212095a6",
      "resource": {
        "resourceType": "DiagnosticReport",
        "id": "95bb5c8b-4dfb-4400-9ac4-4f7b212095a6",
        "meta": {
          "profile": [
            "http://hl7.eu/fhir/laboratory/StructureDefinition/DiagnosticReport-eu-lab"
          ]
        },
        "identifier": [
          {
            "assigner": {
              "display": "HL7 Europe"
            },
            "system": "urn:oid:2.16.840.1.113883.2.51.999",
            "value": "d3bceaff-dd16-4566-94ca-9c00419bcd4d"
          }
        ],
        "extension": [
          {
            "url": "http://hl7.org/fhir/5.0/StructureDefinition/extension-DiagnosticReport.composition",
            "valueReference": {
              "reference": "urn:uuid:b2cb04b9-f5c5-4de9-bb1f-0cf4f91c0299"
            }
          }
        ],
        "category": [
          {
            "coding": [
              {
                "code": "26436-6",
                "system": "http://loinc.org",
                "display": "Laboratory studies (set)"
              }
            ]
          }
        ],
        "specimen": [
          {
            "reference": "urn:uuid:f554ece9-6349-465e-b0b6-319dec2585ef"
          },
          {
            "reference": "urn:uuid:daec72ce-c074-45d0-ae4f-46aec262ac3f"
          },
          {
            "reference": "urn:uuid:cf60039d-cb6f-48d2-881d-e9a3cea61733"
          },
          {
            "reference": "urn:uuid:cf60039d-cb6f-48d2-881d-e9a3cea61733"
          }
        ],
        "result": [
          {
            "reference": "urn:uuid:c6a64383-b4d3-4448-881f-f80f75c5249b"
          },
          {
            "reference": "urn:uuid:84143758-45c5-4d57-9d0b-51a53d1e92d9"
          },
          {
            "reference": "urn:uuid:b7c93a58-36c1-413f-b251-306137244b11"
          },
          {
            "reference": "urn:uuid:cf147694-4fd2-430a-a867-822156adcf74"
          },
          {
            "reference": "urn:uuid:ecd3aad4-fbb4-4270-af2c-e405e86ca00e"
          },
          {
            "reference": "urn:uuid:7225f4a5-ecab-4d81-9014-7587f05e074b"
          },
          {
            "reference": "urn:uuid:16197118-2a51-4455-a003-21f2dfd2c463"
          },
          {
            "reference": "urn:uuid:1bb66849-c13c-4a64-bb56-9c4c532c57a1"
          },
          {
            "reference": "urn:uuid:7b5136be-92f4-496d-bc21-0c13f81533bc"
          },
          {
            "reference": "urn:uuid:f1e898e9-6124-4da6-9165-4876d0911364"
          },
          {
            "reference": "urn:uuid:04aba61c-cdff-4fe5-ac12-8b65add196af"
          },
          {
            "reference": "urn:uuid:a652ce7e-3bf6-4f7e-aad1-4beb5f42018f"
          },
          {
            "reference": "urn:uuid:09c1c2a5-0abd-4293-926e-606d7e03a58f"
          },
          {
            "reference": "urn:uuid:1c7edd5d-aac9-481b-b7d1-7243d8390c21"
          },
          {
            "reference": "urn:uuid:099ea420-971c-4e34-a080-5733063e47e9"
          },
          {
            "reference": "urn:uuid:bafff473-4daa-48c7-a459-c5c31248088f"
          },
          {
            "reference": "urn:uuid:ea576ec0-14d1-4956-8599-860c816266e8"
          },
          {
            "reference": "urn:uuid:eb0feb86-5d73-4aff-999c-7d461b21f13a"
          },
          {
            "reference": "urn:uuid:3b5e2356-a040-49f0-a066-3576e55582ca"
          },
          {
            "reference": "urn:uuid:258ce5dc-8465-44f5-aa13-d626b15edb4f"
          },
          {
            "reference": "urn:uuid:2896acac-f616-4667-947b-f1a63def035c"
          },
          {
            "reference": "urn:uuid:4061a9ff-278e-4f04-b508-0ac0d15f6bba"
          },
          {
            "reference": "urn:uuid:4f180a2e-befd-4057-b7dc-540eeb77639a"
          },
          {
            "reference": "urn:uuid:aaf4906a-46f3-4519-aa9d-1bbead0af1ce"
          },
          {
            "reference": "urn:uuid:c71da876-4e93-4459-ba95-46d12b40b559"
          },
          {
            "reference": "urn:uuid:26f9d59c-2df8-4baf-8c71-551a75507ec1"
          },
          {
            "reference": "urn:uuid:425ca6a7-7c83-4e7a-888c-b5560380380d"
          },
          {
            "reference": "urn:uuid:25d1ee70-11f7-4b9a-8881-2c4fba3cb147"
          },
          {
            "reference": "urn:uuid:70629e23-85c1-4832-854f-b6200de5ba3a"
          },
          {
            "reference": "urn:uuid:4a370e08-2408-4346-a995-b44a629eaafa"
          },
          {
            "reference": "urn:uuid:16e2e2d4-cddc-4c44-b8dd-dc0ab72b21a3"
          },
          {
            "reference": "urn:uuid:36d0ea3e-bb78-4df7-9ed2-f57d19ba6cd1"
          },
          {
            "reference": "urn:uuid:8dfcf725-fff9-4df5-b977-a7364f89a33d"
          },
          {
            "reference": "urn:uuid:0ccf7585-08f3-4753-abca-700ed056088e"
          },
          {
            "reference": "urn:uuid:70bcf3ad-ea3f-4685-89ed-37c1e0361793"
          },
          {
            "reference": "urn:uuid:f2158286-2db7-4a63-bac0-dfbc1b4c09e6"
          },
          {
            "reference": "urn:uuid:d7cac303-6ffc-4c9e-94d1-9594769ff9c0"
          },
          {
            "reference": "urn:uuid:694f6cb9-bfe7-49f2-815a-7b12d93d7d89"
          },
          {
            "reference": "urn:uuid:138f27f3-5938-4543-9d79-5192082b9b40"
          },
          {
            "reference": "urn:uuid:413bc9dd-14b3-45c6-8789-281c1263f105"
          },
          {
            "reference": "urn:uuid:7cde9601-263a-4d0e-9bdd-43710d6a618c"
          },
          {
            "reference": "urn:uuid:18766ffa-683b-4049-a12a-875345d5e383"
          },
          {
            "reference": "urn:uuid:1758079c-5685-479a-adcb-488578858174"
          },
          {
            "reference": "urn:uuid:7ce8bae4-2057-4317-90a2-50955833b3d9"
          },
          {
            "reference": "urn:uuid:62f0a938-42dc-4204-89ac-398df6b32820"
          }
        ],
        "status": "registered",
        "code": {
          "coding": [
            {
              "code": "11502-2",
              "system": "http://loinc.org",
              "display": "Laboratory report"
            }
          ]
        },
        "subject": {
          "reference": "urn:uuid:4f67a13d-ad07-4135-9bdc-20c1696df634",
          "display": "Molly Jenkins"
        }
      }
    },
    {
      "fullUrl": "urn:uuid:4f67a13d-ad07-4135-9bdc-20c1696df634",
      "resource": {
        "resourceType": "Patient",
        "id": "4f67a13d-ad07-4135-9bdc-20c1696df634",
        "meta": {
          "security": [
            {
              "system": "http://terminology.hl7.org/CodeSystem/v3-ActReason",
              "code": "HTEST"
            },
            {
              "system": "http://terminology.hl7.org/CodeSystem/v3-ActReason",
              "code": "TRAIN"
            }
          ],
          "tag": [
            {
              "system": "https://synderai.net/fhir/CodeSystem/tags",
              "code": "synthetic",
              "display": "SYNDERAI Synthetic data"
            }
          ],
          "profile": [
            "http://hl7.eu/fhir/base/StructureDefinition/patient-eu-core"
          ]
        },
        "identifier": [
          {
            "type": {
              "coding": [
                {
                  "code": "PT",
                  "system": "http://terminology.hl7.org/CodeSystem/v2-0203"
                }
              ]
            },
            "system": "http://ec.europa.eu/identifier/eci",
            "value": "7634-012682-0"
          },
          {
            "type": {
              "coding": [
                {
                  "code": "MR",
                  "system": "http://terminology.hl7.org/CodeSystem/v2-0203"
                }
              ]
            },
            "system": "http://local.setting.eu/identifier",
            "value": "9934a8eb-b6e1-34e1-edf5-57a0262d1bea"
          }
        ],
        "name": [
          {
            "family": "Jenkins"
          },
          {
            "given": [
              "Molly"
            ]
          },
          {
            "text": "Molly Jenkins"
          }
        ],
        "address": [
          {
            "line": [
              "98 Ali field"
            ],
            "use": "home",
            "type": "physical",
            "postalCode": "AB42",
            "city": "Port Jennamouth",
            "country": "United Kingdom"
          }
        ],
        "telecom": [
          {
            "system": "phone",
            "value": "(0118) 496 0334"
          }
        ],
        "extension": [
          {
            "url": "http://hl7.org/fhir/StructureDefinition/patient-nationality",
            "valueCodeableConcept": {
              "coding": [
                {
                  "code": "GB",
                  "system": "http://hl7.org/fhir/ValueSet/country"
                }
              ]
            }
          }
        ],
        "text": {
          "status": "generated",
          "div": "<div xmlns=\"http://www.w3.org/1999/xhtml\"><table class=\"hl7__ips\"><tr><td>Molly Jenkins</td><td>female</td><td>14-Aug-1967</td></tr></table></div>"
        },
        "gender": "female",
        "birthDate": "1967-08-14"
      }
    },
    {
      "fullUrl": "urn:uuid:f44e97b0-5f57-4b88-aa9e-a3af5957c751",
      "resource": {
        "resourceType": "ServiceRequest",
        "id": "f44e97b0-5f57-4b88-aa9e-a3af5957c751",
        "meta": {
          "profile": [
            "http://hl7.eu/fhir/laboratory/StructureDefinition/ServiceRequest-eu-lab"
          ]
        },
        "identifier": [
          {
            "system": "http://example.org",
            "value": "6a9e8101-bef7-4fe6-80fb-d1bcd48f3a3e"
          }
        ],
        "specimen": [
          {
            "reference": "urn:uuid:f554ece9-6349-465e-b0b6-319dec2585ef"
          },
          {
            "reference": "urn:uuid:daec72ce-c074-45d0-ae4f-46aec262ac3f"
          },
          {
            "reference": "urn:uuid:cf60039d-cb6f-48d2-881d-e9a3cea61733"
          }
        ],
        "reasonCode": [
          {
            "coding": [
              {
                "code": "431856006",
                "system": "http://snomed.info/sct",
                "display": "Chronic kidney disease stage 2"
              }
            ]
          },
          {
            "coding": [
              {
                "code": "90781000119102",
                "system": "http://snomed.info/sct",
                "display": "Microalbuminuria due to type 2 diabetes mellitus"
              }
            ]
          },
          {
            "coding": [
              {
                "code": "127013003",
                "system": "http://snomed.info/sct",
                "display": "Disorder of kidney due to diabetes mellitus"
              }
            ]
          },
          {
            "coding": [
              {
                "code": "431855005",
                "system": "http://snomed.info/sct",
                "display": "Chronic kidney disease stage 1"
              }
            ]
          },
          {
            "coding": [
              {
                "code": "15777000",
                "system": "http://snomed.info/sct",
                "display": "Prediabetes"
              }
            ]
          },
          {
            "coding": [
              {
                "code": "59621000",
                "system": "http://snomed.info/sct",
                "display": "Essential hypertension"
              }
            ]
          },
          {
            "coding": [
              {
                "code": "53827007",
                "system": "http://snomed.info/sct",
                "display": "Excessive salivation"
              }
            ]
          },
          {
            "coding": [
              {
                "code": "64859006",
                "system": "http://snomed.info/sct",
                "display": "Osteoporosis"
              }
            ]
          },
          {
            "coding": [
              {
                "code": "128188000",
                "system": "http://snomed.info/sct",
                "display": "Cerebral palsy"
              }
            ]
          },
          {
            "coding": [
              {
                "code": "235595009",
                "system": "http://snomed.info/sct",
                "display": "Gastroesophageal reflux disease"
              }
            ]
          }
        ],
        "status": "active",
        "intent": "order",
        "code": {
          "coding": [
            {
              "code": "108252007",
              "system": "http://snomed.info/sct",
              "display": "Laboratory procedure"
            }
          ]
        },
        "subject": {
          "reference": "urn:uuid:4f67a13d-ad07-4135-9bdc-20c1696df634",
          "display": "Molly Jenkins"
        },
        "requester": {
          "reference": "urn:uuid:865e5dfd-e5e7-4771-b60c-c1fd5b99ebe2"
        }
      }
    },
    {
      "fullUrl": "urn:uuid:865e5dfd-e5e7-4771-b60c-c1fd5b99ebe2",
      "resource": {
        "resourceType": "PractitionerRole",
        "id": "865e5dfd-e5e7-4771-b60c-c1fd5b99ebe2",
        "meta": {
          "profile": [
            "http://hl7.eu/fhir/base/StructureDefinition/practitionerRole-eu"
          ]
        },
        "text": {
          "status": "generated",
          "div": "<div xmlns=\"http://www.w3.org/1999/xhtml\">Provider Role Id: 865e5dfd-e5e7-4771-b60c-c1fd5b99ebe2</div>"
        },
        "organization": {
          "reference": "urn:uuid:a82af382-3111-4c92-a0bb-91ae4a0ccc1e"
        }
      }
    },
    {
      "fullUrl": "urn:uuid:a82af382-3111-4c92-a0bb-91ae4a0ccc1e",
      "resource": {
        "resourceType": "Organization",
        "id": "a82af382-3111-4c92-a0bb-91ae4a0ccc1e",
        "meta": {
          "profile": [
            "http://hl7.eu/fhir/base/StructureDefinition/organization-eu"
          ]
        },
        "identifier": [
          {
            "assigner": {
              "display": "HL7 Europe"
            },
            "system": "urn:oid:2.16.840.1.113883.2.51.999",
            "value": "121fd539-d833-40c0-8d1d-87188eaa790d"
          }
        ],
        "address": [
          {
            "city": "Aberdeen",
            "postalCode": "AB11 6",
            "country": "United Kingdom"
          }
        ],
        "text": {
          "status": "generated",
          "div": "<div xmlns=\"http://www.w3.org/1999/xhtml\">Provider Organization: Aberdeen Community Health and Care Village</div>"
        },
        "name": "Aberdeen Community Health and Care Village"
      }
    },
    {
      "fullUrl": "urn:uuid:f554ece9-6349-465e-b0b6-319dec2585ef",
      "resource": {
        "resourceType": "Specimen",
        "id": "f554ece9-6349-465e-b0b6-319dec2585ef",
        "meta": {
          "profile": [
            "http://hl7.eu/fhir/laboratory/StructureDefinition/Specimen-eu-lab"
          ]
        },
        "collection": {
          "collectedDateTime": "2016-06-23"
        },
        "text": {
          "status": "generated",
          "div": "<div xmlns=\"http://www.w3.org/1999/xhtml\"><table class=\"hl7__eu__lab__report\"><tr><th>Specimen</th><th>Collection Date</th></tr><tr><td>Acellular blood (serum or plasma) specimen</td><td><span class=\"nb\">23-Jun-2016</span></td></tr></table></div>"
        },
        "type": {
          "coding": [
            {
              "code": "122592007",
              "system": "http://snomed.info/sct",
              "display": "Acellular blood (serum or plasma) specimen"
            }
          ]
        }
      }
    },
    {
      "fullUrl": "urn:uuid:daec72ce-c074-45d0-ae4f-46aec262ac3f",
      "resource": {
        "resourceType": "Specimen",
        "id": "daec72ce-c074-45d0-ae4f-46aec262ac3f",
        "meta": {
          "profile": [
            "http://hl7.eu/fhir/laboratory/StructureDefinition/Specimen-eu-lab"
          ]
        },
        "collection": {
          "collectedDateTime": "2016-06-23"
        },
        "text": {
          "status": "generated",
          "div": "<div xmlns=\"http://www.w3.org/1999/xhtml\"><table class=\"hl7__eu__lab__report\"><tr><th>Specimen</th><th>Collection Date</th></tr><tr><td>Urine specimen</td><td><span class=\"nb\">23-Jun-2016</span></td></tr></table></div>"
        },
        "type": {
          "coding": [
            {
              "code": "122575003",
              "system": "http://snomed.info/sct",
              "display": "Urine specimen"
            }
          ]
        }
      }
    },
    {
      "fullUrl": "urn:uuid:cf60039d-cb6f-48d2-881d-e9a3cea61733",
      "resource": {
        "resourceType": "Specimen",
        "id": "cf60039d-cb6f-48d2-881d-e9a3cea61733",
        "meta": {
          "profile": [
            "http://hl7.eu/fhir/laboratory/StructureDefinition/Specimen-eu-lab"
          ]
        },
        "collection": {
          "collectedDateTime": "2016-06-23"
        },
        "text": {
          "status": "generated",
          "div": "<div xmlns=\"http://www.w3.org/1999/xhtml\"><table class=\"hl7__eu__lab__report\"><tr><th>Specimen</th><th>Collection Date</th></tr><tr><td>Whole blood specimen (specimen)</td><td><span class=\"nb\">23-Jun-2016</span></td></tr></table></div>"
        },
        "type": {
          "coding": [
            {
              "code": "258580003",
              "system": "http://snomed.info/sct",
              "display": "Whole blood specimen (specimen)"
            }
          ]
        }
      }
    },
    {
      "fullUrl": "urn:uuid:cf60039d-cb6f-48d2-881d-e9a3cea61733",
      "resource": {
        "resourceType": "Specimen",
        "id": "cf60039d-cb6f-48d2-881d-e9a3cea61733",
        "meta": {
          "profile": [
            "http://hl7.eu/fhir/laboratory/StructureDefinition/Specimen-eu-lab"
          ]
        },
        "collection": {
          "collectedDateTime": "2016-06-23"
        },
        "text": {
          "status": "generated",
          "div": "<div xmlns=\"http://www.w3.org/1999/xhtml\"><table class=\"hl7__eu__lab__report\"><tr><th>Specimen</th><th>Collection Date</th></tr><tr><td>Whole blood specimen (specimen)</td><td><span class=\"nb\">23-Jun-2016</span></td></tr></table></div>"
        },
        "type": {
          "coding": [
            {
              "code": "258580003",
              "system": "http://snomed.info/sct",
              "display": "Whole blood specimen (specimen)"
            }
          ]
        }
      }
    },
    {
      "fullUrl": "urn:uuid:c6a64383-b4d3-4448-881f-f80f75c5249b",
      "resource": {
        "resourceType": "Observation",
        "id": "c6a64383-b4d3-4448-881f-f80f75c5249b",
        "meta": {
          "profile": [
            "http://hl7.eu/fhir/laboratory/StructureDefinition/Observation-resultslab-eu-lab"
          ]
        },
        "performer": [
          {
            "display": "The Central European Lab"
          }
        ],
        "category": [
          {
            "coding": [
              {
                "system": "http://terminology.hl7.org/CodeSystem/observation-category",
                "code": "laboratory"
              }
            ]
          }
        ],
        "code": {
          "coding": [
            {
              "code": "2345-7",
              "system": "http://loinc.org",
              "display": "Glucose [Mass/volume] in Serum or Plasma"
            }
          ],
          "text": "Glucose [Mass/volume] in Serum or Plasma"
        },
        "valueQuantity": {
          "system": "http://unitsofmeasure.org",
          "value": 67.1,
          "unit": "mg/dL",
          "code": "mg/dL"
        },
        "referenceRange": [
          {
            "low": {
              "value": 70,
              "code": "mg/dL",
              "system": "http://unitsofmeasure.org"
            }
          },
          {
            "high": {
              "value": 139,
              "code": "mg/dL",
              "system": "http://unitsofmeasure.org"
            }
          }
        ],
        "interpretation": [
          {
            "coding": [
              {
                "code": "L",
                "system": "http://terminology.hl7.org/CodeSystem/v3-ObservationInterpretation",
                "display": "Low"
              }
            ]
          }
        ],
        "text": {
          "status": "generated",
          "div": "<div xmlns=\"http://www.w3.org/1999/xhtml\"><table class=\"hl7__eu__lab__report\"><tr><th>Test</th><th>23-Jun-2016</th><th>Reference&#xA0;Range</th><th>Unit</th></tr><tr><td>Glucose [Mass/volume] in Serum or Plasma</td><td>67.1</td><td>70 - 139</td><td>L</td><td>mg/dL</td></tr></table></div>"
        },
        "status": "final",
        "subject": {
          "reference": "urn:uuid:4f67a13d-ad07-4135-9bdc-20c1696df634",
          "display": "Molly Jenkins"
        },
        "effectiveDateTime": "2016-06-23T14:42:11Z",
        "specimen": {
          "reference": "urn:uuid:f554ece9-6349-465e-b0b6-319dec2585ef"
        }
      }
    },
    {
      "fullUrl": "urn:uuid:84143758-45c5-4d57-9d0b-51a53d1e92d9",
      "resource": {
        "resourceType": "Observation",
        "id": "84143758-45c5-4d57-9d0b-51a53d1e92d9",
        "meta": {
          "profile": [
            "http://hl7.eu/fhir/laboratory/StructureDefinition/Observation-resultslab-eu-lab"
          ]
        },
        "performer": [
          {
            "display": "The Central European Lab"
          }
        ],
        "category": [
          {
            "coding": [
              {
                "system": "http://terminology.hl7.org/CodeSystem/observation-category",
                "code": "laboratory"
              }
            ]
          }
        ],
        "code": {
          "coding": [
            {
              "code": "3094-0",
              "system": "http://loinc.org",
              "display": "Urea nitrogen [Mass/volume] in Serum or Plasma"
            }
          ],
          "text": "Urea nitrogen [Mass/volume] in Serum or Plasma"
        },
        "valueQuantity": {
          "system": "http://unitsofmeasure.org",
          "value": 18.3,
          "unit": "mg/dL",
          "code": "mg/dL"
        },
        "referenceRange": [
          {
            "low": {
              "value": 7,
              "code": "mg/dL",
              "system": "http://unitsofmeasure.org"
            }
          },
          {
            "high": {
              "value": 20,
              "code": "mg/dL",
              "system": "http://unitsofmeasure.org"
            }
          }
        ],
        "text": {
          "status": "generated",
          "div": "<div xmlns=\"http://www.w3.org/1999/xhtml\"><table class=\"hl7__eu__lab__report\"><tr><th>Test</th><th>23-Jun-2016</th><th>Reference&#xA0;Range</th><th>Unit</th></tr><tr><td>Urea nitrogen [Mass/volume] in Serum or Plasma</td><td>18.3</td><td>7 - 20</td><td></td><td>mg/dL</td></tr></table></div>"
        },
        "status": "final",
        "subject": {
          "reference": "urn:uuid:4f67a13d-ad07-4135-9bdc-20c1696df634",
          "display": "Molly Jenkins"
        },
        "effectiveDateTime": "2016-06-23T14:42:11Z",
        "specimen": {
          "reference": "urn:uuid:f554ece9-6349-465e-b0b6-319dec2585ef"
        }
      }
    },
    {
      "fullUrl": "urn:uuid:b7c93a58-36c1-413f-b251-306137244b11",
      "resource": {
        "resourceType": "Observation",
        "id": "b7c93a58-36c1-413f-b251-306137244b11",
        "meta": {
          "profile": [
            "http://hl7.eu/fhir/laboratory/StructureDefinition/Observation-resultslab-eu-lab"
          ]
        },
        "performer": [
          {
            "display": "The Central European Lab"
          }
        ],
        "category": [
          {
            "coding": [
              {
                "system": "http://terminology.hl7.org/CodeSystem/observation-category",
                "code": "laboratory"
              }
            ]
          }
        ],
        "code": {
          "coding": [
            {
              "code": "2160-0",
              "system": "http://loinc.org",
              "display": "Creatinine [Mass/volume] in Serum or Plasma"
            }
          ],
          "text": "Creatinine [Mass/volume] in Serum or Plasma"
        },
        "valueQuantity": {
          "system": "http://unitsofmeasure.org",
          "value": 1.9,
          "unit": "mg/dL",
          "code": "mg/dL"
        },
        "referenceRange": [
          {
            "low": {
              "value": 0.6,
              "code": "mg/dL",
              "system": "http://unitsofmeasure.org"
            }
          },
          {
            "high": {
              "value": 1.1,
              "code": "mg/dL",
              "system": "http://unitsofmeasure.org"
            }
          }
        ],
        "interpretation": [
          {
            "coding": [
              {
                "code": "H",
                "system": "http://terminology.hl7.org/CodeSystem/v3-ObservationInterpretation",
                "display": "High"
              }
            ]
          }
        ],
        "text": {
          "status": "generated",
          "div": "<div xmlns=\"http://www.w3.org/1999/xhtml\"><table class=\"hl7__eu__lab__report\"><tr><th>Test</th><th>23-Jun-2016</th><th>Reference&#xA0;Range</th><th>Unit</th></tr><tr><td>Creatinine [Mass/volume] in Serum or Plasma</td><td>1.9</td><td>0.6 - 1.1</td><td>H</td><td>mg/dL</td></tr></table></div>"
        },
        "status": "final",
        "subject": {
          "reference": "urn:uuid:4f67a13d-ad07-4135-9bdc-20c1696df634",
          "display": "Molly Jenkins"
        },
        "effectiveDateTime": "2016-06-23T14:42:11Z",
        "specimen": {
          "reference": "urn:uuid:f554ece9-6349-465e-b0b6-319dec2585ef"
        }
      }
    },
    {
      "fullUrl": "urn:uuid:cf147694-4fd2-430a-a867-822156adcf74",
      "resource": {
        "resourceType": "Observation",
        "id": "cf147694-4fd2-430a-a867-822156adcf74",
        "meta": {
          "profile": [
            "http://hl7.eu/fhir/laboratory/StructureDefinition/Observation-resultslab-eu-lab"
          ]
        },
        "performer": [
          {
            "display": "The Central European Lab"
          }
        ],
        "category": [
          {
            "coding": [
              {
                "system": "http://terminology.hl7.org/CodeSystem/observation-category",
                "code": "laboratory"
              }
            ]
          }
        ],
        "code": {
          "coding": [
            {
              "code": "17861-6",
              "system": "http://loinc.org",
              "display": "Calcium [Mass/volume] in Serum or Plasma"
            }
          ],
          "text": "Calcium [Mass/volume] in Serum or Plasma"
        },
        "valueQuantity": {
          "system": "http://unitsofmeasure.org",
          "value": 8.9,
          "unit": "mg/dL",
          "code": "mg/dL"
        },
        "referenceRange": [
          {
            "low": {
              "value": 8.5,
              "code": "mg/dL",
              "system": "http://unitsofmeasure.org"
            }
          },
          {
            "high": {
              "value": 10.4,
              "code": "mg/dL",
              "system": "http://unitsofmeasure.org"
            }
          }
        ],
        "text": {
          "status": "generated",
          "div": "<div xmlns=\"http://www.w3.org/1999/xhtml\"><table class=\"hl7__eu__lab__report\"><tr><th>Test</th><th>23-Jun-2016</th><th>Reference&#xA0;Range</th><th>Unit</th></tr><tr><td>Calcium [Mass/volume] in Serum or Plasma</td><td>8.9</td><td>8.5 - 10.4</td><td></td><td>mg/dL</td></tr></table></div>"
        },
        "status": "final",
        "subject": {
          "reference": "urn:uuid:4f67a13d-ad07-4135-9bdc-20c1696df634",
          "display": "Molly Jenkins"
        },
        "effectiveDateTime": "2016-06-23T14:42:11Z",
        "specimen": {
          "reference": "urn:uuid:f554ece9-6349-465e-b0b6-319dec2585ef"
        }
      }
    },
    {
      "fullUrl": "urn:uuid:ecd3aad4-fbb4-4270-af2c-e405e86ca00e",
      "resource": {
        "resourceType": "Observation",
        "id": "ecd3aad4-fbb4-4270-af2c-e405e86ca00e",
        "meta": {
          "profile": [
            "http://hl7.eu/fhir/laboratory/StructureDefinition/Observation-resultslab-eu-lab"
          ]
        },
        "performer": [
          {
            "display": "The Central European Lab"
          }
        ],
        "category": [
          {
            "coding": [
              {
                "system": "http://terminology.hl7.org/CodeSystem/observation-category",
                "code": "laboratory"
              }
            ]
          }
        ],
        "code": {
          "coding": [
            {
              "code": "2951-2",
              "system": "http://loinc.org",
              "display": "Sodium [Moles/volume] in Serum or Plasma"
            }
          ],
          "text": "Sodium [Moles/volume] in Serum or Plasma"
        },
        "valueQuantity": {
          "system": "http://unitsofmeasure.org",
          "value": 139.7,
          "unit": "mmol/L",
          "code": "mmol/L"
        },
        "referenceRange": [
          {
            "low": {
              "value": 135,
              "code": "mmol/L",
              "system": "http://unitsofmeasure.org"
            }
          },
          {
            "high": {
              "value": 145,
              "code": "mmol/L",
              "system": "http://unitsofmeasure.org"
            }
          }
        ],
        "text": {
          "status": "generated",
          "div": "<div xmlns=\"http://www.w3.org/1999/xhtml\"><table class=\"hl7__eu__lab__report\"><tr><th>Test</th><th>23-Jun-2016</th><th>Reference&#xA0;Range</th><th>Unit</th></tr><tr><td>Sodium [Moles/volume] in Serum or Plasma</td><td>139.7</td><td>135 - 145</td><td></td><td>mmol/L</td></tr></table></div>"
        },
        "status": "final",
        "subject": {
          "reference": "urn:uuid:4f67a13d-ad07-4135-9bdc-20c1696df634",
          "display": "Molly Jenkins"
        },
        "effectiveDateTime": "2016-06-23T14:42:11Z",
        "specimen": {
          "reference": "urn:uuid:f554ece9-6349-465e-b0b6-319dec2585ef"
        }
      }
    },
    {
      "fullUrl": "urn:uuid:7225f4a5-ecab-4d81-9014-7587f05e074b",
      "resource": {
        "resourceType": "Observation",
        "id": "7225f4a5-ecab-4d81-9014-7587f05e074b",
        "meta": {
          "profile": [
            "http://hl7.eu/fhir/laboratory/StructureDefinition/Observation-resultslab-eu-lab"
          ]
        },
        "performer": [
          {
            "display": "The Central European Lab"
          }
        ],
        "category": [
          {
            "coding": [
              {
                "system": "http://terminology.hl7.org/CodeSystem/observation-category",
                "code": "laboratory"
              }
            ]
          }
        ],
        "code": {
          "coding": [
            {
              "code": "2823-3",
              "system": "http://loinc.org",
              "display": "Potassium [Moles/volume] in Serum or Plasma"
            }
          ],
          "text": "Potassium [Moles/volume] in Serum or Plasma"
        },
        "valueQuantity": {
          "system": "http://unitsofmeasure.org",
          "value": 5.2,
          "unit": "mmol/L",
          "code": "mmol/L"
        },
        "referenceRange": [
          {
            "low": {
              "value": 3.5,
              "code": "mmol/L",
              "system": "http://unitsofmeasure.org"
            }
          },
          {
            "high": {
              "value": 5.1,
              "code": "mmol/L",
              "system": "http://unitsofmeasure.org"
            }
          }
        ],
        "interpretation": [
          {
            "coding": [
              {
                "code": "H",
                "system": "http://terminology.hl7.org/CodeSystem/v3-ObservationInterpretation",
                "display": "High"
              }
            ]
          }
        ],
        "text": {
          "status": "generated",
          "div": "<div xmlns=\"http://www.w3.org/1999/xhtml\"><table class=\"hl7__eu__lab__report\"><tr><th>Test</th><th>23-Jun-2016</th><th>Reference&#xA0;Range</th><th>Unit</th></tr><tr><td>Potassium [Moles/volume] in Serum or Plasma</td><td>5.2</td><td>3.5 - 5.1</td><td>H</td><td>mmol/L</td></tr></table></div>"
        },
        "status": "final",
        "subject": {
          "reference": "urn:uuid:4f67a13d-ad07-4135-9bdc-20c1696df634",
          "display": "Molly Jenkins"
        },
        "effectiveDateTime": "2016-06-23T14:42:11Z",
        "specimen": {
          "reference": "urn:uuid:f554ece9-6349-465e-b0b6-319dec2585ef"
        }
      }
    },
    {
      "fullUrl": "urn:uuid:16197118-2a51-4455-a003-21f2dfd2c463",
      "resource": {
        "resourceType": "Observation",
        "id": "16197118-2a51-4455-a003-21f2dfd2c463",
        "meta": {
          "profile": [
            "http://hl7.eu/fhir/laboratory/StructureDefinition/Observation-resultslab-eu-lab"
          ]
        },
        "performer": [
          {
            "display": "The Central European Lab"
          }
        ],
        "category": [
          {
            "coding": [
              {
                "system": "http://terminology.hl7.org/CodeSystem/observation-category",
                "code": "laboratory"
              }
            ]
          }
        ],
        "code": {
          "coding": [
            {
              "code": "2075-0",
              "system": "http://loinc.org",
              "display": "Chloride [Moles/volume] in Serum or Plasma"
            }
          ],
          "text": "Chloride [Moles/volume] in Serum or Plasma"
        },
        "valueQuantity": {
          "system": "http://unitsofmeasure.org",
          "value": 101.8,
          "unit": "mmol/L",
          "code": "mmol/L"
        },
        "referenceRange": [
          {
            "low": {
              "value": 98,
              "code": "mmol/L",
              "system": "http://unitsofmeasure.org"
            }
          },
          {
            "high": {
              "value": 110,
              "code": "mmol/L",
              "system": "http://unitsofmeasure.org"
            }
          }
        ],
        "text": {
          "status": "generated",
          "div": "<div xmlns=\"http://www.w3.org/1999/xhtml\"><table class=\"hl7__eu__lab__report\"><tr><th>Test</th><th>23-Jun-2016</th><th>Reference&#xA0;Range</th><th>Unit</th></tr><tr><td>Chloride [Moles/volume] in Serum or Plasma</td><td>101.8</td><td>98 - 110</td><td></td><td>mmol/L</td></tr></table></div>"
        },
        "status": "final",
        "subject": {
          "reference": "urn:uuid:4f67a13d-ad07-4135-9bdc-20c1696df634",
          "display": "Molly Jenkins"
        },
        "effectiveDateTime": "2016-06-23T14:42:11Z",
        "specimen": {
          "reference": "urn:uuid:f554ece9-6349-465e-b0b6-319dec2585ef"
        }
      }
    },
    {
      "fullUrl": "urn:uuid:1bb66849-c13c-4a64-bb56-9c4c532c57a1",
      "resource": {
        "resourceType": "Observation",
        "id": "1bb66849-c13c-4a64-bb56-9c4c532c57a1",
        "meta": {
          "profile": [
            "http://hl7.eu/fhir/laboratory/StructureDefinition/Observation-resultslab-eu-lab"
          ]
        },
        "performer": [
          {
            "display": "The Central European Lab"
          }
        ],
        "category": [
          {
            "coding": [
              {
                "system": "http://terminology.hl7.org/CodeSystem/observation-category",
                "code": "laboratory"
              }
            ]
          }
        ],
        "code": {
          "coding": [
            {
              "code": "2028-9",
              "system": "http://loinc.org",
              "display": "Carbon dioxide, total [Moles/volume] in Serum or Plasma"
            }
          ],
          "text": "Carbon dioxide, total [Moles/volume] in Serum or Plasma"
        },
        "valueQuantity": {
          "system": "http://unitsofmeasure.org",
          "value": 26.6,
          "unit": "mmol/L",
          "code": "mmol/L"
        },
        "referenceRange": [
          {
            "low": {
              "value": 22,
              "code": "mmol/L",
              "system": "http://unitsofmeasure.org"
            }
          },
          {
            "high": {
              "value": 32,
              "code": "mmol/L",
              "system": "http://unitsofmeasure.org"
            }
          }
        ],
        "text": {
          "status": "generated",
          "div": "<div xmlns=\"http://www.w3.org/1999/xhtml\"><table class=\"hl7__eu__lab__report\"><tr><th>Test</th><th>23-Jun-2016</th><th>Reference&#xA0;Range</th><th>Unit</th></tr><tr><td>Carbon dioxide, total [Moles/volume] in Serum or Plasma</td><td>26.6</td><td>22 - 32</td><td></td><td>mmol/L</td></tr></table></div>"
        },
        "status": "final",
        "subject": {
          "reference": "urn:uuid:4f67a13d-ad07-4135-9bdc-20c1696df634",
          "display": "Molly Jenkins"
        },
        "effectiveDateTime": "2016-06-23T14:42:11Z",
        "specimen": {
          "reference": "urn:uuid:f554ece9-6349-465e-b0b6-319dec2585ef"
        }
      }
    },
    {
      "fullUrl": "urn:uuid:7b5136be-92f4-496d-bc21-0c13f81533bc",
      "resource": {
        "resourceType": "Observation",
        "id": "7b5136be-92f4-496d-bc21-0c13f81533bc",
        "meta": {
          "profile": [
            "http://hl7.eu/fhir/laboratory/StructureDefinition/Observation-resultslab-eu-lab"
          ]
        },
        "performer": [
          {
            "display": "The Central European Lab"
          }
        ],
        "category": [
          {
            "coding": [
              {
                "system": "http://terminology.hl7.org/CodeSystem/observation-category",
                "code": "laboratory"
              }
            ]
          }
        ],
        "code": {
          "coding": [
            {
              "code": "5767-9",
              "system": "http://loinc.org",
              "display": "Appearance of Urine"
            }
          ],
          "text": "Appearance of Urine"
        },
        "text": {
          "status": "generated",
          "div": "<div xmlns=\"http://www.w3.org/1999/xhtml\"><table class=\"hl7__eu__lab__report\"><tr><th>Test</th><th>23-Jun-2016</th><th>Reference&#xA0;Range</th><th>Unit</th></tr><tr><td>Appearance of Urine</td></tr></table></div>"
        },
        "status": "final",
        "subject": {
          "reference": "urn:uuid:4f67a13d-ad07-4135-9bdc-20c1696df634",
          "display": "Molly Jenkins"
        },
        "effectiveDateTime": "2016-06-23T14:42:11Z",
        "specimen": {
          "reference": "urn:uuid:daec72ce-c074-45d0-ae4f-46aec262ac3f"
        }
      }
    },
    {
      "fullUrl": "urn:uuid:f1e898e9-6124-4da6-9165-4876d0911364",
      "resource": {
        "resourceType": "Observation",
        "id": "f1e898e9-6124-4da6-9165-4876d0911364",
        "meta": {
          "profile": [
            "http://hl7.eu/fhir/laboratory/StructureDefinition/Observation-resultslab-eu-lab"
          ]
        },
        "performer": [
          {
            "display": "The Central European Lab"
          }
        ],
        "category": [
          {
            "coding": [
              {
                "system": "http://terminology.hl7.org/CodeSystem/observation-category",
                "code": "laboratory"
              }
            ]
          }
        ],
        "code": {
          "coding": [
            {
              "code": "34533-0",
              "system": "http://loinc.org",
              "display": "Odor of Urine"
            }
          ],
          "text": "Odor of Urine"
        },
        "text": {
          "status": "generated",
          "div": "<div xmlns=\"http://www.w3.org/1999/xhtml\"><table class=\"hl7__eu__lab__report\"><tr><th>Test</th><th>23-Jun-2016</th><th>Reference&#xA0;Range</th><th>Unit</th></tr><tr><td>Odor of Urine</td></tr></table></div>"
        },
        "status": "final",
        "subject": {
          "reference": "urn:uuid:4f67a13d-ad07-4135-9bdc-20c1696df634",
          "display": "Molly Jenkins"
        },
        "effectiveDateTime": "2016-06-23T14:42:11Z",
        "specimen": {
          "reference": "urn:uuid:daec72ce-c074-45d0-ae4f-46aec262ac3f"
        }
      }
    },
    {
      "fullUrl": "urn:uuid:04aba61c-cdff-4fe5-ac12-8b65add196af",
      "resource": {
        "resourceType": "Observation",
        "id": "04aba61c-cdff-4fe5-ac12-8b65add196af",
        "meta": {
          "profile": [
            "http://hl7.eu/fhir/laboratory/StructureDefinition/Observation-resultslab-eu-lab"
          ]
        },
        "performer": [
          {
            "display": "The Central European Lab"
          }
        ],
        "category": [
          {
            "coding": [
              {
                "system": "http://terminology.hl7.org/CodeSystem/observation-category",
                "code": "laboratory"
              }
            ]
          }
        ],
        "code": {
          "coding": [
            {
              "code": "32167-9",
              "system": "http://loinc.org",
              "display": "Clarity of Urine"
            }
          ],
          "text": "Clarity of Urine"
        },
        "text": {
          "status": "generated",
          "div": "<div xmlns=\"http://www.w3.org/1999/xhtml\"><table class=\"hl7__eu__lab__report\"><tr><th>Test</th><th>23-Jun-2016</th><th>Reference&#xA0;Range</th><th>Unit</th></tr><tr><td>Clarity of Urine</td></tr></table></div>"
        },
        "status": "final",
        "subject": {
          "reference": "urn:uuid:4f67a13d-ad07-4135-9bdc-20c1696df634",
          "display": "Molly Jenkins"
        },
        "effectiveDateTime": "2016-06-23T14:42:11Z",
        "specimen": {
          "reference": "urn:uuid:daec72ce-c074-45d0-ae4f-46aec262ac3f"
        }
      }
    },
    {
      "fullUrl": "urn:uuid:a652ce7e-3bf6-4f7e-aad1-4beb5f42018f",
      "resource": {
        "resourceType": "Observation",
        "id": "a652ce7e-3bf6-4f7e-aad1-4beb5f42018f",
        "meta": {
          "profile": [
            "http://hl7.eu/fhir/laboratory/StructureDefinition/Observation-resultslab-eu-lab"
          ]
        },
        "performer": [
          {
            "display": "The Central European Lab"
          }
        ],
        "category": [
          {
            "coding": [
              {
                "system": "http://terminology.hl7.org/CodeSystem/observation-category",
                "code": "laboratory"
              }
            ]
          }
        ],
        "code": {
          "coding": [
            {
              "code": "5778-6",
              "system": "http://loinc.org",
              "display": "Color of Urine"
            }
          ],
          "text": "Color of Urine"
        },
        "text": {
          "status": "generated",
          "div": "<div xmlns=\"http://www.w3.org/1999/xhtml\"><table class=\"hl7__eu__lab__report\"><tr><th>Test</th><th>23-Jun-2016</th><th>Reference&#xA0;Range</th><th>Unit</th></tr><tr><td>Color of Urine</td></tr></table></div>"
        },
        "status": "final",
        "subject": {
          "reference": "urn:uuid:4f67a13d-ad07-4135-9bdc-20c1696df634",
          "display": "Molly Jenkins"
        },
        "effectiveDateTime": "2016-06-23T14:42:11Z",
        "specimen": {
          "reference": "urn:uuid:daec72ce-c074-45d0-ae4f-46aec262ac3f"
        }
      }
    },
    {
      "fullUrl": "urn:uuid:09c1c2a5-0abd-4293-926e-606d7e03a58f",
      "resource": {
        "resourceType": "Observation",
        "id": "09c1c2a5-0abd-4293-926e-606d7e03a58f",
        "meta": {
          "profile": [
            "http://hl7.eu/fhir/laboratory/StructureDefinition/Observation-resultslab-eu-lab"
          ]
        },
        "performer": [
          {
            "display": "The Central European Lab"
          }
        ],
        "category": [
          {
            "coding": [
              {
                "system": "http://terminology.hl7.org/CodeSystem/observation-category",
                "code": "laboratory"
              }
            ]
          }
        ],
        "code": {
          "coding": [
            {
              "code": "5792-7",
              "system": "http://loinc.org",
              "display": "Glucose [Mass/volume] in Urine by Test strip"
            }
          ],
          "text": "Glucose [Mass/volume] in Urine by Test strip"
        },
        "valueQuantity": {
          "system": "http://unitsofmeasure.org",
          "value": 2.3,
          "unit": "mg/dL",
          "code": "mg/dL"
        },
        "referenceRange": [
          {
            "low": {
              "value": 0,
              "code": "mg/dL",
              "system": "http://unitsofmeasure.org"
            }
          },
          {
            "high": {
              "value": 0,
              "code": "mg/dL",
              "system": "http://unitsofmeasure.org"
            }
          }
        ],
        "interpretation": [
          {
            "coding": [
              {
                "code": "H",
                "system": "http://terminology.hl7.org/CodeSystem/v3-ObservationInterpretation",
                "display": "High"
              }
            ]
          }
        ],
        "text": {
          "status": "generated",
          "div": "<div xmlns=\"http://www.w3.org/1999/xhtml\"><table class=\"hl7__eu__lab__report\"><tr><th>Test</th><th>23-Jun-2016</th><th>Reference&#xA0;Range</th><th>Unit</th></tr><tr><td>Glucose [Mass/volume] in Urine by Test strip</td><td>2.3</td><td>0 - 0</td><td>H</td><td>mg/dL</td></tr></table></div>"
        },
        "status": "final",
        "subject": {
          "reference": "urn:uuid:4f67a13d-ad07-4135-9bdc-20c1696df634",
          "display": "Molly Jenkins"
        },
        "effectiveDateTime": "2016-06-23T14:42:11Z",
        "specimen": {
          "reference": "urn:uuid:daec72ce-c074-45d0-ae4f-46aec262ac3f"
        }
      }
    },
    {
      "fullUrl": "urn:uuid:1c7edd5d-aac9-481b-b7d1-7243d8390c21",
      "resource": {
        "resourceType": "Observation",
        "id": "1c7edd5d-aac9-481b-b7d1-7243d8390c21",
        "meta": {
          "profile": [
            "http://hl7.eu/fhir/laboratory/StructureDefinition/Observation-resultslab-eu-lab"
          ]
        },
        "performer": [
          {
            "display": "The Central European Lab"
          }
        ],
        "category": [
          {
            "coding": [
              {
                "system": "http://terminology.hl7.org/CodeSystem/observation-category",
                "code": "laboratory"
              }
            ]
          }
        ],
        "code": {
          "coding": [
            {
              "code": "25428-4",
              "system": "http://loinc.org",
              "display": "Glucose [Presence] in Urine by Test strip"
            }
          ],
          "text": "Glucose [Presence] in Urine by Test strip"
        },
        "text": {
          "status": "generated",
          "div": "<div xmlns=\"http://www.w3.org/1999/xhtml\"><table class=\"hl7__eu__lab__report\"><tr><th>Test</th><th>23-Jun-2016</th><th>Reference&#xA0;Range</th><th>Unit</th></tr><tr><td>Glucose [Presence] in Urine by Test strip</td></tr></table></div>"
        },
        "status": "final",
        "subject": {
          "reference": "urn:uuid:4f67a13d-ad07-4135-9bdc-20c1696df634",
          "display": "Molly Jenkins"
        },
        "effectiveDateTime": "2016-06-23T14:42:11Z",
        "specimen": {
          "reference": "urn:uuid:daec72ce-c074-45d0-ae4f-46aec262ac3f"
        }
      }
    },
    {
      "fullUrl": "urn:uuid:099ea420-971c-4e34-a080-5733063e47e9",
      "resource": {
        "resourceType": "Observation",
        "id": "099ea420-971c-4e34-a080-5733063e47e9",
        "meta": {
          "profile": [
            "http://hl7.eu/fhir/laboratory/StructureDefinition/Observation-resultslab-eu-lab"
          ]
        },
        "performer": [
          {
            "display": "The Central European Lab"
          }
        ],
        "category": [
          {
            "coding": [
              {
                "system": "http://terminology.hl7.org/CodeSystem/observation-category",
                "code": "laboratory"
              }
            ]
          }
        ],
        "code": {
          "coding": [
            {
              "code": "20505-4",
              "system": "http://loinc.org",
              "display": "Bilirubin.total [Mass/volume] in Urine by Test strip"
            }
          ],
          "text": "Bilirubin.total [Mass/volume] in Urine by Test strip"
        },
        "valueQuantity": {
          "system": "http://unitsofmeasure.org",
          "value": 0.9,
          "unit": "mg/dL",
          "code": "mg/dL"
        },
        "referenceRange": [
          {
            "low": {
              "value": 0,
              "code": "mg/dL",
              "system": "http://unitsofmeasure.org"
            }
          },
          {
            "high": {
              "value": 1.6,
              "code": "mg/dL",
              "system": "http://unitsofmeasure.org"
            }
          }
        ],
        "text": {
          "status": "generated",
          "div": "<div xmlns=\"http://www.w3.org/1999/xhtml\"><table class=\"hl7__eu__lab__report\"><tr><th>Test</th><th>23-Jun-2016</th><th>Reference&#xA0;Range</th><th>Unit</th></tr><tr><td>Bilirubin.total [Mass/volume] in Urine by Test strip</td><td>0.9</td><td>0 - 1.6</td><td></td><td>mg/dL</td></tr></table></div>"
        },
        "status": "final",
        "subject": {
          "reference": "urn:uuid:4f67a13d-ad07-4135-9bdc-20c1696df634",
          "display": "Molly Jenkins"
        },
        "effectiveDateTime": "2016-06-23T14:42:11Z",
        "specimen": {
          "reference": "urn:uuid:daec72ce-c074-45d0-ae4f-46aec262ac3f"
        }
      }
    },
    {
      "fullUrl": "urn:uuid:bafff473-4daa-48c7-a459-c5c31248088f",
      "resource": {
        "resourceType": "Observation",
        "id": "bafff473-4daa-48c7-a459-c5c31248088f",
        "meta": {
          "profile": [
            "http://hl7.eu/fhir/laboratory/StructureDefinition/Observation-resultslab-eu-lab"
          ]
        },
        "performer": [
          {
            "display": "The Central European Lab"
          }
        ],
        "category": [
          {
            "coding": [
              {
                "system": "http://terminology.hl7.org/CodeSystem/observation-category",
                "code": "laboratory"
              }
            ]
          }
        ],
        "code": {
          "coding": [
            {
              "code": "5770-3",
              "system": "http://loinc.org",
              "display": "Bilirubin.total [Presence] in Urine by Test strip"
            }
          ],
          "text": "Bilirubin.total [Presence] in Urine by Test strip"
        },
        "text": {
          "status": "generated",
          "div": "<div xmlns=\"http://www.w3.org/1999/xhtml\"><table class=\"hl7__eu__lab__report\"><tr><th>Test</th><th>23-Jun-2016</th><th>Reference&#xA0;Range</th><th>Unit</th></tr><tr><td>Bilirubin.total [Presence] in Urine by Test strip</td></tr></table></div>"
        },
        "status": "final",
        "subject": {
          "reference": "urn:uuid:4f67a13d-ad07-4135-9bdc-20c1696df634",
          "display": "Molly Jenkins"
        },
        "effectiveDateTime": "2016-06-23T14:42:11Z",
        "specimen": {
          "reference": "urn:uuid:daec72ce-c074-45d0-ae4f-46aec262ac3f"
        }
      }
    },
    {
      "fullUrl": "urn:uuid:ea576ec0-14d1-4956-8599-860c816266e8",
      "resource": {
        "resourceType": "Observation",
        "id": "ea576ec0-14d1-4956-8599-860c816266e8",
        "meta": {
          "profile": [
            "http://hl7.eu/fhir/laboratory/StructureDefinition/Observation-resultslab-eu-lab"
          ]
        },
        "performer": [
          {
            "display": "The Central European Lab"
          }
        ],
        "category": [
          {
            "coding": [
              {
                "system": "http://terminology.hl7.org/CodeSystem/observation-category",
                "code": "laboratory"
              }
            ]
          }
        ],
        "code": {
          "coding": [
            {
              "code": "5797-6",
              "system": "http://loinc.org",
              "display": "Ketones [Mass/volume] in Urine by Test strip"
            }
          ],
          "text": "Ketones [Mass/volume] in Urine by Test strip"
        },
        "valueQuantity": {
          "system": "http://unitsofmeasure.org",
          "value": 3.3,
          "unit": "mg/dL",
          "code": "mg/dL"
        },
        "referenceRange": [
          {
            "low": {
              "value": 0,
              "code": "mg/dL",
              "system": "http://unitsofmeasure.org"
            }
          },
          {
            "high": {
              "value": 0.5,
              "code": "mg/dL",
              "system": "http://unitsofmeasure.org"
            }
          }
        ],
        "interpretation": [
          {
            "coding": [
              {
                "code": "H",
                "system": "http://terminology.hl7.org/CodeSystem/v3-ObservationInterpretation",
                "display": "High"
              }
            ]
          }
        ],
        "text": {
          "status": "generated",
          "div": "<div xmlns=\"http://www.w3.org/1999/xhtml\"><table class=\"hl7__eu__lab__report\"><tr><th>Test</th><th>23-Jun-2016</th><th>Reference&#xA0;Range</th><th>Unit</th></tr><tr><td>Ketones [Mass/volume] in Urine by Test strip</td><td>3.3</td><td>0 - 0.5</td><td>H</td><td>mg/dL</td></tr></table></div>"
        },
        "status": "final",
        "subject": {
          "reference": "urn:uuid:4f67a13d-ad07-4135-9bdc-20c1696df634",
          "display": "Molly Jenkins"
        },
        "effectiveDateTime": "2016-06-23T14:42:11Z",
        "specimen": {
          "reference": "urn:uuid:daec72ce-c074-45d0-ae4f-46aec262ac3f"
        }
      }
    },
    {
      "fullUrl": "urn:uuid:eb0feb86-5d73-4aff-999c-7d461b21f13a",
      "resource": {
        "resourceType": "Observation",
        "id": "eb0feb86-5d73-4aff-999c-7d461b21f13a",
        "meta": {
          "profile": [
            "http://hl7.eu/fhir/laboratory/StructureDefinition/Observation-resultslab-eu-lab"
          ]
        },
        "performer": [
          {
            "display": "The Central European Lab"
          }
        ],
        "category": [
          {
            "coding": [
              {
                "system": "http://terminology.hl7.org/CodeSystem/observation-category",
                "code": "laboratory"
              }
            ]
          }
        ],
        "code": {
          "coding": [
            {
              "code": "2514-8",
              "system": "http://loinc.org",
              "display": "Ketones [Presence] in Urine by Test strip"
            }
          ],
          "text": "Ketones [Presence] in Urine by Test strip"
        },
        "text": {
          "status": "generated",
          "div": "<div xmlns=\"http://www.w3.org/1999/xhtml\"><table class=\"hl7__eu__lab__report\"><tr><th>Test</th><th>23-Jun-2016</th><th>Reference&#xA0;Range</th><th>Unit</th></tr><tr><td>Ketones [Presence] in Urine by Test strip</td></tr></table></div>"
        },
        "status": "final",
        "subject": {
          "reference": "urn:uuid:4f67a13d-ad07-4135-9bdc-20c1696df634",
          "display": "Molly Jenkins"
        },
        "effectiveDateTime": "2016-06-23T14:42:11Z",
        "specimen": {
          "reference": "urn:uuid:daec72ce-c074-45d0-ae4f-46aec262ac3f"
        }
      }
    },
    {
      "fullUrl": "urn:uuid:3b5e2356-a040-49f0-a066-3576e55582ca",
      "resource": {
        "resourceType": "Observation",
        "id": "3b5e2356-a040-49f0-a066-3576e55582ca",
        "meta": {
          "profile": [
            "http://hl7.eu/fhir/laboratory/StructureDefinition/Observation-resultslab-eu-lab"
          ]
        },
        "performer": [
          {
            "display": "The Central European Lab"
          }
        ],
        "category": [
          {
            "coding": [
              {
                "system": "http://terminology.hl7.org/CodeSystem/observation-category",
                "code": "laboratory"
              }
            ]
          }
        ],
        "code": {
          "coding": [
            {
              "code": "5811-5",
              "system": "http://loinc.org",
              "display": "Specific gravity of Urine by Test strip"
            }
          ],
          "text": "Specific gravity of Urine by Test strip"
        },
        "valueQuantity": {
          "system": "http://unitsofmeasure.org",
          "value": 1,
          "unit": "{nominal}",
          "code": "{nominal}"
        },
        "referenceRange": [
          {
            "low": {
              "value": 1.005,
              "code": "g/mL",
              "system": "http://unitsofmeasure.org"
            }
          },
          {
            "high": {
              "value": 1.03,
              "code": "g/mL",
              "system": "http://unitsofmeasure.org"
            }
          }
        ],
        "interpretation": [
          {
            "coding": [
              {
                "code": "L",
                "system": "http://terminology.hl7.org/CodeSystem/v3-ObservationInterpretation",
                "display": "Low"
              }
            ]
          }
        ],
        "text": {
          "status": "generated",
          "div": "<div xmlns=\"http://www.w3.org/1999/xhtml\"><table class=\"hl7__eu__lab__report\"><tr><th>Test</th><th>23-Jun-2016</th><th>Reference&#xA0;Range</th><th>Unit</th></tr><tr><td>Specific gravity of Urine by Test strip</td><td>1.0</td><td>1.005 - 1.03</td><td>L</td><td>{nominal}</td></tr></table></div>"
        },
        "status": "final",
        "subject": {
          "reference": "urn:uuid:4f67a13d-ad07-4135-9bdc-20c1696df634",
          "display": "Molly Jenkins"
        },
        "effectiveDateTime": "2016-06-23T14:42:11Z",
        "specimen": {
          "reference": "urn:uuid:daec72ce-c074-45d0-ae4f-46aec262ac3f"
        }
      }
    },
    {
      "fullUrl": "urn:uuid:258ce5dc-8465-44f5-aa13-d626b15edb4f",
      "resource": {
        "resourceType": "Observation",
        "id": "258ce5dc-8465-44f5-aa13-d626b15edb4f",
        "meta": {
          "profile": [
            "http://hl7.eu/fhir/laboratory/StructureDefinition/Observation-resultslab-eu-lab"
          ]
        },
        "performer": [
          {
            "display": "The Central European Lab"
          }
        ],
        "category": [
          {
            "coding": [
              {
                "system": "http://terminology.hl7.org/CodeSystem/observation-category",
                "code": "laboratory"
              }
            ]
          }
        ],
        "code": {
          "coding": [
            {
              "code": "5803-2",
              "system": "http://loinc.org",
              "display": "pH of Urine by Test strip"
            }
          ],
          "text": "pH of Urine by Test strip"
        },
        "valueQuantity": {
          "system": "http://unitsofmeasure.org",
          "value": 6.1,
          "unit": "pH",
          "code": "pH"
        },
        "referenceRange": [
          {
            "low": {
              "value": 4.5,
              "code": "pH",
              "system": "http://unitsofmeasure.org"
            }
          },
          {
            "high": {
              "value": 7.5,
              "code": "pH",
              "system": "http://unitsofmeasure.org"
            }
          }
        ],
        "text": {
          "status": "generated",
          "div": "<div xmlns=\"http://www.w3.org/1999/xhtml\"><table class=\"hl7__eu__lab__report\"><tr><th>Test</th><th>23-Jun-2016</th><th>Reference&#xA0;Range</th><th>Unit</th></tr><tr><td>pH of Urine by Test strip</td><td>6.1</td><td>4.5 - 7.5</td><td></td><td>pH</td></tr></table></div>"
        },
        "status": "final",
        "subject": {
          "reference": "urn:uuid:4f67a13d-ad07-4135-9bdc-20c1696df634",
          "display": "Molly Jenkins"
        },
        "effectiveDateTime": "2016-06-23T14:42:11Z",
        "specimen": {
          "reference": "urn:uuid:daec72ce-c074-45d0-ae4f-46aec262ac3f"
        }
      }
    },
    {
      "fullUrl": "urn:uuid:2896acac-f616-4667-947b-f1a63def035c",
      "resource": {
        "resourceType": "Observation",
        "id": "2896acac-f616-4667-947b-f1a63def035c",
        "meta": {
          "profile": [
            "http://hl7.eu/fhir/laboratory/StructureDefinition/Observation-resultslab-eu-lab"
          ]
        },
        "performer": [
          {
            "display": "The Central European Lab"
          }
        ],
        "category": [
          {
            "coding": [
              {
                "system": "http://terminology.hl7.org/CodeSystem/observation-category",
                "code": "laboratory"
              }
            ]
          }
        ],
        "code": {
          "coding": [
            {
              "code": "5804-0",
              "system": "http://loinc.org",
              "display": "Protein [Mass/volume] in Urine by Test strip"
            }
          ],
          "text": "Protein [Mass/volume] in Urine by Test strip"
        },
        "valueQuantity": {
          "system": "http://unitsofmeasure.org",
          "value": 237.7,
          "unit": "mg/dL",
          "code": "mg/dL"
        },
        "referenceRange": [
          {
            "low": {
              "value": 0,
              "code": "mg/dL",
              "system": "http://unitsofmeasure.org"
            }
          },
          {
            "high": {
              "value": 15,
              "code": "mg/dL",
              "system": "http://unitsofmeasure.org"
            }
          }
        ],
        "interpretation": [
          {
            "coding": [
              {
                "code": "H",
                "system": "http://terminology.hl7.org/CodeSystem/v3-ObservationInterpretation",
                "display": "High"
              }
            ]
          }
        ],
        "text": {
          "status": "generated",
          "div": "<div xmlns=\"http://www.w3.org/1999/xhtml\"><table class=\"hl7__eu__lab__report\"><tr><th>Test</th><th>23-Jun-2016</th><th>Reference&#xA0;Range</th><th>Unit</th></tr><tr><td>Protein [Mass/volume] in Urine by Test strip</td><td>237.7</td><td>0 - 15</td><td>H</td><td>mg/dL</td></tr></table></div>"
        },
        "status": "final",
        "subject": {
          "reference": "urn:uuid:4f67a13d-ad07-4135-9bdc-20c1696df634",
          "display": "Molly Jenkins"
        },
        "effectiveDateTime": "2016-06-23T14:42:11Z",
        "specimen": {
          "reference": "urn:uuid:daec72ce-c074-45d0-ae4f-46aec262ac3f"
        }
      }
    },
    {
      "fullUrl": "urn:uuid:4061a9ff-278e-4f04-b508-0ac0d15f6bba",
      "resource": {
        "resourceType": "Observation",
        "id": "4061a9ff-278e-4f04-b508-0ac0d15f6bba",
        "meta": {
          "profile": [
            "http://hl7.eu/fhir/laboratory/StructureDefinition/Observation-resultslab-eu-lab"
          ]
        },
        "performer": [
          {
            "display": "The Central European Lab"
          }
        ],
        "category": [
          {
            "coding": [
              {
                "system": "http://terminology.hl7.org/CodeSystem/observation-category",
                "code": "laboratory"
              }
            ]
          }
        ],
        "code": {
          "coding": [
            {
              "code": "20454-5",
              "system": "http://loinc.org",
              "display": "Protein [Presence] in Urine by Test strip"
            }
          ],
          "text": "Protein [Presence] in Urine by Test strip"
        },
        "text": {
          "status": "generated",
          "div": "<div xmlns=\"http://www.w3.org/1999/xhtml\"><table class=\"hl7__eu__lab__report\"><tr><th>Test</th><th>23-Jun-2016</th><th>Reference&#xA0;Range</th><th>Unit</th></tr><tr><td>Protein [Presence] in Urine by Test strip</td></tr></table></div>"
        },
        "status": "final",
        "subject": {
          "reference": "urn:uuid:4f67a13d-ad07-4135-9bdc-20c1696df634",
          "display": "Molly Jenkins"
        },
        "effectiveDateTime": "2016-06-23T14:42:11Z",
        "specimen": {
          "reference": "urn:uuid:daec72ce-c074-45d0-ae4f-46aec262ac3f"
        }
      }
    },
    {
      "fullUrl": "urn:uuid:4f180a2e-befd-4057-b7dc-540eeb77639a",
      "resource": {
        "resourceType": "Observation",
        "id": "4f180a2e-befd-4057-b7dc-540eeb77639a",
        "meta": {
          "profile": [
            "http://hl7.eu/fhir/laboratory/StructureDefinition/Observation-resultslab-eu-lab"
          ]
        },
        "performer": [
          {
            "display": "The Central European Lab"
          }
        ],
        "category": [
          {
            "coding": [
              {
                "system": "http://terminology.hl7.org/CodeSystem/observation-category",
                "code": "laboratory"
              }
            ]
          }
        ],
        "code": {
          "coding": [
            {
              "code": "5802-4",
              "system": "http://loinc.org",
              "display": "Nitrite [Presence] in Urine by Test strip"
            }
          ],
          "text": "Nitrite [Presence] in Urine by Test strip"
        },
        "text": {
          "status": "generated",
          "div": "<div xmlns=\"http://www.w3.org/1999/xhtml\"><table class=\"hl7__eu__lab__report\"><tr><th>Test</th><th>23-Jun-2016</th><th>Reference&#xA0;Range</th><th>Unit</th></tr><tr><td>Nitrite [Presence] in Urine by Test strip</td></tr></table></div>"
        },
        "status": "final",
        "subject": {
          "reference": "urn:uuid:4f67a13d-ad07-4135-9bdc-20c1696df634",
          "display": "Molly Jenkins"
        },
        "effectiveDateTime": "2016-06-23T14:42:11Z",
        "specimen": {
          "reference": "urn:uuid:daec72ce-c074-45d0-ae4f-46aec262ac3f"
        }
      }
    },
    {
      "fullUrl": "urn:uuid:aaf4906a-46f3-4519-aa9d-1bbead0af1ce",
      "resource": {
        "resourceType": "Observation",
        "id": "aaf4906a-46f3-4519-aa9d-1bbead0af1ce",
        "meta": {
          "profile": [
            "http://hl7.eu/fhir/laboratory/StructureDefinition/Observation-resultslab-eu-lab"
          ]
        },
        "performer": [
          {
            "display": "The Central European Lab"
          }
        ],
        "category": [
          {
            "coding": [
              {
                "system": "http://terminology.hl7.org/CodeSystem/observation-category",
                "code": "laboratory"
              }
            ]
          }
        ],
        "code": {
          "coding": [
            {
              "code": "5794-3",
              "system": "http://loinc.org",
              "display": "Hemoglobin [Presence] in Urine by Test strip"
            }
          ],
          "text": "Hemoglobin [Presence] in Urine by Test strip"
        },
        "text": {
          "status": "generated",
          "div": "<div xmlns=\"http://www.w3.org/1999/xhtml\"><table class=\"hl7__eu__lab__report\"><tr><th>Test</th><th>23-Jun-2016</th><th>Reference&#xA0;Range</th><th>Unit</th></tr><tr><td>Hemoglobin [Presence] in Urine by Test strip</td></tr></table></div>"
        },
        "status": "final",
        "subject": {
          "reference": "urn:uuid:4f67a13d-ad07-4135-9bdc-20c1696df634",
          "display": "Molly Jenkins"
        },
        "effectiveDateTime": "2016-06-23T14:42:11Z",
        "specimen": {
          "reference": "urn:uuid:daec72ce-c074-45d0-ae4f-46aec262ac3f"
        }
      }
    },
    {
      "fullUrl": "urn:uuid:c71da876-4e93-4459-ba95-46d12b40b559",
      "resource": {
        "resourceType": "Observation",
        "id": "c71da876-4e93-4459-ba95-46d12b40b559",
        "meta": {
          "profile": [
            "http://hl7.eu/fhir/laboratory/StructureDefinition/Observation-resultslab-eu-lab"
          ]
        },
        "performer": [
          {
            "display": "The Central European Lab"
          }
        ],
        "category": [
          {
            "coding": [
              {
                "system": "http://terminology.hl7.org/CodeSystem/observation-category",
                "code": "laboratory"
              }
            ]
          }
        ],
        "code": {
          "coding": [
            {
              "code": "5799-2",
              "system": "http://loinc.org",
              "display": "Leukocyte esterase [Presence] in Urine by Test strip"
            }
          ],
          "text": "Leukocyte esterase [Presence] in Urine by Test strip"
        },
        "text": {
          "status": "generated",
          "div": "<div xmlns=\"http://www.w3.org/1999/xhtml\"><table class=\"hl7__eu__lab__report\"><tr><th>Test</th><th>23-Jun-2016</th><th>Reference&#xA0;Range</th><th>Unit</th></tr><tr><td>Leukocyte esterase [Presence] in Urine by Test strip</td></tr></table></div>"
        },
        "status": "final",
        "subject": {
          "reference": "urn:uuid:4f67a13d-ad07-4135-9bdc-20c1696df634",
          "display": "Molly Jenkins"
        },
        "effectiveDateTime": "2016-06-23T14:42:11Z",
        "specimen": {
          "reference": "urn:uuid:daec72ce-c074-45d0-ae4f-46aec262ac3f"
        }
      }
    },
    {
      "fullUrl": "urn:uuid:26f9d59c-2df8-4baf-8c71-551a75507ec1",
      "resource": {
        "resourceType": "Observation",
        "id": "26f9d59c-2df8-4baf-8c71-551a75507ec1",
        "meta": {
          "profile": [
            "http://hl7.eu/fhir/laboratory/StructureDefinition/Observation-resultslab-eu-lab"
          ]
        },
        "performer": [
          {
            "display": "The Central European Lab"
          }
        ],
        "category": [
          {
            "coding": [
              {
                "system": "http://terminology.hl7.org/CodeSystem/observation-category",
                "code": "laboratory"
              }
            ]
          }
        ],
        "code": {
          "coding": [
            {
              "code": "4548-4",
              "system": "http://loinc.org",
              "display": "Hemoglobin A1c/Hemoglobin.total in Blood"
            }
          ],
          "text": "Hemoglobin A1c/Hemoglobin.total in Blood"
        },
        "valueQuantity": {
          "system": "http://unitsofmeasure.org",
          "value": 3.1,
          "unit": "%",
          "code": "%"
        },
        "referenceRange": [
          {
            "low": {
              "value": 4,
              "code": "%",
              "system": "http://unitsofmeasure.org"
            }
          },
          {
            "high": {
              "value": 6,
              "code": "%",
              "system": "http://unitsofmeasure.org"
            }
          }
        ],
        "interpretation": [
          {
            "coding": [
              {
                "code": "L",
                "system": "http://terminology.hl7.org/CodeSystem/v3-ObservationInterpretation",
                "display": "Low"
              }
            ]
          }
        ],
        "text": {
          "status": "generated",
          "div": "<div xmlns=\"http://www.w3.org/1999/xhtml\"><table class=\"hl7__eu__lab__report\"><tr><th>Test</th><th>23-Jun-2016</th><th>Reference&#xA0;Range</th><th>Unit</th></tr><tr><td>Hemoglobin A1c/Hemoglobin.total in Blood</td><td>3.1</td><td>4 - 6</td><td>L</td><td>%</td></tr></table></div>"
        },
        "status": "final",
        "subject": {
          "reference": "urn:uuid:4f67a13d-ad07-4135-9bdc-20c1696df634",
          "display": "Molly Jenkins"
        },
        "effectiveDateTime": "2016-06-23T14:42:11Z",
        "specimen": {
          "reference": "urn:uuid:cf60039d-cb6f-48d2-881d-e9a3cea61733"
        }
      }
    },
    {
      "fullUrl": "urn:uuid:425ca6a7-7c83-4e7a-888c-b5560380380d",
      "resource": {
        "resourceType": "Observation",
        "id": "425ca6a7-7c83-4e7a-888c-b5560380380d",
        "meta": {
          "profile": [
            "http://hl7.eu/fhir/laboratory/StructureDefinition/Observation-resultslab-eu-lab"
          ]
        },
        "performer": [
          {
            "display": "The Central European Lab"
          }
        ],
        "category": [
          {
            "coding": [
              {
                "system": "http://terminology.hl7.org/CodeSystem/observation-category",
                "code": "laboratory"
              }
            ]
          }
        ],
        "code": {
          "coding": [
            {
              "code": "2339-0",
              "system": "http://loinc.org",
              "display": "Glucose [Mass/volume] in Blood"
            }
          ],
          "text": "Glucose [Mass/volume] in Blood"
        },
        "valueQuantity": {
          "system": "http://unitsofmeasure.org",
          "value": 67.1,
          "unit": "mg/dL",
          "code": "mg/dL"
        },
        "referenceRange": [
          {
            "low": {
              "value": 70,
              "code": "mg/dL",
              "system": "http://unitsofmeasure.org"
            }
          },
          {
            "high": {
              "value": 100,
              "code": "mg/dL",
              "system": "http://unitsofmeasure.org"
            }
          }
        ],
        "interpretation": [
          {
            "coding": [
              {
                "code": "L",
                "system": "http://terminology.hl7.org/CodeSystem/v3-ObservationInterpretation",
                "display": "Low"
              }
            ]
          }
        ],
        "text": {
          "status": "generated",
          "div": "<div xmlns=\"http://www.w3.org/1999/xhtml\"><table class=\"hl7__eu__lab__report\"><tr><th>Test</th><th>23-Jun-2016</th><th>Reference&#xA0;Range</th><th>Unit</th></tr><tr><td>Glucose [Mass/volume] in Blood</td><td>67.1</td><td>70 - 100</td><td>L</td><td>mg/dL</td></tr></table></div>"
        },
        "status": "final",
        "subject": {
          "reference": "urn:uuid:4f67a13d-ad07-4135-9bdc-20c1696df634",
          "display": "Molly Jenkins"
        },
        "effectiveDateTime": "2016-06-23T14:42:11Z",
        "specimen": {
          "reference": "urn:uuid:cf60039d-cb6f-48d2-881d-e9a3cea61733"
        }
      }
    },
    {
      "fullUrl": "urn:uuid:25d1ee70-11f7-4b9a-8881-2c4fba3cb147",
      "resource": {
        "resourceType": "Observation",
        "id": "25d1ee70-11f7-4b9a-8881-2c4fba3cb147",
        "meta": {
          "profile": [
            "http://hl7.eu/fhir/laboratory/StructureDefinition/Observation-resultslab-eu-lab"
          ]
        },
        "performer": [
          {
            "display": "The Central European Lab"
          }
        ],
        "category": [
          {
            "coding": [
              {
                "system": "http://terminology.hl7.org/CodeSystem/observation-category",
                "code": "laboratory"
              }
            ]
          }
        ],
        "code": {
          "coding": [
            {
              "code": "6299-2",
              "system": "http://loinc.org",
              "display": "Urea nitrogen [Mass/volume] in Blood"
            }
          ],
          "text": "Urea nitrogen [Mass/volume] in Blood"
        },
        "valueQuantity": {
          "system": "http://unitsofmeasure.org",
          "value": 18.3,
          "unit": "mg/dL",
          "code": "mg/dL"
        },
        "referenceRange": [
          {
            "low": {
              "value": 7,
              "code": "mg/dL",
              "system": "http://unitsofmeasure.org"
            }
          },
          {
            "high": {
              "value": 20,
              "code": "mg/dL",
              "system": "http://unitsofmeasure.org"
            }
          }
        ],
        "text": {
          "status": "generated",
          "div": "<div xmlns=\"http://www.w3.org/1999/xhtml\"><table class=\"hl7__eu__lab__report\"><tr><th>Test</th><th>23-Jun-2016</th><th>Reference&#xA0;Range</th><th>Unit</th></tr><tr><td>Urea nitrogen [Mass/volume] in Blood</td><td>18.3</td><td>7 - 20</td><td></td><td>mg/dL</td></tr></table></div>"
        },
        "status": "final",
        "subject": {
          "reference": "urn:uuid:4f67a13d-ad07-4135-9bdc-20c1696df634",
          "display": "Molly Jenkins"
        },
        "effectiveDateTime": "2016-06-23T14:42:11Z",
        "specimen": {
          "reference": "urn:uuid:cf60039d-cb6f-48d2-881d-e9a3cea61733"
        }
      }
    },
    {
      "fullUrl": "urn:uuid:70629e23-85c1-4832-854f-b6200de5ba3a",
      "resource": {
        "resourceType": "Observation",
        "id": "70629e23-85c1-4832-854f-b6200de5ba3a",
        "meta": {
          "profile": [
            "http://hl7.eu/fhir/laboratory/StructureDefinition/Observation-resultslab-eu-lab"
          ]
        },
        "performer": [
          {
            "display": "The Central European Lab"
          }
        ],
        "category": [
          {
            "coding": [
              {
                "system": "http://terminology.hl7.org/CodeSystem/observation-category",
                "code": "laboratory"
              }
            ]
          }
        ],
        "code": {
          "coding": [
            {
              "code": "38483-4",
              "system": "http://loinc.org",
              "display": "Creatinine [Mass/volume] in Blood"
            }
          ],
          "text": "Creatinine [Mass/volume] in Blood"
        },
        "valueQuantity": {
          "system": "http://unitsofmeasure.org",
          "value": 1.3,
          "unit": "mg/dL",
          "code": "mg/dL"
        },
        "referenceRange": [
          {
            "low": {
              "value": 0.6,
              "code": "mg/dL",
              "system": "http://unitsofmeasure.org"
            }
          },
          {
            "high": {
              "value": 1.3,
              "code": "mg/dL",
              "system": "http://unitsofmeasure.org"
            }
          }
        ],
        "text": {
          "status": "generated",
          "div": "<div xmlns=\"http://www.w3.org/1999/xhtml\"><table class=\"hl7__eu__lab__report\"><tr><th>Test</th><th>23-Jun-2016</th><th>Reference&#xA0;Range</th><th>Unit</th></tr><tr><td>Creatinine [Mass/volume] in Blood</td><td>1.3</td><td>0.6 - 1.3</td><td></td><td>mg/dL</td></tr></table></div>"
        },
        "status": "final",
        "subject": {
          "reference": "urn:uuid:4f67a13d-ad07-4135-9bdc-20c1696df634",
          "display": "Molly Jenkins"
        },
        "effectiveDateTime": "2016-06-23T14:42:11Z",
        "specimen": {
          "reference": "urn:uuid:cf60039d-cb6f-48d2-881d-e9a3cea61733"
        }
      }
    },
    {
      "fullUrl": "urn:uuid:4a370e08-2408-4346-a995-b44a629eaafa",
      "resource": {
        "resourceType": "Observation",
        "id": "4a370e08-2408-4346-a995-b44a629eaafa",
        "meta": {
          "profile": [
            "http://hl7.eu/fhir/laboratory/StructureDefinition/Observation-resultslab-eu-lab"
          ]
        },
        "performer": [
          {
            "display": "The Central European Lab"
          }
        ],
        "category": [
          {
            "coding": [
              {
                "system": "http://terminology.hl7.org/CodeSystem/observation-category",
                "code": "laboratory"
              }
            ]
          }
        ],
        "code": {
          "coding": [
            {
              "code": "49765-1",
              "system": "http://loinc.org",
              "display": "Calcium [Mass/volume] in Blood"
            }
          ],
          "text": "Calcium [Mass/volume] in Blood"
        },
        "valueQuantity": {
          "system": "http://unitsofmeasure.org",
          "value": 8.9,
          "unit": "mg/dL",
          "code": "mg/dL"
        },
        "referenceRange": [
          {
            "low": {
              "value": 8.6,
              "code": "mg/dL",
              "system": "http://unitsofmeasure.org"
            }
          },
          {
            "high": {
              "value": 10.4,
              "code": "mg/dL",
              "system": "http://unitsofmeasure.org"
            }
          }
        ],
        "text": {
          "status": "generated",
          "div": "<div xmlns=\"http://www.w3.org/1999/xhtml\"><table class=\"hl7__eu__lab__report\"><tr><th>Test</th><th>23-Jun-2016</th><th>Reference&#xA0;Range</th><th>Unit</th></tr><tr><td>Calcium [Mass/volume] in Blood</td><td>8.9</td><td>8.6 - 10.4</td><td></td><td>mg/dL</td></tr></table></div>"
        },
        "status": "final",
        "subject": {
          "reference": "urn:uuid:4f67a13d-ad07-4135-9bdc-20c1696df634",
          "display": "Molly Jenkins"
        },
        "effectiveDateTime": "2016-06-23T14:42:11Z",
        "specimen": {
          "reference": "urn:uuid:cf60039d-cb6f-48d2-881d-e9a3cea61733"
        }
      }
    },
    {
      "fullUrl": "urn:uuid:16e2e2d4-cddc-4c44-b8dd-dc0ab72b21a3",
      "resource": {
        "resourceType": "Observation",
        "id": "16e2e2d4-cddc-4c44-b8dd-dc0ab72b21a3",
        "meta": {
          "profile": [
            "http://hl7.eu/fhir/laboratory/StructureDefinition/Observation-resultslab-eu-lab"
          ]
        },
        "performer": [
          {
            "display": "The Central European Lab"
          }
        ],
        "category": [
          {
            "coding": [
              {
                "system": "http://terminology.hl7.org/CodeSystem/observation-category",
                "code": "laboratory"
              }
            ]
          }
        ],
        "code": {
          "coding": [
            {
              "code": "2947-0",
              "system": "http://loinc.org",
              "display": "Sodium [Moles/volume] in Blood"
            }
          ],
          "text": "Sodium [Moles/volume] in Blood"
        },
        "valueQuantity": {
          "system": "http://unitsofmeasure.org",
          "value": 139.7,
          "unit": "mmol/L",
          "code": "mmol/L"
        },
        "referenceRange": [
          {
            "low": {
              "value": 135,
              "code": "mmol/L",
              "system": "http://unitsofmeasure.org"
            }
          },
          {
            "high": {
              "value": 145,
              "code": "mmol/L",
              "system": "http://unitsofmeasure.org"
            }
          }
        ],
        "text": {
          "status": "generated",
          "div": "<div xmlns=\"http://www.w3.org/1999/xhtml\"><table class=\"hl7__eu__lab__report\"><tr><th>Test</th><th>23-Jun-2016</th><th>Reference&#xA0;Range</th><th>Unit</th></tr><tr><td>Sodium [Moles/volume] in Blood</td><td>139.7</td><td>135 - 145</td><td></td><td>mmol/L</td></tr></table></div>"
        },
        "status": "final",
        "subject": {
          "reference": "urn:uuid:4f67a13d-ad07-4135-9bdc-20c1696df634",
          "display": "Molly Jenkins"
        },
        "effectiveDateTime": "2016-06-23T14:42:11Z",
        "specimen": {
          "reference": "urn:uuid:cf60039d-cb6f-48d2-881d-e9a3cea61733"
        }
      }
    },
    {
      "fullUrl": "urn:uuid:36d0ea3e-bb78-4df7-9ed2-f57d19ba6cd1",
      "resource": {
        "resourceType": "Observation",
        "id": "36d0ea3e-bb78-4df7-9ed2-f57d19ba6cd1",
        "meta": {
          "profile": [
            "http://hl7.eu/fhir/laboratory/StructureDefinition/Observation-resultslab-eu-lab"
          ]
        },
        "performer": [
          {
            "display": "The Central European Lab"
          }
        ],
        "category": [
          {
            "coding": [
              {
                "system": "http://terminology.hl7.org/CodeSystem/observation-category",
                "code": "laboratory"
              }
            ]
          }
        ],
        "code": {
          "coding": [
            {
              "code": "6298-4",
              "system": "http://loinc.org",
              "display": "Potassium [Moles/volume] in Blood"
            }
          ],
          "text": "Potassium [Moles/volume] in Blood"
        },
        "valueQuantity": {
          "system": "http://unitsofmeasure.org",
          "value": 5.2,
          "unit": "mmol/L",
          "code": "mmol/L"
        },
        "referenceRange": [
          {
            "low": {
              "value": 3.5,
              "code": "mmol/L",
              "system": "http://unitsofmeasure.org"
            }
          },
          {
            "high": {
              "value": 5.1,
              "code": "mmol/L",
              "system": "http://unitsofmeasure.org"
            }
          }
        ],
        "interpretation": [
          {
            "coding": [
              {
                "code": "H",
                "system": "http://terminology.hl7.org/CodeSystem/v3-ObservationInterpretation",
                "display": "High"
              }
            ]
          }
        ],
        "text": {
          "status": "generated",
          "div": "<div xmlns=\"http://www.w3.org/1999/xhtml\"><table class=\"hl7__eu__lab__report\"><tr><th>Test</th><th>23-Jun-2016</th><th>Reference&#xA0;Range</th><th>Unit</th></tr><tr><td>Potassium [Moles/volume] in Blood</td><td>5.2</td><td>3.5 - 5.1</td><td>H</td><td>mmol/L</td></tr></table></div>"
        },
        "status": "final",
        "subject": {
          "reference": "urn:uuid:4f67a13d-ad07-4135-9bdc-20c1696df634",
          "display": "Molly Jenkins"
        },
        "effectiveDateTime": "2016-06-23T14:42:11Z",
        "specimen": {
          "reference": "urn:uuid:cf60039d-cb6f-48d2-881d-e9a3cea61733"
        }
      }
    },
    {
      "fullUrl": "urn:uuid:8dfcf725-fff9-4df5-b977-a7364f89a33d",
      "resource": {
        "resourceType": "Observation",
        "id": "8dfcf725-fff9-4df5-b977-a7364f89a33d",
        "meta": {
          "profile": [
            "http://hl7.eu/fhir/laboratory/StructureDefinition/Observation-resultslab-eu-lab"
          ]
        },
        "performer": [
          {
            "display": "The Central European Lab"
          }
        ],
        "category": [
          {
            "coding": [
              {
                "system": "http://terminology.hl7.org/CodeSystem/observation-category",
                "code": "laboratory"
              }
            ]
          }
        ],
        "code": {
          "coding": [
            {
              "code": "2069-3",
              "system": "http://loinc.org",
              "display": "Chloride [Moles/volume] in Blood"
            }
          ],
          "text": "Chloride [Moles/volume] in Blood"
        },
        "valueQuantity": {
          "system": "http://unitsofmeasure.org",
          "value": 101.8,
          "unit": "mmol/L",
          "code": "mmol/L"
        },
        "referenceRange": [
          {
            "low": {
              "value": 98,
              "code": "mmol/L",
              "system": "http://unitsofmeasure.org"
            }
          },
          {
            "high": {
              "value": 110,
              "code": "mmol/L",
              "system": "http://unitsofmeasure.org"
            }
          }
        ],
        "text": {
          "status": "generated",
          "div": "<div xmlns=\"http://www.w3.org/1999/xhtml\"><table class=\"hl7__eu__lab__report\"><tr><th>Test</th><th>23-Jun-2016</th><th>Reference&#xA0;Range</th><th>Unit</th></tr><tr><td>Chloride [Moles/volume] in Blood</td><td>101.8</td><td>98 - 110</td><td></td><td>mmol/L</td></tr></table></div>"
        },
        "status": "final",
        "subject": {
          "reference": "urn:uuid:4f67a13d-ad07-4135-9bdc-20c1696df634",
          "display": "Molly Jenkins"
        },
        "effectiveDateTime": "2016-06-23T14:42:11Z",
        "specimen": {
          "reference": "urn:uuid:cf60039d-cb6f-48d2-881d-e9a3cea61733"
        }
      }
    },
    {
      "fullUrl": "urn:uuid:0ccf7585-08f3-4753-abca-700ed056088e",
      "resource": {
        "resourceType": "Observation",
        "id": "0ccf7585-08f3-4753-abca-700ed056088e",
        "meta": {
          "profile": [
            "http://hl7.eu/fhir/laboratory/StructureDefinition/Observation-resultslab-eu-lab"
          ]
        },
        "performer": [
          {
            "display": "The Central European Lab"
          }
        ],
        "category": [
          {
            "coding": [
              {
                "system": "http://terminology.hl7.org/CodeSystem/observation-category",
                "code": "laboratory"
              }
            ]
          }
        ],
        "code": {
          "coding": [
            {
              "code": "20565-8",
              "system": "http://loinc.org",
              "display": "Carbon dioxide, total [Moles/volume] in Blood"
            }
          ],
          "text": "Carbon dioxide, total [Moles/volume] in Blood"
        },
        "valueQuantity": {
          "system": "http://unitsofmeasure.org",
          "value": 26.6,
          "unit": "mmol/L",
          "code": "mmol/L"
        },
        "referenceRange": [
          {
            "low": {
              "value": 22,
              "code": "mmol/L",
              "system": "http://unitsofmeasure.org"
            }
          },
          {
            "high": {
              "value": 29,
              "code": "mmol/L",
              "system": "http://unitsofmeasure.org"
            }
          }
        ],
        "text": {
          "status": "generated",
          "div": "<div xmlns=\"http://www.w3.org/1999/xhtml\"><table class=\"hl7__eu__lab__report\"><tr><th>Test</th><th>23-Jun-2016</th><th>Reference&#xA0;Range</th><th>Unit</th></tr><tr><td>Carbon dioxide, total [Moles/volume] in Blood</td><td>26.6</td><td>22 - 29</td><td></td><td>mmol/L</td></tr></table></div>"
        },
        "status": "final",
        "subject": {
          "reference": "urn:uuid:4f67a13d-ad07-4135-9bdc-20c1696df634",
          "display": "Molly Jenkins"
        },
        "effectiveDateTime": "2016-06-23T14:42:11Z",
        "specimen": {
          "reference": "urn:uuid:cf60039d-cb6f-48d2-881d-e9a3cea61733"
        }
      }
    },
    {
      "fullUrl": "urn:uuid:70bcf3ad-ea3f-4685-89ed-37c1e0361793",
      "resource": {
        "resourceType": "Observation",
        "id": "70bcf3ad-ea3f-4685-89ed-37c1e0361793",
        "meta": {
          "profile": [
            "http://hl7.eu/fhir/laboratory/StructureDefinition/Observation-resultslab-eu-lab"
          ]
        },
        "performer": [
          {
            "display": "The Central European Lab"
          }
        ],
        "category": [
          {
            "coding": [
              {
                "system": "http://terminology.hl7.org/CodeSystem/observation-category",
                "code": "laboratory"
              }
            ]
          }
        ],
        "code": {
          "coding": [
            {
              "code": "6690-2",
              "system": "http://loinc.org",
              "display": "Leukocytes [#/volume] in Blood by Automated count"
            }
          ],
          "text": "Leukocytes [#/volume] in Blood by Automated count"
        },
        "valueQuantity": {
          "system": "http://unitsofmeasure.org",
          "value": 4,
          "unit": "10*3/uL",
          "code": "10*3/uL"
        },
        "referenceRange": [
          {
            "low": {
              "value": 3.6,
              "code": "10*3/uL",
              "system": "http://unitsofmeasure.org"
            }
          },
          {
            "high": {
              "value": 10.5,
              "code": "10*3/uL",
              "system": "http://unitsofmeasure.org"
            }
          }
        ],
        "text": {
          "status": "generated",
          "div": "<div xmlns=\"http://www.w3.org/1999/xhtml\"><table class=\"hl7__eu__lab__report\"><tr><th>Test</th><th>23-Jun-2016</th><th>Reference&#xA0;Range</th><th>Unit</th></tr><tr><td>Leukocytes [#/volume] in Blood by Automated count</td><td>4.0</td><td>3.6 - 10.5</td><td></td><td>10*3/uL</td></tr></table></div>"
        },
        "status": "final",
        "subject": {
          "reference": "urn:uuid:4f67a13d-ad07-4135-9bdc-20c1696df634",
          "display": "Molly Jenkins"
        },
        "effectiveDateTime": "2016-06-23T14:42:11Z",
        "specimen": {
          "reference": "urn:uuid:cf60039d-cb6f-48d2-881d-e9a3cea61733"
        }
      }
    },
    {
      "fullUrl": "urn:uuid:f2158286-2db7-4a63-bac0-dfbc1b4c09e6",
      "resource": {
        "resourceType": "Observation",
        "id": "f2158286-2db7-4a63-bac0-dfbc1b4c09e6",
        "meta": {
          "profile": [
            "http://hl7.eu/fhir/laboratory/StructureDefinition/Observation-resultslab-eu-lab"
          ]
        },
        "performer": [
          {
            "display": "The Central European Lab"
          }
        ],
        "category": [
          {
            "coding": [
              {
                "system": "http://terminology.hl7.org/CodeSystem/observation-category",
                "code": "laboratory"
              }
            ]
          }
        ],
        "code": {
          "coding": [
            {
              "code": "789-8",
              "system": "http://loinc.org",
              "display": "Erythrocytes [#/volume] in Blood by Automated count"
            }
          ],
          "text": "Erythrocytes [#/volume] in Blood by Automated count"
        },
        "valueQuantity": {
          "system": "http://unitsofmeasure.org",
          "value": 4.4,
          "unit": "10*6/uL",
          "code": "10*6/uL"
        },
        "referenceRange": [
          {
            "low": {
              "value": 4.5,
              "code": "10*6/uL",
              "system": "http://unitsofmeasure.org"
            }
          },
          {
            "high": {
              "value": 5,
              "code": "10*6/uL",
              "system": "http://unitsofmeasure.org"
            }
          }
        ],
        "interpretation": [
          {
            "coding": [
              {
                "code": "L",
                "system": "http://terminology.hl7.org/CodeSystem/v3-ObservationInterpretation",
                "display": "Low"
              }
            ]
          }
        ],
        "text": {
          "status": "generated",
          "div": "<div xmlns=\"http://www.w3.org/1999/xhtml\"><table class=\"hl7__eu__lab__report\"><tr><th>Test</th><th>23-Jun-2016</th><th>Reference&#xA0;Range</th><th>Unit</th></tr><tr><td>Erythrocytes [#/volume] in Blood by Automated count</td><td>4.4</td><td>4.5 - 5</td><td>L</td><td>10*6/uL</td></tr></table></div>"
        },
        "status": "final",
        "subject": {
          "reference": "urn:uuid:4f67a13d-ad07-4135-9bdc-20c1696df634",
          "display": "Molly Jenkins"
        },
        "effectiveDateTime": "2016-06-23T14:42:11Z",
        "specimen": {
          "reference": "urn:uuid:cf60039d-cb6f-48d2-881d-e9a3cea61733"
        }
      }
    },
    {
      "fullUrl": "urn:uuid:d7cac303-6ffc-4c9e-94d1-9594769ff9c0",
      "resource": {
        "resourceType": "Observation",
        "id": "d7cac303-6ffc-4c9e-94d1-9594769ff9c0",
        "meta": {
          "profile": [
            "http://hl7.eu/fhir/laboratory/StructureDefinition/Observation-resultslab-eu-lab"
          ]
        },
        "performer": [
          {
            "display": "The Central European Lab"
          }
        ],
        "category": [
          {
            "coding": [
              {
                "system": "http://terminology.hl7.org/CodeSystem/observation-category",
                "code": "laboratory"
              }
            ]
          }
        ],
        "code": {
          "coding": [
            {
              "code": "718-7",
              "system": "http://loinc.org",
              "display": "Hemoglobin [Mass/volume] in Blood"
            }
          ],
          "text": "Hemoglobin [Mass/volume] in Blood"
        },
        "valueQuantity": {
          "system": "http://unitsofmeasure.org",
          "value": 16.3,
          "unit": "g/dL",
          "code": "g/dL"
        },
        "referenceRange": [
          {
            "low": {
              "value": 12,
              "code": "g/dL",
              "system": "http://unitsofmeasure.org"
            }
          },
          {
            "high": {
              "value": 15.5,
              "code": "g/dL",
              "system": "http://unitsofmeasure.org"
            }
          }
        ],
        "interpretation": [
          {
            "coding": [
              {
                "code": "H",
                "system": "http://terminology.hl7.org/CodeSystem/v3-ObservationInterpretation",
                "display": "High"
              }
            ]
          }
        ],
        "text": {
          "status": "generated",
          "div": "<div xmlns=\"http://www.w3.org/1999/xhtml\"><table class=\"hl7__eu__lab__report\"><tr><th>Test</th><th>23-Jun-2016</th><th>Reference&#xA0;Range</th><th>Unit</th></tr><tr><td>Hemoglobin [Mass/volume] in Blood</td><td>16.3</td><td>12 - 15.5</td><td>H</td><td>g/dL</td></tr></table></div>"
        },
        "status": "final",
        "subject": {
          "reference": "urn:uuid:4f67a13d-ad07-4135-9bdc-20c1696df634",
          "display": "Molly Jenkins"
        },
        "effectiveDateTime": "2016-06-23T14:42:11Z",
        "specimen": {
          "reference": "urn:uuid:cf60039d-cb6f-48d2-881d-e9a3cea61733"
        }
      }
    },
    {
      "fullUrl": "urn:uuid:694f6cb9-bfe7-49f2-815a-7b12d93d7d89",
      "resource": {
        "resourceType": "Observation",
        "id": "694f6cb9-bfe7-49f2-815a-7b12d93d7d89",
        "meta": {
          "profile": [
            "http://hl7.eu/fhir/laboratory/StructureDefinition/Observation-resultslab-eu-lab"
          ]
        },
        "performer": [
          {
            "display": "The Central European Lab"
          }
        ],
        "category": [
          {
            "coding": [
              {
                "system": "http://terminology.hl7.org/CodeSystem/observation-category",
                "code": "laboratory"
              }
            ]
          }
        ],
        "code": {
          "coding": [
            {
              "code": "4544-3",
              "system": "http://loinc.org",
              "display": "Hematocrit [Volume Fraction] of Blood by Automated count"
            }
          ],
          "text": "Hematocrit [Volume Fraction] of Blood by Automated count"
        },
        "valueQuantity": {
          "system": "http://unitsofmeasure.org",
          "value": 44.1,
          "unit": "%",
          "code": "%"
        },
        "referenceRange": [
          {
            "low": {
              "value": 37,
              "code": "%",
              "system": "http://unitsofmeasure.org"
            }
          },
          {
            "high": {
              "value": 52,
              "code": "%",
              "system": "http://unitsofmeasure.org"
            }
          }
        ],
        "text": {
          "status": "generated",
          "div": "<div xmlns=\"http://www.w3.org/1999/xhtml\"><table class=\"hl7__eu__lab__report\"><tr><th>Test</th><th>23-Jun-2016</th><th>Reference&#xA0;Range</th><th>Unit</th></tr><tr><td>Hematocrit [Volume Fraction] of Blood by Automated count</td><td>44.1</td><td>37 - 52</td><td></td><td>%</td></tr></table></div>"
        },
        "status": "final",
        "subject": {
          "reference": "urn:uuid:4f67a13d-ad07-4135-9bdc-20c1696df634",
          "display": "Molly Jenkins"
        },
        "effectiveDateTime": "2016-06-23T14:42:11Z",
        "specimen": {
          "reference": "urn:uuid:cf60039d-cb6f-48d2-881d-e9a3cea61733"
        }
      }
    },
    {
      "fullUrl": "urn:uuid:138f27f3-5938-4543-9d79-5192082b9b40",
      "resource": {
        "resourceType": "Observation",
        "id": "138f27f3-5938-4543-9d79-5192082b9b40",
        "meta": {
          "profile": [
            "http://hl7.eu/fhir/laboratory/StructureDefinition/Observation-resultslab-eu-lab"
          ]
        },
        "performer": [
          {
            "display": "The Central European Lab"
          }
        ],
        "category": [
          {
            "coding": [
              {
                "system": "http://terminology.hl7.org/CodeSystem/observation-category",
                "code": "laboratory"
              }
            ]
          }
        ],
        "code": {
          "coding": [
            {
              "code": "787-2",
              "system": "http://loinc.org",
              "display": "MCV [Entitic volume] by Automated count"
            }
          ],
          "text": "MCV [Entitic volume] by Automated count"
        },
        "valueQuantity": {
          "system": "http://unitsofmeasure.org",
          "value": 93,
          "unit": "fL",
          "code": "fL"
        },
        "referenceRange": [
          {
            "low": {
              "value": 82,
              "code": "fL",
              "system": "http://unitsofmeasure.org"
            }
          },
          {
            "high": {
              "value": 98,
              "code": "fL",
              "system": "http://unitsofmeasure.org"
            }
          }
        ],
        "text": {
          "status": "generated",
          "div": "<div xmlns=\"http://www.w3.org/1999/xhtml\"><table class=\"hl7__eu__lab__report\"><tr><th>Test</th><th>23-Jun-2016</th><th>Reference&#xA0;Range</th><th>Unit</th></tr><tr><td>MCV [Entitic volume] by Automated count</td><td>93.0</td><td>82 - 98</td><td></td><td>fL</td></tr></table></div>"
        },
        "status": "final",
        "subject": {
          "reference": "urn:uuid:4f67a13d-ad07-4135-9bdc-20c1696df634",
          "display": "Molly Jenkins"
        },
        "effectiveDateTime": "2016-06-23T14:42:11Z",
        "specimen": {
          "reference": "urn:uuid:cf60039d-cb6f-48d2-881d-e9a3cea61733"
        }
      }
    },
    {
      "fullUrl": "urn:uuid:413bc9dd-14b3-45c6-8789-281c1263f105",
      "resource": {
        "resourceType": "Observation",
        "id": "413bc9dd-14b3-45c6-8789-281c1263f105",
        "meta": {
          "profile": [
            "http://hl7.eu/fhir/laboratory/StructureDefinition/Observation-resultslab-eu-lab"
          ]
        },
        "performer": [
          {
            "display": "The Central European Lab"
          }
        ],
        "category": [
          {
            "coding": [
              {
                "system": "http://terminology.hl7.org/CodeSystem/observation-category",
                "code": "laboratory"
              }
            ]
          }
        ],
        "code": {
          "coding": [
            {
              "code": "785-6",
              "system": "http://loinc.org",
              "display": "MCH [Entitic mass] by Automated count"
            }
          ],
          "text": "MCH [Entitic mass] by Automated count"
        },
        "valueQuantity": {
          "system": "http://unitsofmeasure.org",
          "value": 31.4,
          "unit": "pg",
          "code": "pg"
        },
        "referenceRange": [
          {
            "low": {
              "value": 27,
              "code": "pg",
              "system": "http://unitsofmeasure.org"
            }
          },
          {
            "high": {
              "value": 34.5,
              "code": "pg",
              "system": "http://unitsofmeasure.org"
            }
          }
        ],
        "text": {
          "status": "generated",
          "div": "<div xmlns=\"http://www.w3.org/1999/xhtml\"><table class=\"hl7__eu__lab__report\"><tr><th>Test</th><th>23-Jun-2016</th><th>Reference&#xA0;Range</th><th>Unit</th></tr><tr><td>MCH [Entitic mass] by Automated count</td><td>31.4</td><td>27 - 34.5</td><td></td><td>pg</td></tr></table></div>"
        },
        "status": "final",
        "subject": {
          "reference": "urn:uuid:4f67a13d-ad07-4135-9bdc-20c1696df634",
          "display": "Molly Jenkins"
        },
        "effectiveDateTime": "2016-06-23T14:42:11Z",
        "specimen": {
          "reference": "urn:uuid:cf60039d-cb6f-48d2-881d-e9a3cea61733"
        }
      }
    },
    {
      "fullUrl": "urn:uuid:7cde9601-263a-4d0e-9bdd-43710d6a618c",
      "resource": {
        "resourceType": "Observation",
        "id": "7cde9601-263a-4d0e-9bdd-43710d6a618c",
        "meta": {
          "profile": [
            "http://hl7.eu/fhir/laboratory/StructureDefinition/Observation-resultslab-eu-lab"
          ]
        },
        "performer": [
          {
            "display": "The Central European Lab"
          }
        ],
        "category": [
          {
            "coding": [
              {
                "system": "http://terminology.hl7.org/CodeSystem/observation-category",
                "code": "laboratory"
              }
            ]
          }
        ],
        "code": {
          "coding": [
            {
              "code": "786-4",
              "system": "http://loinc.org",
              "display": "MCHC [Mass/volume] by Automated count"
            }
          ],
          "text": "MCHC [Mass/volume] by Automated count"
        },
        "valueQuantity": {
          "system": "http://unitsofmeasure.org",
          "value": 35.5,
          "unit": "g/dL",
          "code": "g/dL"
        },
        "referenceRange": [
          {
            "low": {
              "value": 32,
              "code": "g/dL",
              "system": "http://unitsofmeasure.org"
            }
          },
          {
            "high": {
              "value": 37,
              "code": "g/dL",
              "system": "http://unitsofmeasure.org"
            }
          }
        ],
        "text": {
          "status": "generated",
          "div": "<div xmlns=\"http://www.w3.org/1999/xhtml\"><table class=\"hl7__eu__lab__report\"><tr><th>Test</th><th>23-Jun-2016</th><th>Reference&#xA0;Range</th><th>Unit</th></tr><tr><td>MCHC [Mass/volume] by Automated count</td><td>35.5</td><td>32 - 37</td><td></td><td>g/dL</td></tr></table></div>"
        },
        "status": "final",
        "subject": {
          "reference": "urn:uuid:4f67a13d-ad07-4135-9bdc-20c1696df634",
          "display": "Molly Jenkins"
        },
        "effectiveDateTime": "2016-06-23T14:42:11Z",
        "specimen": {
          "reference": "urn:uuid:cf60039d-cb6f-48d2-881d-e9a3cea61733"
        }
      }
    },
    {
      "fullUrl": "urn:uuid:18766ffa-683b-4049-a12a-875345d5e383",
      "resource": {
        "resourceType": "Observation",
        "id": "18766ffa-683b-4049-a12a-875345d5e383",
        "meta": {
          "profile": [
            "http://hl7.eu/fhir/laboratory/StructureDefinition/Observation-resultslab-eu-lab"
          ]
        },
        "performer": [
          {
            "display": "The Central European Lab"
          }
        ],
        "category": [
          {
            "coding": [
              {
                "system": "http://terminology.hl7.org/CodeSystem/observation-category",
                "code": "laboratory"
              }
            ]
          }
        ],
        "code": {
          "coding": [
            {
              "code": "21000-5",
              "system": "http://loinc.org",
              "display": "Erythrocyte distribution width [Entitic volume] by Automated count"
            }
          ],
          "text": "Erythrocyte distribution width [Entitic volume] by Automated count"
        },
        "valueQuantity": {
          "system": "http://unitsofmeasure.org",
          "value": 44.5,
          "unit": "fL",
          "code": "fL"
        },
        "referenceRange": [
          {
            "low": {
              "value": 36,
              "code": "fL",
              "system": "http://unitsofmeasure.org"
            }
          },
          {
            "high": {
              "value": 55,
              "code": "fL",
              "system": "http://unitsofmeasure.org"
            }
          }
        ],
        "text": {
          "status": "generated",
          "div": "<div xmlns=\"http://www.w3.org/1999/xhtml\"><table class=\"hl7__eu__lab__report\"><tr><th>Test</th><th>23-Jun-2016</th><th>Reference&#xA0;Range</th><th>Unit</th></tr><tr><td>Erythrocyte distribution width [Entitic volume] by Automated count</td><td>44.5</td><td>36 - 55</td><td></td><td>fL</td></tr></table></div>"
        },
        "status": "final",
        "subject": {
          "reference": "urn:uuid:4f67a13d-ad07-4135-9bdc-20c1696df634",
          "display": "Molly Jenkins"
        },
        "effectiveDateTime": "2016-06-23T14:42:11Z",
        "specimen": {
          "reference": "urn:uuid:cf60039d-cb6f-48d2-881d-e9a3cea61733"
        }
      }
    },
    {
      "fullUrl": "urn:uuid:1758079c-5685-479a-adcb-488578858174",
      "resource": {
        "resourceType": "Observation",
        "id": "1758079c-5685-479a-adcb-488578858174",
        "meta": {
          "profile": [
            "http://hl7.eu/fhir/laboratory/StructureDefinition/Observation-resultslab-eu-lab"
          ]
        },
        "performer": [
          {
            "display": "The Central European Lab"
          }
        ],
        "category": [
          {
            "coding": [
              {
                "system": "http://terminology.hl7.org/CodeSystem/observation-category",
                "code": "laboratory"
              }
            ]
          }
        ],
        "code": {
          "coding": [
            {
              "code": "777-3",
              "system": "http://loinc.org",
              "display": "Platelets [#/volume] in Blood by Automated count"
            }
          ],
          "text": "Platelets [#/volume] in Blood by Automated count"
        },
        "valueQuantity": {
          "system": "http://unitsofmeasure.org",
          "value": 215.2,
          "unit": "10*3/uL",
          "code": "10*3/uL"
        },
        "referenceRange": [
          {
            "low": {
              "value": 150,
              "code": "10*3/uL",
              "system": "http://unitsofmeasure.org"
            }
          },
          {
            "high": {
              "value": 400,
              "code": "10*3/uL",
              "system": "http://unitsofmeasure.org"
            }
          }
        ],
        "text": {
          "status": "generated",
          "div": "<div xmlns=\"http://www.w3.org/1999/xhtml\"><table class=\"hl7__eu__lab__report\"><tr><th>Test</th><th>23-Jun-2016</th><th>Reference&#xA0;Range</th><th>Unit</th></tr><tr><td>Platelets [#/volume] in Blood by Automated count</td><td>215.2</td><td>150 - 400</td><td></td><td>10*3/uL</td></tr></table></div>"
        },
        "status": "final",
        "subject": {
          "reference": "urn:uuid:4f67a13d-ad07-4135-9bdc-20c1696df634",
          "display": "Molly Jenkins"
        },
        "effectiveDateTime": "2016-06-23T14:42:11Z",
        "specimen": {
          "reference": "urn:uuid:cf60039d-cb6f-48d2-881d-e9a3cea61733"
        }
      }
    },
    {
      "fullUrl": "urn:uuid:7ce8bae4-2057-4317-90a2-50955833b3d9",
      "resource": {
        "resourceType": "Observation",
        "id": "7ce8bae4-2057-4317-90a2-50955833b3d9",
        "meta": {
          "profile": [
            "http://hl7.eu/fhir/laboratory/StructureDefinition/Observation-resultslab-eu-lab"
          ]
        },
        "performer": [
          {
            "display": "The Central European Lab"
          }
        ],
        "category": [
          {
            "coding": [
              {
                "system": "http://terminology.hl7.org/CodeSystem/observation-category",
                "code": "laboratory"
              }
            ]
          }
        ],
        "code": {
          "coding": [
            {
              "code": "32207-3",
              "system": "http://loinc.org",
              "display": "Platelet distribution width [Entitic volume] in Blood by Automated count"
            }
          ],
          "text": "Platelet distribution width [Entitic volume] in Blood by Automated count"
        },
        "valueQuantity": {
          "system": "http://unitsofmeasure.org",
          "value": 233.6,
          "unit": "fL",
          "code": "fL"
        },
        "referenceRange": [
          {
            "low": {
              "value": 11.6,
              "code": "fL",
              "system": "http://unitsofmeasure.org"
            }
          },
          {
            "high": {
              "value": 17.4,
              "code": "fL",
              "system": "http://unitsofmeasure.org"
            }
          }
        ],
        "interpretation": [
          {
            "coding": [
              {
                "code": "H",
                "system": "http://terminology.hl7.org/CodeSystem/v3-ObservationInterpretation",
                "display": "High"
              }
            ]
          }
        ],
        "text": {
          "status": "generated",
          "div": "<div xmlns=\"http://www.w3.org/1999/xhtml\"><table class=\"hl7__eu__lab__report\"><tr><th>Test</th><th>23-Jun-2016</th><th>Reference&#xA0;Range</th><th>Unit</th></tr><tr><td>Platelet distribution width [Entitic volume] in Blood by Automated count</td><td>233.6</td><td>11.6 - 17.4</td><td>H</td><td>fL</td></tr></table></div>"
        },
        "status": "final",
        "subject": {
          "reference": "urn:uuid:4f67a13d-ad07-4135-9bdc-20c1696df634",
          "display": "Molly Jenkins"
        },
        "effectiveDateTime": "2016-06-23T14:42:11Z",
        "specimen": {
          "reference": "urn:uuid:cf60039d-cb6f-48d2-881d-e9a3cea61733"
        }
      }
    },
    {
      "fullUrl": "urn:uuid:62f0a938-42dc-4204-89ac-398df6b32820",
      "resource": {
        "resourceType": "Observation",
        "id": "62f0a938-42dc-4204-89ac-398df6b32820",
        "meta": {
          "profile": [
            "http://hl7.eu/fhir/laboratory/StructureDefinition/Observation-resultslab-eu-lab"
          ]
        },
        "performer": [
          {
            "display": "The Central European Lab"
          }
        ],
        "category": [
          {
            "coding": [
              {
                "system": "http://terminology.hl7.org/CodeSystem/observation-category",
                "code": "laboratory"
              }
            ]
          }
        ],
        "code": {
          "coding": [
            {
              "code": "32623-1",
              "system": "http://loinc.org",
              "display": "Platelet mean volume [Entitic volume] in Blood by Automated count"
            }
          ],
          "text": "Platelet mean volume [Entitic volume] in Blood by Automated count"
        },
        "valueQuantity": {
          "system": "http://unitsofmeasure.org",
          "value": 11.9,
          "unit": "fL",
          "code": "fL"
        },
        "referenceRange": [
          {
            "low": {
              "value": 7.2,
              "code": "fL",
              "system": "http://unitsofmeasure.org"
            }
          },
          {
            "high": {
              "value": 13.5,
              "code": "fL",
              "system": "http://unitsofmeasure.org"
            }
          }
        ],
        "text": {
          "status": "generated",
          "div": "<div xmlns=\"http://www.w3.org/1999/xhtml\"><table class=\"hl7__eu__lab__report\"><tr><th>Test</th><th>23-Jun-2016</th><th>Reference&#xA0;Range</th><th>Unit</th></tr><tr><td>Platelet mean volume [Entitic volume] in Blood by Automated count</td><td>11.9</td><td>7.2 - 13.5</td><td></td><td>fL</td></tr></table></div>"
        },
        "status": "final",
        "subject": {
          "reference": "urn:uuid:4f67a13d-ad07-4135-9bdc-20c1696df634",
          "display": "Molly Jenkins"
        },
        "effectiveDateTime": "2016-06-23T14:42:11Z",
        "specimen": {
          "reference": "urn:uuid:cf60039d-cb6f-48d2-881d-e9a3cea61733"
        }
      }
    },
    {
      "fullUrl": "urn:uuid:6e65e69c-df57-4e8e-a86d-5531585a1b52",
      "resource": {
        "resourceType": "Device",
        "id": "6e65e69c-df57-4e8e-a86d-5531585a1b52",
        "deviceName": [
          {
            "name": "SYNDERAI Synthetic Generator",
            "type": "manufacturer-name"
          }
        ],
        "version": [
          {
            "value": "5.0"
          }
        ],
        "text": {
          "status": "generated",
          "div": "<div xmlns=\"http://www.w3.org/1999/xhtml\">SYNDERAI Synthetic Generator v5.0</div>"
        },
        "status": "active\"",
        "distinctIdentifier": "synderai-generator-50",
        "manufacturer": "SYNDERAI Project"
      }
    },
    {
      "fullUrl": "urn:uuid:eeecb0bb-2ecd-4e97-a4ca-76b548e74e20",
      "resource": {
        "resourceType": "Provenance",
        "id": "eeecb0bb-2ecd-4e97-a4ca-76b548e74e20",
        "target": [
          {
            "reference": "Patient/4f67a13d-ad07-4135-9bdc-20c1696df634"
          },
          {
            "reference": "Bundle/e8a5e255-b1ad-4a5e-98c5-317be8c2fdba"
          },
          {
            "reference": "Composition/9be903f7-93d7-413b-addc-fa6f384e0404"
          },
          {
            "reference": "PractitionerRole/fda8e69e-7899-4627-8cc1-be65e2cf29f4"
          },
          {
            "reference": "Practitioner/ba69b708-3773-459d-adab-b99b1cbbfd24"
          },
          {
            "reference": "PractitionerRole/865e5dfd-e5e7-4771-b60c-c1fd5b99ebe2"
          },
          {
            "reference": "Organization/a82af382-3111-4c92-a0bb-91ae4a0ccc1e"
          }
        ],
        "activity": {
          "text": "Synthetic Example Data Generation"
        },
        "policy": [
          "https://synderai.net/synderai-synthetic-data-policy"
        ],
        "agent": [
          {
            "type": {
              "text": "author"
            },
            "who": {
              "reference": "Device/6e65e69c-df57-4e8e-a86d-5531585a1b52"
            }
          }
        ],
        "reason": [
          {
            "text": "Interoperability Testing and Training (non-clinical use)"
          }
        ],
        "text": {
          "status": "generated",
          "div": "<div xmlns=\"http://www.w3.org/1999/xhtml\">Provenance for SYNDERAI Synthetic Example Data Resource</div>"
        },
        "recorded": "2016-06-23T16:42:11Z"
      }
    },
    {
      "fullUrl": "urn:uuid:fda8e69e-7899-4627-8cc1-be65e2cf29f4",
      "resource": {
        "resourceType": "PractitionerRole",
        "id": "fda8e69e-7899-4627-8cc1-be65e2cf29f4",
        "meta": {
          "profile": [
            "http://hl7.eu/fhir/base/StructureDefinition/practitionerRole-eu"
          ]
        },
        "text": {
          "status": "generated",
          "div": "<div xmlns=\"http://www.w3.org/1999/xhtml\">Laboratory Role Id: fda8e69e-7899-4627-8cc1-be65e2cf29f4</div>"
        },
        "practitioner": {
          "reference": "urn:uuid:ba69b708-3773-459d-adab-b99b1cbbfd24"
        }
      }
    },
    {
      "fullUrl": "urn:uuid:ba69b708-3773-459d-adab-b99b1cbbfd24",
      "resource": {
        "resourceType": "Practitioner",
        "id": "ba69b708-3773-459d-adab-b99b1cbbfd24",
        "meta": {
          "profile": [
            "http://hl7.eu/fhir/base/StructureDefinition/practitioner-eu"
          ]
        },
        "identifier": [
          {
            "assigner": {
              "display": "HL7 Europe"
            },
            "system": "urn:oid:2.16.840.1.113883.2.51.999",
            "value": "f8edb0d5-910e-4e81-b1fd-4ce3b31cf25e"
          }
        ],
        "name": [
          {
            "prefix": [
              "dr"
            ],
            "given": [
              "Ex"
            ],
            "family": "Ample"
          }
        ],
        "address": [
          {
            "line": [
              "Laboratoire Central Européenne",
              "Boulevard du Jardin Botanique 32"
            ],
            "postalCode": "1000",
            "city": "Brussels",
            "country": "Belgium"
          }
        ],
        "text": {
          "status": "generated",
          "div": "<div xmlns=\"http://www.w3.org/1999/xhtml\">Laboratory: Laboratoire Central Européenne, 1000 Brussels, Belgium</div>"
        }
      }
    }
  ],
  "type": "document",
  "timestamp": "2016-06-23T16:42:11Z"
}
