{
  "resourceType": "Bundle",
  "id": "cbb77ec7-6a99-4b2b-8ebe-04b54232f80e",
  "meta": {
    "profile": [
      "http://hl7.eu/fhir/laboratory/StructureDefinition/Bundle-eu-lab"
    ]
  },
  "identifier": {
    "assigner": {
      "display": "HL7 Europe"
    },
    "system": "urn:oid:2.16.840.1.113883.2.51.999",
    "value": "7231cafc-56d4-43dd-b40d-dd66d098c370"
  },
  "entry": [
    {
      "fullUrl": "urn:uuid:a081acb2-cbc3-4838-8b6a-c36350aa5e4b",
      "resource": {
        "resourceType": "Composition",
        "id": "a081acb2-cbc3-4838-8b6a-c36350aa5e4b",
        "meta": {
          "profile": [
            "http://hl7.eu/fhir/laboratory/StructureDefinition/Composition-eu-lab"
          ]
        },
        "identifier": {
          "assigner": {
            "display": "HL7 Europe"
          },
          "system": "urn:oid:2.16.840.1.113883.2.51.999",
          "value": "6be06fc2-9e97-423d-8cff-bb835e19e45b"
        },
        "author": [
          {
            "reference": "urn:uuid:89c0f240-b4d0-4e9b-b6d0-6cc2601ea85c"
          }
        ],
        "category": [
          {
            "coding": [
              {
                "code": "26436-6",
                "system": "http://loinc.org",
                "display": "Laboratory studies (set)"
              }
            ]
          }
        ],
        "type": {
          "coding": [
            {
              "code": "11502-2",
              "system": "http://loinc.org",
              "display": "Laboratory report"
            }
          ],
          "text": "Laboratory Report"
        },
        "section": [
          {
            "code": {
              "coding": [
                {
                  "code": "26436-6",
                  "system": "http://loinc.org",
                  "display": "Laboratory studies (set)"
                }
              ],
              "text": "Laboratory studies"
            },
            "section": [
              {
                "code": {
                  "coding": [
                    {
                      "code": "$18719-5",
                      "system": "http://loinc.org",
                      "display": "Chemistry studies (set)"
                    }
                  ],
                  "text": "Chemistry"
                },
                "entry": [
                  {
                    "reference": "urn:uuid:0f49b27e-b63f-477e-840e-901b4cd41751"
                  },
                  {
                    "reference": "urn:uuid:651a3df0-2abb-42bb-99f4-8661a8493ebb"
                  },
                  {
                    "reference": "urn:uuid:a8ab9a71-ac10-4615-833f-099cdf4eb89b"
                  },
                  {
                    "reference": "urn:uuid:981a1353-88d2-435b-a5d6-18effaa6c20b"
                  },
                  {
                    "reference": "urn:uuid:f0cc9b9e-7d30-45b3-807e-f90e1a686950"
                  },
                  {
                    "reference": "urn:uuid:9d10e1da-e66e-42a6-8995-3339bd0f695e"
                  },
                  {
                    "reference": "urn:uuid:21a7f891-0faf-4337-870a-eccff38aca66"
                  },
                  {
                    "reference": "urn:uuid:c8c4ff09-6d1c-44ca-98cb-186ceeddb2de"
                  },
                  {
                    "reference": "urn:uuid:cd01afb4-d327-4b44-b33e-2456817b412d"
                  },
                  {
                    "reference": "urn:uuid:4f9e09e3-9750-4868-a526-48b8ca323968"
                  },
                  {
                    "reference": "urn:uuid:ff5b89b0-4db7-4cee-ba82-c5b9e4b4e8b2"
                  },
                  {
                    "reference": "urn:uuid:e9339448-a87e-4cc9-b80b-ca4dc1c678a2"
                  },
                  {
                    "reference": "urn:uuid:10acd819-cc6e-4341-b983-db6b94fcb63c"
                  },
                  {
                    "reference": "urn:uuid:d496eb3c-a327-4c7e-909a-c0fa176fcde4"
                  },
                  {
                    "reference": "urn:uuid:175fd72f-f6e0-45a3-bf99-626e4220bd6a"
                  },
                  {
                    "reference": "urn:uuid:3fcf2182-825f-437c-820e-593e7d936d3f"
                  },
                  {
                    "reference": "urn:uuid:0077070c-f8e1-4fb4-af0c-915ec6a2498c"
                  },
                  {
                    "reference": "urn:uuid:f660260a-cb6b-49f5-80cd-3d82506b262f"
                  },
                  {
                    "reference": "urn:uuid:a8f0a4c2-4744-4c84-8070-6b4fcb377205"
                  }
                ],
                "text": {
                  "status": "generated",
                  "div": "<div xmlns=\"http://www.w3.org/1999/xhtml\"><h3>Chemistry</h3><table class=\"hl7__eu__lab__report\"><thead><tr><th>Test</th><th>14-JAN-2023</th><th>Reference&#xA0;Range</th><th>Unit</th></tr></thead><tbody><tr><td>Glucose [Mass/volume] in Blood</td><td>87.7</td><td>70 - 140</td><td>mg/dL</td></tr><tr><td>Urea nitrogen [Mass/volume] in Blood</td><td>9.5</td><td>7 - 20</td><td>mg/dL</td></tr><tr><td>Creatinine [Mass/volume] in Blood</td><td><strong>2.8 H</strong></td><td>0.9 - 1.3</td><td>mg/dL</td></tr><tr><td>Calcium [Mass/volume] in Blood</td><td>9.0</td><td>8.5 - 10.5</td><td>mg/dL</td></tr><tr><td>Sodium [Moles/volume] in Blood</td><td>139.4</td><td>135 - 145</td><td>mmol/L</td></tr><tr><td>Potassium [Moles/volume] in Blood</td><td>3.7</td><td>3.5 - 5.1</td><td>mmol/L</td></tr><tr><td>Chloride [Moles/volume] in Blood</td><td><strong>108.9 H</strong></td><td>98 - 108</td><td>mmol/L</td></tr><tr><td>Carbon dioxide, total [Moles/volume] in Blood</td><td>24.7</td><td>22 - 29</td><td>mmol/L</td></tr><tr><td>Protein [Mass/volume] in Serum or Plasma</td><td>7.8</td><td>6 - 8.3</td><td>g/dL</td></tr><tr><td>Albumin [Mass/volume] in Serum or Plasma</td><td>3.9</td><td>3.5 - 5.5</td><td>g/dL</td></tr><tr><td>Globulin [Mass/volume] in Serum by calculation</td><td>2.5</td><td>2 - 3.5</td><td>g/L</td></tr><tr><td>Bilirubin.total [Mass/volume] in Serum or Plasma</td><td>0.9</td><td>0.3 - 1.2</td><td>mg/dL</td></tr><tr><td>Alkaline phosphatase [Enzymatic activity/volume] in Serum or Plasma</td><td><strong>28.7 L</strong></td><td>39 - 147</td><td>U/L</td></tr><tr><td>Alanine aminotransferase [Enzymatic activity/volume] in Serum or Plasma</td><td>31.1</td><td>10 - 63</td><td>U/L</td></tr><tr><td>Aspartate aminotransferase [Enzymatic activity/volume] in Serum or Plasma</td><td>33.4</td><td>10 - 40</td><td>U/L</td></tr><tr><td>Cholesterol [Mass/volume] in Serum or Plasma</td><td>157.7</td><td>0 - 200</td><td>mg/dL</td></tr><tr><td>Triglyceride [Mass/volume] in Serum or Plasma</td><td>124.5</td><td>0 - 199</td><td>mg/dL</td></tr><tr><td>Cholesterol in LDL [Mass/volume] in Serum or Plasma by Direct assay</td><td><strong>143.6 H</strong></td><td>0 - 130</td><td>mg/dL</td></tr><tr><td>Cholesterol in HDL [Mass/volume] in Serum or Plasma</td><td>72.9</td><td>40 - 100</td><td>mg/dL</td></tr></tbody></table></div>"
                },
                "title": "Chemistry"
              }
            ],
            "title": "Laboratory Report"
          },
          {
            "text": {
              "status": "generated",
              "div": "<div xmlns=\"http://www.w3.org/1999/xhtml\"><h3>Annotation</h3><table class=\"hl7__eu__lab__report\"><tr><th>Conclusion and Recommendations based on this report and previous findings known to us</th></tr><tr><td>The patient shows elevated creatinine, suggesting impaired renal function, and mildly elevated chloride. LDL cholesterol is above target, increasing cardiovascular risk. Alkaline phosphatase is slightly low but not clinically significant. Other parameters, including glucose, electrolytes, liver enzymes, and proteins, are within normal limits. Recommend further evaluation of renal function and lipid management.</td></tr></table></div>"
            },
            "code": {
              "coding": [
                {
                  "system": "http://loinc.org",
                  "code": "48767-8",
                  "display": "Annotation comment"
                }
              ]
            },
            "title": "Annotation comment"
          }
        ],
        "status": "final",
        "subject": {
          "reference": "urn:uuid:63c81f07-f444-44c9-aa08-db0d2ba849f2",
          "display": "Victor Lagarde"
        },
        "date": "2023-01-14T05:48:18Z",
        "title": "Laboratory Report",
        "confidentiality": "N"
      }
    },
    {
      "fullUrl": "urn:uuid:e6bbf3ab-d6fe-4acb-b80e-15ddd7c42775",
      "resource": {
        "resourceType": "DiagnosticReport",
        "id": "e6bbf3ab-d6fe-4acb-b80e-15ddd7c42775",
        "meta": {
          "profile": [
            "http://hl7.eu/fhir/laboratory/StructureDefinition/DiagnosticReport-eu-lab"
          ]
        },
        "identifier": [
          {
            "assigner": {
              "display": "HL7 Europe"
            },
            "system": "urn:oid:2.16.840.1.113883.2.51.999",
            "value": "4d556057-3ef5-46b0-b403-d27a848ec988"
          }
        ],
        "extension": [
          {
            "url": "http://hl7.org/fhir/5.0/StructureDefinition/extension-DiagnosticReport.composition",
            "valueReference": {
              "reference": "urn:uuid:6be06fc2-9e97-423d-8cff-bb835e19e45b"
            }
          }
        ],
        "category": [
          {
            "coding": [
              {
                "code": "26436-6",
                "system": "http://loinc.org",
                "display": "Laboratory studies (set)"
              }
            ]
          }
        ],
        "specimen": [
          {
            "reference": "urn:uuid:76e1d7c8-4bc0-4326-af8f-111ece81be7e"
          },
          {
            "reference": "urn:uuid:e57e4db3-69d4-420e-a7ec-7708cd88650e"
          },
          {
            "reference": "urn:uuid:ea6bdcf8-bb3e-476e-9006-1f80fa34e572"
          }
        ],
        "result": [
          {
            "reference": "urn:uuid:0f49b27e-b63f-477e-840e-901b4cd41751"
          },
          {
            "reference": "urn:uuid:651a3df0-2abb-42bb-99f4-8661a8493ebb"
          },
          {
            "reference": "urn:uuid:a8ab9a71-ac10-4615-833f-099cdf4eb89b"
          },
          {
            "reference": "urn:uuid:981a1353-88d2-435b-a5d6-18effaa6c20b"
          },
          {
            "reference": "urn:uuid:f0cc9b9e-7d30-45b3-807e-f90e1a686950"
          },
          {
            "reference": "urn:uuid:9d10e1da-e66e-42a6-8995-3339bd0f695e"
          },
          {
            "reference": "urn:uuid:21a7f891-0faf-4337-870a-eccff38aca66"
          },
          {
            "reference": "urn:uuid:c8c4ff09-6d1c-44ca-98cb-186ceeddb2de"
          },
          {
            "reference": "urn:uuid:cd01afb4-d327-4b44-b33e-2456817b412d"
          },
          {
            "reference": "urn:uuid:4f9e09e3-9750-4868-a526-48b8ca323968"
          },
          {
            "reference": "urn:uuid:ff5b89b0-4db7-4cee-ba82-c5b9e4b4e8b2"
          },
          {
            "reference": "urn:uuid:e9339448-a87e-4cc9-b80b-ca4dc1c678a2"
          },
          {
            "reference": "urn:uuid:10acd819-cc6e-4341-b983-db6b94fcb63c"
          },
          {
            "reference": "urn:uuid:d496eb3c-a327-4c7e-909a-c0fa176fcde4"
          },
          {
            "reference": "urn:uuid:175fd72f-f6e0-45a3-bf99-626e4220bd6a"
          },
          {
            "reference": "urn:uuid:3fcf2182-825f-437c-820e-593e7d936d3f"
          },
          {
            "reference": "urn:uuid:0077070c-f8e1-4fb4-af0c-915ec6a2498c"
          },
          {
            "reference": "urn:uuid:f660260a-cb6b-49f5-80cd-3d82506b262f"
          },
          {
            "reference": "urn:uuid:a8f0a4c2-4744-4c84-8070-6b4fcb377205"
          }
        ],
        "status": "registered",
        "code": {
          "coding": [
            {
              "code": "11502-2",
              "system": "http://loinc.org",
              "display": "Laboratory report"
            }
          ]
        },
        "subject": {
          "reference": "urn:uuid:63c81f07-f444-44c9-aa08-db0d2ba849f2",
          "display": "Victor Lagarde"
        }
      }
    },
    {
      "fullUrl": "urn:uuid:63c81f07-f444-44c9-aa08-db0d2ba849f2",
      "resource": {
        "resourceType": "Patient",
        "id": "63c81f07-f444-44c9-aa08-db0d2ba849f2",
        "meta": {
          "security": [
            {
              "system": "http://terminology.hl7.org/CodeSystem/v3-ActReason",
              "code": "HTEST"
            },
            {
              "system": "http://terminology.hl7.org/CodeSystem/v3-ActReason",
              "code": "TRAIN"
            }
          ],
          "tag": [
            {
              "system": "https://synderai.net/fhir/CodeSystem/tags",
              "code": "synthetic",
              "display": "SYNDERAI Synthetic data"
            }
          ],
          "profile": [
            "http://hl7.eu/fhir/base/StructureDefinition/patient-eu-core"
          ]
        },
        "identifier": [
          {
            "type": {
              "coding": [
                {
                  "code": "PT",
                  "system": "http://terminology.hl7.org/CodeSystem/v2-0203"
                }
              ]
            },
            "system": "http://ec.europa.eu/identifier/eci",
            "value": "9925-001801-9"
          },
          {
            "type": {
              "coding": [
                {
                  "code": "MR",
                  "system": "http://terminology.hl7.org/CodeSystem/v2-0203"
                }
              ]
            },
            "system": "http://local.setting.eu/identifier",
            "value": "22c2dfd0-ac57-8833-2532-848f180896a4"
          }
        ],
        "name": [
          {
            "family": "Lagarde"
          },
          {
            "given": [
              "Victor"
            ]
          },
          {
            "text": "Victor Lagarde"
          }
        ],
        "address": [
          {
            "line": [
              "avenue Robert"
            ],
            "use": "home",
            "type": "physical",
            "postalCode": "80300",
            "city": "Albert",
            "country": "France"
          }
        ],
        "telecom": [
          {
            "system": "phone",
            "value": "0177941801"
          }
        ],
        "extension": [
          {
            "url": "http://hl7.org/fhir/StructureDefinition/patient-nationality",
            "valueCodeableConcept": {
              "coding": [
                {
                  "code": "FR",
                  "system": "http://hl7.org/fhir/ValueSet/country"
                }
              ]
            }
          }
        ],
        "text": {
          "status": "generated",
          "div": "<div xmlns=\"http://www.w3.org/1999/xhtml\"><table class=\"hl7__ips\"><tr><td>Victor Lagarde</td><td>male</td><td>31-Aug-1939</td></tr></table></div>"
        },
        "gender": "male",
        "birthDate": "1939-08-31"
      }
    },
    {
      "fullUrl": "urn:uuid:04cf49ea-7e6a-4caf-8fc5-43548f6c9ecc",
      "resource": {
        "resourceType": "ServiceRequest",
        "id": "04cf49ea-7e6a-4caf-8fc5-43548f6c9ecc",
        "meta": {
          "profile": [
            "http://hl7.eu/fhir/laboratory/StructureDefinition/ServiceRequest-eu-lab"
          ]
        },
        "identifier": [
          {
            "system": "http://example.org",
            "value": "fed05b5d-69eb-43d6-9b52-0e21664425c0"
          }
        ],
        "specimen": [
          {
            "reference": "urn:uuid:76e1d7c8-4bc0-4326-af8f-111ece81be7e"
          },
          {
            "reference": "urn:uuid:e57e4db3-69d4-420e-a7ec-7708cd88650e"
          },
          {
            "reference": "urn:uuid:ea6bdcf8-bb3e-476e-9006-1f80fa34e572"
          }
        ],
        "reasonCode": [
          {
            "coding": [
              {
                "code": "433144002",
                "system": "http://snomed.info/sct",
                "display": "Chronic kidney disease stage 3"
              }
            ]
          },
          {
            "coding": [
              {
                "code": "157141000119108",
                "system": "http://snomed.info/sct",
                "display": "Proteinuria due to type 2 diabetes mellitus"
              }
            ]
          },
          {
            "coding": [
              {
                "code": "431856006",
                "system": "http://snomed.info/sct",
                "display": "Chronic kidney disease stage 2"
              }
            ]
          },
          {
            "coding": [
              {
                "code": "90781000119102",
                "system": "http://snomed.info/sct",
                "display": "Microalbuminuria due to type 2 diabetes mellitus"
              }
            ]
          },
          {
            "coding": [
              {
                "code": "127013003",
                "system": "http://snomed.info/sct",
                "display": "Disorder of kidney due to diabetes mellitus"
              }
            ]
          },
          {
            "coding": [
              {
                "code": "431855005",
                "system": "http://snomed.info/sct",
                "display": "Chronic kidney disease stage 1"
              }
            ]
          },
          {
            "coding": [
              {
                "code": "55822004",
                "system": "http://snomed.info/sct",
                "display": "Hyperlipidemia"
              }
            ]
          },
          {
            "coding": [
              {
                "code": "59621000",
                "system": "http://snomed.info/sct",
                "display": "Essential hypertension"
              }
            ]
          },
          {
            "coding": [
              {
                "code": "237602007",
                "system": "http://snomed.info/sct",
                "display": "Metabolic syndrome X"
              }
            ]
          },
          {
            "coding": [
              {
                "code": "414545008",
                "system": "http://snomed.info/sct",
                "display": "Ischemic heart disease"
              }
            ]
          },
          {
            "coding": [
              {
                "code": "40055000",
                "system": "http://snomed.info/sct",
                "display": "Chronic sinusitis"
              }
            ]
          },
          {
            "coding": [
              {
                "code": "15777000",
                "system": "http://snomed.info/sct",
                "display": "Prediabetes"
              }
            ]
          },
          {
            "coding": [
              {
                "code": "271737000",
                "system": "http://snomed.info/sct",
                "display": "Anemia"
              }
            ]
          }
        ],
        "status": "active",
        "intent": "order",
        "code": {
          "coding": [
            {
              "code": "108252007",
              "system": "http://snomed.info/sct",
              "display": "Laboratory procedure"
            }
          ]
        },
        "subject": {
          "reference": "urn:uuid:63c81f07-f444-44c9-aa08-db0d2ba849f2",
          "display": "Victor Lagarde"
        },
        "requester": {
          "reference": "urn:uuid:dd3d1a51-cc91-42ba-bed7-390d3d2cb7f2"
        }
      }
    },
    {
      "fullUrl": "urn:uuid:dd3d1a51-cc91-42ba-bed7-390d3d2cb7f2",
      "resource": {
        "resourceType": "PractitionerRole",
        "id": "dd3d1a51-cc91-42ba-bed7-390d3d2cb7f2",
        "meta": {
          "profile": [
            "http://hl7.eu/fhir/base/StructureDefinition/practitionerRole-eu"
          ]
        },
        "text": {
          "status": "generated",
          "div": "<div xmlns=\"http://www.w3.org/1999/xhtml\">Provider Role Id: dd3d1a51-cc91-42ba-bed7-390d3d2cb7f2</div>"
        },
        "organization": {
          "reference": "urn:uuid:b0d96989-ef7b-4eea-a1a8-ebca4faecf3f"
        }
      }
    },
    {
      "fullUrl": "urn:uuid:b0d96989-ef7b-4eea-a1a8-ebca4faecf3f",
      "resource": {
        "resourceType": "Organization",
        "id": "b0d96989-ef7b-4eea-a1a8-ebca4faecf3f",
        "meta": {
          "profile": [
            "http://hl7.eu/fhir/base/StructureDefinition/organization-eu"
          ]
        },
        "identifier": [
          {
            "assigner": {
              "display": "HL7 Europe"
            },
            "system": "urn:oid:2.16.840.1.113883.2.51.999",
            "value": "aa0e0b92-da0d-4f1a-9bd6-9574bd8e50f8"
          }
        ],
        "address": [
          {
            "city": "Auxerre",
            "postalCode": "89000",
            "country": "France"
          }
        ],
        "text": {
          "status": "generated",
          "div": "<div xmlns=\"http://www.w3.org/1999/xhtml\">Provider Organization: Thiriot Didier (Cardiologie)</div>"
        },
        "name": "Thiriot Didier (Cardiologie)"
      }
    },
    {
      "fullUrl": "urn:uuid:76e1d7c8-4bc0-4326-af8f-111ece81be7e",
      "resource": {
        "resourceType": "Specimen",
        "id": "76e1d7c8-4bc0-4326-af8f-111ece81be7e",
        "meta": {
          "profile": [
            "http://hl7.eu/fhir/laboratory/StructureDefinition/Specimen-eu-lab"
          ]
        },
        "collection": {
          "collectedDateTime": "2023-01-14"
        },
        "text": {
          "status": "generated",
          "div": "<div xmlns=\"http://www.w3.org/1999/xhtml\"><table class=\"hl7__eu__lab__report\"><tr><th>Specimen</th><th>Collection Date</th></tr><tr><td>Whole blood specimen (specimen)</td><td><span class=\"nb\">14-Jan-2023</span></td></tr></table></div>"
        },
        "type": {
          "coding": [
            {
              "code": "258580003",
              "system": "http://snomed.info/sct",
              "display": "Whole blood specimen (specimen)"
            }
          ]
        }
      }
    },
    {
      "fullUrl": "urn:uuid:e57e4db3-69d4-420e-a7ec-7708cd88650e",
      "resource": {
        "resourceType": "Specimen",
        "id": "e57e4db3-69d4-420e-a7ec-7708cd88650e",
        "meta": {
          "profile": [
            "http://hl7.eu/fhir/laboratory/StructureDefinition/Specimen-eu-lab"
          ]
        },
        "collection": {
          "collectedDateTime": "2023-01-14"
        },
        "text": {
          "status": "generated",
          "div": "<div xmlns=\"http://www.w3.org/1999/xhtml\"><table class=\"hl7__eu__lab__report\"><tr><th>Specimen</th><th>Collection Date</th></tr><tr><td>Acellular blood (serum or plasma) specimen</td><td><span class=\"nb\">14-Jan-2023</span></td></tr></table></div>"
        },
        "type": {
          "coding": [
            {
              "code": "122592007",
              "system": "http://snomed.info/sct",
              "display": "Acellular blood (serum or plasma) specimen"
            }
          ]
        }
      }
    },
    {
      "fullUrl": "urn:uuid:ea6bdcf8-bb3e-476e-9006-1f80fa34e572",
      "resource": {
        "resourceType": "Specimen",
        "id": "ea6bdcf8-bb3e-476e-9006-1f80fa34e572",
        "meta": {
          "profile": [
            "http://hl7.eu/fhir/laboratory/StructureDefinition/Specimen-eu-lab"
          ]
        },
        "collection": {
          "collectedDateTime": "2023-01-14"
        },
        "text": {
          "status": "generated",
          "div": "<div xmlns=\"http://www.w3.org/1999/xhtml\"><table class=\"hl7__eu__lab__report\"><tr><th>Specimen</th><th>Collection Date</th></tr><tr><td>Serum specimen</td><td><span class=\"nb\">14-Jan-2023</span></td></tr></table></div>"
        },
        "type": {
          "coding": [
            {
              "code": "119364003",
              "system": "http://snomed.info/sct",
              "display": "Serum specimen"
            }
          ]
        }
      }
    },
    {
      "fullUrl": "urn:uuid:0f49b27e-b63f-477e-840e-901b4cd41751",
      "resource": {
        "resourceType": "Observation",
        "id": "0f49b27e-b63f-477e-840e-901b4cd41751",
        "meta": {
          "profile": [
            "http://hl7.eu/fhir/laboratory/StructureDefinition/Observation-resultslab-eu-lab"
          ]
        },
        "performer": [
          {
            "display": "The Central European Lab"
          }
        ],
        "category": [
          {
            "coding": [
              {
                "system": "http://terminology.hl7.org/CodeSystem/observation-category",
                "code": "laboratory"
              }
            ]
          }
        ],
        "code": {
          "coding": [
            {
              "code": "2339-0",
              "system": "http://loinc.org",
              "display": "Glucose [Mass/volume] in Blood"
            }
          ],
          "text": "Glucose [Mass/volume] in Blood"
        },
        "valueQuantity": {
          "system": "http://unitsofmeasure.org",
          "value": 87.7,
          "unit": "mg/dL",
          "code": "mg/dL"
        },
        "referenceRange": [
          {
            "low": {
              "value": 70,
              "code": "mg/dL",
              "system": "http://unitsofmeasure.org"
            }
          },
          {
            "high": {
              "value": 140,
              "code": "mg/dL",
              "system": "http://unitsofmeasure.org"
            }
          }
        ],
        "text": {
          "status": "generated",
          "div": "<div xmlns=\"http://www.w3.org/1999/xhtml\"><table class=\"hl7__eu__lab__report\"><tr><th>Test</th><th>14-Jan-2023</th><th>Reference&#xA0;Range</th><th>Unit</th></tr><tr><td>Glucose [Mass/volume] in Blood</td><td>87.7</td><td>70 - 140</td><td></td><td>mg/dL</td></tr></table></div>"
        },
        "status": "final",
        "subject": {
          "reference": "urn:uuid:63c81f07-f444-44c9-aa08-db0d2ba849f2",
          "display": "Victor Lagarde"
        },
        "effectiveDateTime": "2023-01-14T04:48:18Z",
        "specimen": {
          "reference": "urn:uuid:76e1d7c8-4bc0-4326-af8f-111ece81be7e"
        }
      }
    },
    {
      "fullUrl": "urn:uuid:651a3df0-2abb-42bb-99f4-8661a8493ebb",
      "resource": {
        "resourceType": "Observation",
        "id": "651a3df0-2abb-42bb-99f4-8661a8493ebb",
        "meta": {
          "profile": [
            "http://hl7.eu/fhir/laboratory/StructureDefinition/Observation-resultslab-eu-lab"
          ]
        },
        "performer": [
          {
            "display": "The Central European Lab"
          }
        ],
        "category": [
          {
            "coding": [
              {
                "system": "http://terminology.hl7.org/CodeSystem/observation-category",
                "code": "laboratory"
              }
            ]
          }
        ],
        "code": {
          "coding": [
            {
              "code": "6299-2",
              "system": "http://loinc.org",
              "display": "Urea nitrogen [Mass/volume] in Blood"
            }
          ],
          "text": "Urea nitrogen [Mass/volume] in Blood"
        },
        "valueQuantity": {
          "system": "http://unitsofmeasure.org",
          "value": 9.5,
          "unit": "mg/dL",
          "code": "mg/dL"
        },
        "referenceRange": [
          {
            "low": {
              "value": 7,
              "code": "mg/dL",
              "system": "http://unitsofmeasure.org"
            }
          },
          {
            "high": {
              "value": 20,
              "code": "mg/dL",
              "system": "http://unitsofmeasure.org"
            }
          }
        ],
        "text": {
          "status": "generated",
          "div": "<div xmlns=\"http://www.w3.org/1999/xhtml\"><table class=\"hl7__eu__lab__report\"><tr><th>Test</th><th>14-Jan-2023</th><th>Reference&#xA0;Range</th><th>Unit</th></tr><tr><td>Urea nitrogen [Mass/volume] in Blood</td><td>9.5</td><td>7 - 20</td><td></td><td>mg/dL</td></tr></table></div>"
        },
        "status": "final",
        "subject": {
          "reference": "urn:uuid:63c81f07-f444-44c9-aa08-db0d2ba849f2",
          "display": "Victor Lagarde"
        },
        "effectiveDateTime": "2023-01-14T04:48:18Z",
        "specimen": {
          "reference": "urn:uuid:76e1d7c8-4bc0-4326-af8f-111ece81be7e"
        }
      }
    },
    {
      "fullUrl": "urn:uuid:a8ab9a71-ac10-4615-833f-099cdf4eb89b",
      "resource": {
        "resourceType": "Observation",
        "id": "a8ab9a71-ac10-4615-833f-099cdf4eb89b",
        "meta": {
          "profile": [
            "http://hl7.eu/fhir/laboratory/StructureDefinition/Observation-resultslab-eu-lab"
          ]
        },
        "performer": [
          {
            "display": "The Central European Lab"
          }
        ],
        "category": [
          {
            "coding": [
              {
                "system": "http://terminology.hl7.org/CodeSystem/observation-category",
                "code": "laboratory"
              }
            ]
          }
        ],
        "code": {
          "coding": [
            {
              "code": "38483-4",
              "system": "http://loinc.org",
              "display": "Creatinine [Mass/volume] in Blood"
            }
          ],
          "text": "Creatinine [Mass/volume] in Blood"
        },
        "valueQuantity": {
          "system": "http://unitsofmeasure.org",
          "value": 2.8,
          "unit": "mg/dL",
          "code": "mg/dL"
        },
        "referenceRange": [
          {
            "low": {
              "value": 0.9,
              "code": "mg/dL",
              "system": "http://unitsofmeasure.org"
            }
          },
          {
            "high": {
              "value": 1.3,
              "code": "mg/dL",
              "system": "http://unitsofmeasure.org"
            }
          }
        ],
        "interpretation": [
          {
            "coding": [
              {
                "code": "H",
                "system": "http://terminology.hl7.org/CodeSystem/v3-ObservationInterpretation",
                "display": "High"
              }
            ]
          }
        ],
        "text": {
          "status": "generated",
          "div": "<div xmlns=\"http://www.w3.org/1999/xhtml\"><table class=\"hl7__eu__lab__report\"><tr><th>Test</th><th>14-Jan-2023</th><th>Reference&#xA0;Range</th><th>Unit</th></tr><tr><td>Creatinine [Mass/volume] in Blood</td><td>2.8</td><td>0.9 - 1.3</td><td>H</td><td>mg/dL</td></tr></table></div>"
        },
        "status": "final",
        "subject": {
          "reference": "urn:uuid:63c81f07-f444-44c9-aa08-db0d2ba849f2",
          "display": "Victor Lagarde"
        },
        "effectiveDateTime": "2023-01-14T04:48:18Z",
        "specimen": {
          "reference": "urn:uuid:76e1d7c8-4bc0-4326-af8f-111ece81be7e"
        }
      }
    },
    {
      "fullUrl": "urn:uuid:981a1353-88d2-435b-a5d6-18effaa6c20b",
      "resource": {
        "resourceType": "Observation",
        "id": "981a1353-88d2-435b-a5d6-18effaa6c20b",
        "meta": {
          "profile": [
            "http://hl7.eu/fhir/laboratory/StructureDefinition/Observation-resultslab-eu-lab"
          ]
        },
        "performer": [
          {
            "display": "The Central European Lab"
          }
        ],
        "category": [
          {
            "coding": [
              {
                "system": "http://terminology.hl7.org/CodeSystem/observation-category",
                "code": "laboratory"
              }
            ]
          }
        ],
        "code": {
          "coding": [
            {
              "code": "49765-1",
              "system": "http://loinc.org",
              "display": "Calcium [Mass/volume] in Blood"
            }
          ],
          "text": "Calcium [Mass/volume] in Blood"
        },
        "valueQuantity": {
          "system": "http://unitsofmeasure.org",
          "value": 9,
          "unit": "mg/dL",
          "code": "mg/dL"
        },
        "referenceRange": [
          {
            "low": {
              "value": 8.5,
              "code": "mg/dL",
              "system": "http://unitsofmeasure.org"
            }
          },
          {
            "high": {
              "value": 10.5,
              "code": "mg/dL",
              "system": "http://unitsofmeasure.org"
            }
          }
        ],
        "text": {
          "status": "generated",
          "div": "<div xmlns=\"http://www.w3.org/1999/xhtml\"><table class=\"hl7__eu__lab__report\"><tr><th>Test</th><th>14-Jan-2023</th><th>Reference&#xA0;Range</th><th>Unit</th></tr><tr><td>Calcium [Mass/volume] in Blood</td><td>9.0</td><td>8.5 - 10.5</td><td></td><td>mg/dL</td></tr></table></div>"
        },
        "status": "final",
        "subject": {
          "reference": "urn:uuid:63c81f07-f444-44c9-aa08-db0d2ba849f2",
          "display": "Victor Lagarde"
        },
        "effectiveDateTime": "2023-01-14T04:48:18Z",
        "specimen": {
          "reference": "urn:uuid:76e1d7c8-4bc0-4326-af8f-111ece81be7e"
        }
      }
    },
    {
      "fullUrl": "urn:uuid:f0cc9b9e-7d30-45b3-807e-f90e1a686950",
      "resource": {
        "resourceType": "Observation",
        "id": "f0cc9b9e-7d30-45b3-807e-f90e1a686950",
        "meta": {
          "profile": [
            "http://hl7.eu/fhir/laboratory/StructureDefinition/Observation-resultslab-eu-lab"
          ]
        },
        "performer": [
          {
            "display": "The Central European Lab"
          }
        ],
        "category": [
          {
            "coding": [
              {
                "system": "http://terminology.hl7.org/CodeSystem/observation-category",
                "code": "laboratory"
              }
            ]
          }
        ],
        "code": {
          "coding": [
            {
              "code": "2947-0",
              "system": "http://loinc.org",
              "display": "Sodium [Moles/volume] in Blood"
            }
          ],
          "text": "Sodium [Moles/volume] in Blood"
        },
        "valueQuantity": {
          "system": "http://unitsofmeasure.org",
          "value": 139.4,
          "unit": "mmol/L",
          "code": "mmol/L"
        },
        "referenceRange": [
          {
            "low": {
              "value": 135,
              "code": "mmol/L",
              "system": "http://unitsofmeasure.org"
            }
          },
          {
            "high": {
              "value": 145,
              "code": "mmol/L",
              "system": "http://unitsofmeasure.org"
            }
          }
        ],
        "text": {
          "status": "generated",
          "div": "<div xmlns=\"http://www.w3.org/1999/xhtml\"><table class=\"hl7__eu__lab__report\"><tr><th>Test</th><th>14-Jan-2023</th><th>Reference&#xA0;Range</th><th>Unit</th></tr><tr><td>Sodium [Moles/volume] in Blood</td><td>139.4</td><td>135 - 145</td><td></td><td>mmol/L</td></tr></table></div>"
        },
        "status": "final",
        "subject": {
          "reference": "urn:uuid:63c81f07-f444-44c9-aa08-db0d2ba849f2",
          "display": "Victor Lagarde"
        },
        "effectiveDateTime": "2023-01-14T04:48:18Z",
        "specimen": {
          "reference": "urn:uuid:76e1d7c8-4bc0-4326-af8f-111ece81be7e"
        }
      }
    },
    {
      "fullUrl": "urn:uuid:9d10e1da-e66e-42a6-8995-3339bd0f695e",
      "resource": {
        "resourceType": "Observation",
        "id": "9d10e1da-e66e-42a6-8995-3339bd0f695e",
        "meta": {
          "profile": [
            "http://hl7.eu/fhir/laboratory/StructureDefinition/Observation-resultslab-eu-lab"
          ]
        },
        "performer": [
          {
            "display": "The Central European Lab"
          }
        ],
        "category": [
          {
            "coding": [
              {
                "system": "http://terminology.hl7.org/CodeSystem/observation-category",
                "code": "laboratory"
              }
            ]
          }
        ],
        "code": {
          "coding": [
            {
              "code": "6298-4",
              "system": "http://loinc.org",
              "display": "Potassium [Moles/volume] in Blood"
            }
          ],
          "text": "Potassium [Moles/volume] in Blood"
        },
        "valueQuantity": {
          "system": "http://unitsofmeasure.org",
          "value": 3.7,
          "unit": "mmol/L",
          "code": "mmol/L"
        },
        "referenceRange": [
          {
            "low": {
              "value": 3.5,
              "code": "mmol/L",
              "system": "http://unitsofmeasure.org"
            }
          },
          {
            "high": {
              "value": 5.1,
              "code": "mmol/L",
              "system": "http://unitsofmeasure.org"
            }
          }
        ],
        "text": {
          "status": "generated",
          "div": "<div xmlns=\"http://www.w3.org/1999/xhtml\"><table class=\"hl7__eu__lab__report\"><tr><th>Test</th><th>14-Jan-2023</th><th>Reference&#xA0;Range</th><th>Unit</th></tr><tr><td>Potassium [Moles/volume] in Blood</td><td>3.7</td><td>3.5 - 5.1</td><td></td><td>mmol/L</td></tr></table></div>"
        },
        "status": "final",
        "subject": {
          "reference": "urn:uuid:63c81f07-f444-44c9-aa08-db0d2ba849f2",
          "display": "Victor Lagarde"
        },
        "effectiveDateTime": "2023-01-14T04:48:18Z",
        "specimen": {
          "reference": "urn:uuid:76e1d7c8-4bc0-4326-af8f-111ece81be7e"
        }
      }
    },
    {
      "fullUrl": "urn:uuid:21a7f891-0faf-4337-870a-eccff38aca66",
      "resource": {
        "resourceType": "Observation",
        "id": "21a7f891-0faf-4337-870a-eccff38aca66",
        "meta": {
          "profile": [
            "http://hl7.eu/fhir/laboratory/StructureDefinition/Observation-resultslab-eu-lab"
          ]
        },
        "performer": [
          {
            "display": "The Central European Lab"
          }
        ],
        "category": [
          {
            "coding": [
              {
                "system": "http://terminology.hl7.org/CodeSystem/observation-category",
                "code": "laboratory"
              }
            ]
          }
        ],
        "code": {
          "coding": [
            {
              "code": "2069-3",
              "system": "http://loinc.org",
              "display": "Chloride [Moles/volume] in Blood"
            }
          ],
          "text": "Chloride [Moles/volume] in Blood"
        },
        "valueQuantity": {
          "system": "http://unitsofmeasure.org",
          "value": 108.9,
          "unit": "mmol/L",
          "code": "mmol/L"
        },
        "referenceRange": [
          {
            "low": {
              "value": 98,
              "code": "mmol/L",
              "system": "http://unitsofmeasure.org"
            }
          },
          {
            "high": {
              "value": 108,
              "code": "mmol/L",
              "system": "http://unitsofmeasure.org"
            }
          }
        ],
        "interpretation": [
          {
            "coding": [
              {
                "code": "H",
                "system": "http://terminology.hl7.org/CodeSystem/v3-ObservationInterpretation",
                "display": "High"
              }
            ]
          }
        ],
        "text": {
          "status": "generated",
          "div": "<div xmlns=\"http://www.w3.org/1999/xhtml\"><table class=\"hl7__eu__lab__report\"><tr><th>Test</th><th>14-Jan-2023</th><th>Reference&#xA0;Range</th><th>Unit</th></tr><tr><td>Chloride [Moles/volume] in Blood</td><td>108.9</td><td>98 - 108</td><td>H</td><td>mmol/L</td></tr></table></div>"
        },
        "status": "final",
        "subject": {
          "reference": "urn:uuid:63c81f07-f444-44c9-aa08-db0d2ba849f2",
          "display": "Victor Lagarde"
        },
        "effectiveDateTime": "2023-01-14T04:48:18Z",
        "specimen": {
          "reference": "urn:uuid:76e1d7c8-4bc0-4326-af8f-111ece81be7e"
        }
      }
    },
    {
      "fullUrl": "urn:uuid:c8c4ff09-6d1c-44ca-98cb-186ceeddb2de",
      "resource": {
        "resourceType": "Observation",
        "id": "c8c4ff09-6d1c-44ca-98cb-186ceeddb2de",
        "meta": {
          "profile": [
            "http://hl7.eu/fhir/laboratory/StructureDefinition/Observation-resultslab-eu-lab"
          ]
        },
        "performer": [
          {
            "display": "The Central European Lab"
          }
        ],
        "category": [
          {
            "coding": [
              {
                "system": "http://terminology.hl7.org/CodeSystem/observation-category",
                "code": "laboratory"
              }
            ]
          }
        ],
        "code": {
          "coding": [
            {
              "code": "20565-8",
              "system": "http://loinc.org",
              "display": "Carbon dioxide, total [Moles/volume] in Blood"
            }
          ],
          "text": "Carbon dioxide, total [Moles/volume] in Blood"
        },
        "valueQuantity": {
          "system": "http://unitsofmeasure.org",
          "value": 24.7,
          "unit": "mmol/L",
          "code": "mmol/L"
        },
        "referenceRange": [
          {
            "low": {
              "value": 22,
              "code": "mmol/L",
              "system": "http://unitsofmeasure.org"
            }
          },
          {
            "high": {
              "value": 29,
              "code": "mmol/L",
              "system": "http://unitsofmeasure.org"
            }
          }
        ],
        "text": {
          "status": "generated",
          "div": "<div xmlns=\"http://www.w3.org/1999/xhtml\"><table class=\"hl7__eu__lab__report\"><tr><th>Test</th><th>14-Jan-2023</th><th>Reference&#xA0;Range</th><th>Unit</th></tr><tr><td>Carbon dioxide, total [Moles/volume] in Blood</td><td>24.7</td><td>22 - 29</td><td></td><td>mmol/L</td></tr></table></div>"
        },
        "status": "final",
        "subject": {
          "reference": "urn:uuid:63c81f07-f444-44c9-aa08-db0d2ba849f2",
          "display": "Victor Lagarde"
        },
        "effectiveDateTime": "2023-01-14T04:48:18Z",
        "specimen": {
          "reference": "urn:uuid:76e1d7c8-4bc0-4326-af8f-111ece81be7e"
        }
      }
    },
    {
      "fullUrl": "urn:uuid:cd01afb4-d327-4b44-b33e-2456817b412d",
      "resource": {
        "resourceType": "Observation",
        "id": "cd01afb4-d327-4b44-b33e-2456817b412d",
        "meta": {
          "profile": [
            "http://hl7.eu/fhir/laboratory/StructureDefinition/Observation-resultslab-eu-lab"
          ]
        },
        "performer": [
          {
            "display": "The Central European Lab"
          }
        ],
        "category": [
          {
            "coding": [
              {
                "system": "http://terminology.hl7.org/CodeSystem/observation-category",
                "code": "laboratory"
              }
            ]
          }
        ],
        "code": {
          "coding": [
            {
              "code": "2885-2",
              "system": "http://loinc.org",
              "display": "Protein [Mass/volume] in Serum or Plasma"
            }
          ],
          "text": "Protein [Mass/volume] in Serum or Plasma"
        },
        "valueQuantity": {
          "system": "http://unitsofmeasure.org",
          "value": 7.8,
          "unit": "g/dL",
          "code": "g/dL"
        },
        "referenceRange": [
          {
            "low": {
              "value": 6,
              "code": "g/dL",
              "system": "http://unitsofmeasure.org"
            }
          },
          {
            "high": {
              "value": 8.3,
              "code": "g/dL",
              "system": "http://unitsofmeasure.org"
            }
          }
        ],
        "text": {
          "status": "generated",
          "div": "<div xmlns=\"http://www.w3.org/1999/xhtml\"><table class=\"hl7__eu__lab__report\"><tr><th>Test</th><th>14-Jan-2023</th><th>Reference&#xA0;Range</th><th>Unit</th></tr><tr><td>Protein [Mass/volume] in Serum or Plasma</td><td>7.8</td><td>6 - 8.3</td><td></td><td>g/dL</td></tr></table></div>"
        },
        "status": "final",
        "subject": {
          "reference": "urn:uuid:63c81f07-f444-44c9-aa08-db0d2ba849f2",
          "display": "Victor Lagarde"
        },
        "effectiveDateTime": "2023-01-14T04:48:18Z",
        "specimen": {
          "reference": "urn:uuid:e57e4db3-69d4-420e-a7ec-7708cd88650e"
        }
      }
    },
    {
      "fullUrl": "urn:uuid:4f9e09e3-9750-4868-a526-48b8ca323968",
      "resource": {
        "resourceType": "Observation",
        "id": "4f9e09e3-9750-4868-a526-48b8ca323968",
        "meta": {
          "profile": [
            "http://hl7.eu/fhir/laboratory/StructureDefinition/Observation-resultslab-eu-lab"
          ]
        },
        "performer": [
          {
            "display": "The Central European Lab"
          }
        ],
        "category": [
          {
            "coding": [
              {
                "system": "http://terminology.hl7.org/CodeSystem/observation-category",
                "code": "laboratory"
              }
            ]
          }
        ],
        "code": {
          "coding": [
            {
              "code": "1751-7",
              "system": "http://loinc.org",
              "display": "Albumin [Mass/volume] in Serum or Plasma"
            }
          ],
          "text": "Albumin [Mass/volume] in Serum or Plasma"
        },
        "valueQuantity": {
          "system": "http://unitsofmeasure.org",
          "value": 3.9,
          "unit": "g/dL",
          "code": "g/dL"
        },
        "referenceRange": [
          {
            "low": {
              "value": 3.5,
              "code": "g/dL",
              "system": "http://unitsofmeasure.org"
            }
          },
          {
            "high": {
              "value": 5.5,
              "code": "g/dL",
              "system": "http://unitsofmeasure.org"
            }
          }
        ],
        "text": {
          "status": "generated",
          "div": "<div xmlns=\"http://www.w3.org/1999/xhtml\"><table class=\"hl7__eu__lab__report\"><tr><th>Test</th><th>14-Jan-2023</th><th>Reference&#xA0;Range</th><th>Unit</th></tr><tr><td>Albumin [Mass/volume] in Serum or Plasma</td><td>3.9</td><td>3.5 - 5.5</td><td></td><td>g/dL</td></tr></table></div>"
        },
        "status": "final",
        "subject": {
          "reference": "urn:uuid:63c81f07-f444-44c9-aa08-db0d2ba849f2",
          "display": "Victor Lagarde"
        },
        "effectiveDateTime": "2023-01-14T04:48:18Z",
        "specimen": {
          "reference": "urn:uuid:e57e4db3-69d4-420e-a7ec-7708cd88650e"
        }
      }
    },
    {
      "fullUrl": "urn:uuid:ff5b89b0-4db7-4cee-ba82-c5b9e4b4e8b2",
      "resource": {
        "resourceType": "Observation",
        "id": "ff5b89b0-4db7-4cee-ba82-c5b9e4b4e8b2",
        "meta": {
          "profile": [
            "http://hl7.eu/fhir/laboratory/StructureDefinition/Observation-resultslab-eu-lab"
          ]
        },
        "performer": [
          {
            "display": "The Central European Lab"
          }
        ],
        "category": [
          {
            "coding": [
              {
                "system": "http://terminology.hl7.org/CodeSystem/observation-category",
                "code": "laboratory"
              }
            ]
          }
        ],
        "code": {
          "coding": [
            {
              "code": "10834-0",
              "system": "http://loinc.org",
              "display": "Globulin [Mass/volume] in Serum by calculation"
            }
          ],
          "text": "Globulin [Mass/volume] in Serum by calculation"
        },
        "valueQuantity": {
          "system": "http://unitsofmeasure.org",
          "value": 2.5,
          "unit": "g/L",
          "code": "g/L"
        },
        "referenceRange": [
          {
            "low": {
              "value": 2,
              "code": "g/L",
              "system": "http://unitsofmeasure.org"
            }
          },
          {
            "high": {
              "value": 3.5,
              "code": "g/L",
              "system": "http://unitsofmeasure.org"
            }
          }
        ],
        "text": {
          "status": "generated",
          "div": "<div xmlns=\"http://www.w3.org/1999/xhtml\"><table class=\"hl7__eu__lab__report\"><tr><th>Test</th><th>14-Jan-2023</th><th>Reference&#xA0;Range</th><th>Unit</th></tr><tr><td>Globulin [Mass/volume] in Serum by calculation</td><td>2.5</td><td>2 - 3.5</td><td></td><td>g/L</td></tr></table></div>"
        },
        "status": "final",
        "subject": {
          "reference": "urn:uuid:63c81f07-f444-44c9-aa08-db0d2ba849f2",
          "display": "Victor Lagarde"
        },
        "effectiveDateTime": "2023-01-14T04:48:18Z",
        "specimen": {
          "reference": "urn:uuid:ea6bdcf8-bb3e-476e-9006-1f80fa34e572"
        }
      }
    },
    {
      "fullUrl": "urn:uuid:e9339448-a87e-4cc9-b80b-ca4dc1c678a2",
      "resource": {
        "resourceType": "Observation",
        "id": "e9339448-a87e-4cc9-b80b-ca4dc1c678a2",
        "meta": {
          "profile": [
            "http://hl7.eu/fhir/laboratory/StructureDefinition/Observation-resultslab-eu-lab"
          ]
        },
        "performer": [
          {
            "display": "The Central European Lab"
          }
        ],
        "category": [
          {
            "coding": [
              {
                "system": "http://terminology.hl7.org/CodeSystem/observation-category",
                "code": "laboratory"
              }
            ]
          }
        ],
        "code": {
          "coding": [
            {
              "code": "1975-2",
              "system": "http://loinc.org",
              "display": "Bilirubin.total [Mass/volume] in Serum or Plasma"
            }
          ],
          "text": "Bilirubin.total [Mass/volume] in Serum or Plasma"
        },
        "valueQuantity": {
          "system": "http://unitsofmeasure.org",
          "value": 0.9,
          "unit": "mg/dL",
          "code": "mg/dL"
        },
        "referenceRange": [
          {
            "low": {
              "value": 0.3,
              "code": "mg/dL",
              "system": "http://unitsofmeasure.org"
            }
          },
          {
            "high": {
              "value": 1.2,
              "code": "mg/dL",
              "system": "http://unitsofmeasure.org"
            }
          }
        ],
        "text": {
          "status": "generated",
          "div": "<div xmlns=\"http://www.w3.org/1999/xhtml\"><table class=\"hl7__eu__lab__report\"><tr><th>Test</th><th>14-Jan-2023</th><th>Reference&#xA0;Range</th><th>Unit</th></tr><tr><td>Bilirubin.total [Mass/volume] in Serum or Plasma</td><td>0.9</td><td>0.3 - 1.2</td><td></td><td>mg/dL</td></tr></table></div>"
        },
        "status": "final",
        "subject": {
          "reference": "urn:uuid:63c81f07-f444-44c9-aa08-db0d2ba849f2",
          "display": "Victor Lagarde"
        },
        "effectiveDateTime": "2023-01-14T04:48:18Z",
        "specimen": {
          "reference": "urn:uuid:e57e4db3-69d4-420e-a7ec-7708cd88650e"
        }
      }
    },
    {
      "fullUrl": "urn:uuid:10acd819-cc6e-4341-b983-db6b94fcb63c",
      "resource": {
        "resourceType": "Observation",
        "id": "10acd819-cc6e-4341-b983-db6b94fcb63c",
        "meta": {
          "profile": [
            "http://hl7.eu/fhir/laboratory/StructureDefinition/Observation-resultslab-eu-lab"
          ]
        },
        "performer": [
          {
            "display": "The Central European Lab"
          }
        ],
        "category": [
          {
            "coding": [
              {
                "system": "http://terminology.hl7.org/CodeSystem/observation-category",
                "code": "laboratory"
              }
            ]
          }
        ],
        "code": {
          "coding": [
            {
              "code": "6768-6",
              "system": "http://loinc.org",
              "display": "Alkaline phosphatase [Enzymatic activity/volume] in Serum or Plasma"
            }
          ],
          "text": "Alkaline phosphatase [Enzymatic activity/volume] in Serum or Plasma"
        },
        "valueQuantity": {
          "system": "http://unitsofmeasure.org",
          "value": 28.7,
          "unit": "U/L",
          "code": "U/L"
        },
        "referenceRange": [
          {
            "low": {
              "value": 39,
              "code": "U/L",
              "system": "http://unitsofmeasure.org"
            }
          },
          {
            "high": {
              "value": 147,
              "code": "U/L",
              "system": "http://unitsofmeasure.org"
            }
          }
        ],
        "interpretation": [
          {
            "coding": [
              {
                "code": "L",
                "system": "http://terminology.hl7.org/CodeSystem/v3-ObservationInterpretation",
                "display": "Low"
              }
            ]
          }
        ],
        "text": {
          "status": "generated",
          "div": "<div xmlns=\"http://www.w3.org/1999/xhtml\"><table class=\"hl7__eu__lab__report\"><tr><th>Test</th><th>14-Jan-2023</th><th>Reference&#xA0;Range</th><th>Unit</th></tr><tr><td>Alkaline phosphatase [Enzymatic activity/volume] in Serum or Plasma</td><td>28.7</td><td>39 - 147</td><td>L</td><td>U/L</td></tr></table></div>"
        },
        "status": "final",
        "subject": {
          "reference": "urn:uuid:63c81f07-f444-44c9-aa08-db0d2ba849f2",
          "display": "Victor Lagarde"
        },
        "effectiveDateTime": "2023-01-14T04:48:18Z",
        "specimen": {
          "reference": "urn:uuid:e57e4db3-69d4-420e-a7ec-7708cd88650e"
        }
      }
    },
    {
      "fullUrl": "urn:uuid:d496eb3c-a327-4c7e-909a-c0fa176fcde4",
      "resource": {
        "resourceType": "Observation",
        "id": "d496eb3c-a327-4c7e-909a-c0fa176fcde4",
        "meta": {
          "profile": [
            "http://hl7.eu/fhir/laboratory/StructureDefinition/Observation-resultslab-eu-lab"
          ]
        },
        "performer": [
          {
            "display": "The Central European Lab"
          }
        ],
        "category": [
          {
            "coding": [
              {
                "system": "http://terminology.hl7.org/CodeSystem/observation-category",
                "code": "laboratory"
              }
            ]
          }
        ],
        "code": {
          "coding": [
            {
              "code": "1742-6",
              "system": "http://loinc.org",
              "display": "Alanine aminotransferase [Enzymatic activity/volume] in Serum or Plasma"
            }
          ],
          "text": "Alanine aminotransferase [Enzymatic activity/volume] in Serum or Plasma"
        },
        "valueQuantity": {
          "system": "http://unitsofmeasure.org",
          "value": 31.1,
          "unit": "U/L",
          "code": "U/L"
        },
        "referenceRange": [
          {
            "low": {
              "value": 10,
              "code": "U/L",
              "system": "http://unitsofmeasure.org"
            }
          },
          {
            "high": {
              "value": 63,
              "code": "U/L",
              "system": "http://unitsofmeasure.org"
            }
          }
        ],
        "text": {
          "status": "generated",
          "div": "<div xmlns=\"http://www.w3.org/1999/xhtml\"><table class=\"hl7__eu__lab__report\"><tr><th>Test</th><th>14-Jan-2023</th><th>Reference&#xA0;Range</th><th>Unit</th></tr><tr><td>Alanine aminotransferase [Enzymatic activity/volume] in Serum or Plasma</td><td>31.1</td><td>10 - 63</td><td></td><td>U/L</td></tr></table></div>"
        },
        "status": "final",
        "subject": {
          "reference": "urn:uuid:63c81f07-f444-44c9-aa08-db0d2ba849f2",
          "display": "Victor Lagarde"
        },
        "effectiveDateTime": "2023-01-14T04:48:18Z",
        "specimen": {
          "reference": "urn:uuid:e57e4db3-69d4-420e-a7ec-7708cd88650e"
        }
      }
    },
    {
      "fullUrl": "urn:uuid:175fd72f-f6e0-45a3-bf99-626e4220bd6a",
      "resource": {
        "resourceType": "Observation",
        "id": "175fd72f-f6e0-45a3-bf99-626e4220bd6a",
        "meta": {
          "profile": [
            "http://hl7.eu/fhir/laboratory/StructureDefinition/Observation-resultslab-eu-lab"
          ]
        },
        "performer": [
          {
            "display": "The Central European Lab"
          }
        ],
        "category": [
          {
            "coding": [
              {
                "system": "http://terminology.hl7.org/CodeSystem/observation-category",
                "code": "laboratory"
              }
            ]
          }
        ],
        "code": {
          "coding": [
            {
              "code": "1920-8",
              "system": "http://loinc.org",
              "display": "Aspartate aminotransferase [Enzymatic activity/volume] in Serum or Plasma"
            }
          ],
          "text": "Aspartate aminotransferase [Enzymatic activity/volume] in Serum or Plasma"
        },
        "valueQuantity": {
          "system": "http://unitsofmeasure.org",
          "value": 33.4,
          "unit": "U/L",
          "code": "U/L"
        },
        "referenceRange": [
          {
            "low": {
              "value": 10,
              "code": "U/L",
              "system": "http://unitsofmeasure.org"
            }
          },
          {
            "high": {
              "value": 40,
              "code": "U/L",
              "system": "http://unitsofmeasure.org"
            }
          }
        ],
        "text": {
          "status": "generated",
          "div": "<div xmlns=\"http://www.w3.org/1999/xhtml\"><table class=\"hl7__eu__lab__report\"><tr><th>Test</th><th>14-Jan-2023</th><th>Reference&#xA0;Range</th><th>Unit</th></tr><tr><td>Aspartate aminotransferase [Enzymatic activity/volume] in Serum or Plasma</td><td>33.4</td><td>10 - 40</td><td></td><td>U/L</td></tr></table></div>"
        },
        "status": "final",
        "subject": {
          "reference": "urn:uuid:63c81f07-f444-44c9-aa08-db0d2ba849f2",
          "display": "Victor Lagarde"
        },
        "effectiveDateTime": "2023-01-14T04:48:18Z",
        "specimen": {
          "reference": "urn:uuid:e57e4db3-69d4-420e-a7ec-7708cd88650e"
        }
      }
    },
    {
      "fullUrl": "urn:uuid:3fcf2182-825f-437c-820e-593e7d936d3f",
      "resource": {
        "resourceType": "Observation",
        "id": "3fcf2182-825f-437c-820e-593e7d936d3f",
        "meta": {
          "profile": [
            "http://hl7.eu/fhir/laboratory/StructureDefinition/Observation-resultslab-eu-lab"
          ]
        },
        "performer": [
          {
            "display": "The Central European Lab"
          }
        ],
        "category": [
          {
            "coding": [
              {
                "system": "http://terminology.hl7.org/CodeSystem/observation-category",
                "code": "laboratory"
              }
            ]
          }
        ],
        "code": {
          "coding": [
            {
              "code": "2093-3",
              "system": "http://loinc.org",
              "display": "Cholesterol [Mass/volume] in Serum or Plasma"
            }
          ],
          "text": "Cholesterol [Mass/volume] in Serum or Plasma"
        },
        "valueQuantity": {
          "system": "http://unitsofmeasure.org",
          "value": 157.7,
          "unit": "mg/dL",
          "code": "mg/dL"
        },
        "referenceRange": [
          {
            "low": {
              "value": 0,
              "code": "mg/dL",
              "system": "http://unitsofmeasure.org"
            }
          },
          {
            "high": {
              "value": 200,
              "code": "mg/dL",
              "system": "http://unitsofmeasure.org"
            }
          }
        ],
        "text": {
          "status": "generated",
          "div": "<div xmlns=\"http://www.w3.org/1999/xhtml\"><table class=\"hl7__eu__lab__report\"><tr><th>Test</th><th>14-Jan-2023</th><th>Reference&#xA0;Range</th><th>Unit</th></tr><tr><td>Cholesterol [Mass/volume] in Serum or Plasma</td><td>157.7</td><td>0 - 200</td><td></td><td>mg/dL</td></tr></table></div>"
        },
        "status": "final",
        "subject": {
          "reference": "urn:uuid:63c81f07-f444-44c9-aa08-db0d2ba849f2",
          "display": "Victor Lagarde"
        },
        "effectiveDateTime": "2023-01-14T04:48:18Z",
        "specimen": {
          "reference": "urn:uuid:e57e4db3-69d4-420e-a7ec-7708cd88650e"
        }
      }
    },
    {
      "fullUrl": "urn:uuid:0077070c-f8e1-4fb4-af0c-915ec6a2498c",
      "resource": {
        "resourceType": "Observation",
        "id": "0077070c-f8e1-4fb4-af0c-915ec6a2498c",
        "meta": {
          "profile": [
            "http://hl7.eu/fhir/laboratory/StructureDefinition/Observation-resultslab-eu-lab"
          ]
        },
        "performer": [
          {
            "display": "The Central European Lab"
          }
        ],
        "category": [
          {
            "coding": [
              {
                "system": "http://terminology.hl7.org/CodeSystem/observation-category",
                "code": "laboratory"
              }
            ]
          }
        ],
        "code": {
          "coding": [
            {
              "code": "2571-8",
              "system": "http://loinc.org",
              "display": "Triglyceride [Mass/volume] in Serum or Plasma"
            }
          ],
          "text": "Triglyceride [Mass/volume] in Serum or Plasma"
        },
        "valueQuantity": {
          "system": "http://unitsofmeasure.org",
          "value": 124.5,
          "unit": "mg/dL",
          "code": "mg/dL"
        },
        "referenceRange": [
          {
            "low": {
              "value": 0,
              "code": "mg/dL",
              "system": "http://unitsofmeasure.org"
            }
          },
          {
            "high": {
              "value": 199,
              "code": "mg/dL",
              "system": "http://unitsofmeasure.org"
            }
          }
        ],
        "text": {
          "status": "generated",
          "div": "<div xmlns=\"http://www.w3.org/1999/xhtml\"><table class=\"hl7__eu__lab__report\"><tr><th>Test</th><th>14-Jan-2023</th><th>Reference&#xA0;Range</th><th>Unit</th></tr><tr><td>Triglyceride [Mass/volume] in Serum or Plasma</td><td>124.5</td><td>0 - 199</td><td></td><td>mg/dL</td></tr></table></div>"
        },
        "status": "final",
        "subject": {
          "reference": "urn:uuid:63c81f07-f444-44c9-aa08-db0d2ba849f2",
          "display": "Victor Lagarde"
        },
        "effectiveDateTime": "2023-01-14T04:48:18Z",
        "specimen": {
          "reference": "urn:uuid:e57e4db3-69d4-420e-a7ec-7708cd88650e"
        }
      }
    },
    {
      "fullUrl": "urn:uuid:f660260a-cb6b-49f5-80cd-3d82506b262f",
      "resource": {
        "resourceType": "Observation",
        "id": "f660260a-cb6b-49f5-80cd-3d82506b262f",
        "meta": {
          "profile": [
            "http://hl7.eu/fhir/laboratory/StructureDefinition/Observation-resultslab-eu-lab"
          ]
        },
        "performer": [
          {
            "display": "The Central European Lab"
          }
        ],
        "category": [
          {
            "coding": [
              {
                "system": "http://terminology.hl7.org/CodeSystem/observation-category",
                "code": "laboratory"
              }
            ]
          }
        ],
        "code": {
          "coding": [
            {
              "code": "18262-6",
              "system": "http://loinc.org",
              "display": "Cholesterol in LDL [Mass/volume] in Serum or Plasma by Direct assay"
            }
          ],
          "text": "Cholesterol in LDL [Mass/volume] in Serum or Plasma by Direct assay"
        },
        "valueQuantity": {
          "system": "http://unitsofmeasure.org",
          "value": 143.6,
          "unit": "mg/dL",
          "code": "mg/dL"
        },
        "referenceRange": [
          {
            "low": {
              "value": 0,
              "code": "mg/dL",
              "system": "http://unitsofmeasure.org"
            }
          },
          {
            "high": {
              "value": 130,
              "code": "mg/dL",
              "system": "http://unitsofmeasure.org"
            }
          }
        ],
        "interpretation": [
          {
            "coding": [
              {
                "code": "H",
                "system": "http://terminology.hl7.org/CodeSystem/v3-ObservationInterpretation",
                "display": "High"
              }
            ]
          }
        ],
        "text": {
          "status": "generated",
          "div": "<div xmlns=\"http://www.w3.org/1999/xhtml\"><table class=\"hl7__eu__lab__report\"><tr><th>Test</th><th>14-Jan-2023</th><th>Reference&#xA0;Range</th><th>Unit</th></tr><tr><td>Cholesterol in LDL [Mass/volume] in Serum or Plasma by Direct assay</td><td>143.6</td><td>0 - 130</td><td>H</td><td>mg/dL</td></tr></table></div>"
        },
        "status": "final",
        "subject": {
          "reference": "urn:uuid:63c81f07-f444-44c9-aa08-db0d2ba849f2",
          "display": "Victor Lagarde"
        },
        "effectiveDateTime": "2023-01-14T04:48:18Z",
        "specimen": {
          "reference": "urn:uuid:e57e4db3-69d4-420e-a7ec-7708cd88650e"
        }
      }
    },
    {
      "fullUrl": "urn:uuid:a8f0a4c2-4744-4c84-8070-6b4fcb377205",
      "resource": {
        "resourceType": "Observation",
        "id": "a8f0a4c2-4744-4c84-8070-6b4fcb377205",
        "meta": {
          "profile": [
            "http://hl7.eu/fhir/laboratory/StructureDefinition/Observation-resultslab-eu-lab"
          ]
        },
        "performer": [
          {
            "display": "The Central European Lab"
          }
        ],
        "category": [
          {
            "coding": [
              {
                "system": "http://terminology.hl7.org/CodeSystem/observation-category",
                "code": "laboratory"
              }
            ]
          }
        ],
        "code": {
          "coding": [
            {
              "code": "2085-9",
              "system": "http://loinc.org",
              "display": "Cholesterol in HDL [Mass/volume] in Serum or Plasma"
            }
          ],
          "text": "Cholesterol in HDL [Mass/volume] in Serum or Plasma"
        },
        "valueQuantity": {
          "system": "http://unitsofmeasure.org",
          "value": 72.9,
          "unit": "mg/dL",
          "code": "mg/dL"
        },
        "referenceRange": [
          {
            "low": {
              "value": 40,
              "code": "mg/dL",
              "system": "http://unitsofmeasure.org"
            }
          },
          {
            "high": {
              "value": 100,
              "code": "mg/dL",
              "system": "http://unitsofmeasure.org"
            }
          }
        ],
        "text": {
          "status": "generated",
          "div": "<div xmlns=\"http://www.w3.org/1999/xhtml\"><table class=\"hl7__eu__lab__report\"><tr><th>Test</th><th>14-Jan-2023</th><th>Reference&#xA0;Range</th><th>Unit</th></tr><tr><td>Cholesterol in HDL [Mass/volume] in Serum or Plasma</td><td>72.9</td><td>40 - 100</td><td></td><td>mg/dL</td></tr></table></div>"
        },
        "status": "final",
        "subject": {
          "reference": "urn:uuid:63c81f07-f444-44c9-aa08-db0d2ba849f2",
          "display": "Victor Lagarde"
        },
        "effectiveDateTime": "2023-01-14T04:48:18Z",
        "specimen": {
          "reference": "urn:uuid:e57e4db3-69d4-420e-a7ec-7708cd88650e"
        }
      }
    },
    {
      "fullUrl": "urn:uuid:f5def806-ed21-48ac-9ad9-b90a70dc8fc8",
      "resource": {
        "resourceType": "Device",
        "id": "f5def806-ed21-48ac-9ad9-b90a70dc8fc8",
        "deviceName": [
          {
            "name": "SYNDERAI Synthetic Generator",
            "type": "manufacturer-name"
          }
        ],
        "version": [
          {
            "value": "5.0"
          }
        ],
        "text": {
          "status": "generated",
          "div": "<div xmlns=\"http://www.w3.org/1999/xhtml\">SYNDERAI Synthetic Generator v5.0</div>"
        },
        "status": "active\"",
        "distinctIdentifier": "synderai-generator-50",
        "manufacturer": "SYNDERAI Project"
      }
    },
    {
      "fullUrl": "urn:uuid:943f966e-7a50-474f-bb92-398404328153",
      "resource": {
        "resourceType": "Provenance",
        "id": "943f966e-7a50-474f-bb92-398404328153",
        "target": [
          {
            "reference": "Patient/63c81f07-f444-44c9-aa08-db0d2ba849f2"
          },
          {
            "reference": "Bundle/cbb77ec7-6a99-4b2b-8ebe-04b54232f80e"
          },
          {
            "reference": "Composition/a081acb2-cbc3-4838-8b6a-c36350aa5e4b"
          },
          {
            "reference": "PractitionerRole/89c0f240-b4d0-4e9b-b6d0-6cc2601ea85c"
          },
          {
            "reference": "Practitioner/baf210b8-a8a6-4215-bce4-61e55cabab98"
          },
          {
            "reference": "PractitionerRole/dd3d1a51-cc91-42ba-bed7-390d3d2cb7f2"
          },
          {
            "reference": "Organization/b0d96989-ef7b-4eea-a1a8-ebca4faecf3f"
          }
        ],
        "activity": {
          "text": "Synthetic Example Data Generation"
        },
        "policy": [
          "https://synderai.net/synderai-synthetic-data-policy"
        ],
        "agent": [
          {
            "type": {
              "text": "author"
            },
            "who": {
              "reference": "Device/f5def806-ed21-48ac-9ad9-b90a70dc8fc8"
            }
          }
        ],
        "reason": [
          {
            "text": "Interoperability Testing and Training (non-clinical use)"
          }
        ],
        "text": {
          "status": "generated",
          "div": "<div xmlns=\"http://www.w3.org/1999/xhtml\">Provenance for SYNDERAI Synthetic Example Data Resource</div>"
        },
        "recorded": "2023-01-14T05:48:18Z"
      }
    },
    {
      "fullUrl": "urn:uuid:89c0f240-b4d0-4e9b-b6d0-6cc2601ea85c",
      "resource": {
        "resourceType": "PractitionerRole",
        "id": "89c0f240-b4d0-4e9b-b6d0-6cc2601ea85c",
        "meta": {
          "profile": [
            "http://hl7.eu/fhir/base/StructureDefinition/practitionerRole-eu"
          ]
        },
        "text": {
          "status": "generated",
          "div": "<div xmlns=\"http://www.w3.org/1999/xhtml\">Laboratory Role Id: 89c0f240-b4d0-4e9b-b6d0-6cc2601ea85c</div>"
        },
        "practitioner": {
          "reference": "urn:uuid:baf210b8-a8a6-4215-bce4-61e55cabab98"
        }
      }
    },
    {
      "fullUrl": "urn:uuid:baf210b8-a8a6-4215-bce4-61e55cabab98",
      "resource": {
        "resourceType": "Practitioner",
        "id": "baf210b8-a8a6-4215-bce4-61e55cabab98",
        "meta": {
          "profile": [
            "http://hl7.eu/fhir/base/StructureDefinition/practitioner-eu"
          ]
        },
        "identifier": [
          {
            "assigner": {
              "display": "HL7 Europe"
            },
            "system": "urn:oid:2.16.840.1.113883.2.51.999",
            "value": "b3f093a1-5224-4573-9309-1888f5d272be"
          }
        ],
        "name": [
          {
            "prefix": [
              "dr"
            ],
            "given": [
              "Ex"
            ],
            "family": "Ample"
          }
        ],
        "address": [
          {
            "line": [
              "Laboratoire Central Européenne",
              "Boulevard du Jardin Botanique 32"
            ],
            "postalCode": "1000",
            "city": "Brussels",
            "country": "Belgium"
          }
        ],
        "text": {
          "status": "generated",
          "div": "<div xmlns=\"http://www.w3.org/1999/xhtml\">Laboratory: Laboratoire Central Européenne, 1000 Brussels, Belgium</div>"
        }
      }
    }
  ],
  "type": "document",
  "timestamp": "2023-01-14T05:48:18Z"
}
