{
  "resourceType": "Bundle",
  "id": "d11d3568-09f2-44d6-81db-bda6ab0e593c",
  "meta": {
    "profile": [
      "http://hl7.eu/fhir/laboratory/StructureDefinition/Bundle-eu-lab"
    ]
  },
  "identifier": {
    "assigner": {
      "display": "HL7 Europe"
    },
    "system": "urn:oid:2.16.840.1.113883.2.51.999",
    "value": "a9578c33-f598-46d2-9114-5a9966535c93"
  },
  "entry": [
    {
      "fullUrl": "urn:uuid:8dfa3d48-62e0-47bd-b7f3-7b19054f2aef",
      "resource": {
        "resourceType": "Composition",
        "id": "8dfa3d48-62e0-47bd-b7f3-7b19054f2aef",
        "meta": {
          "profile": [
            "http://hl7.eu/fhir/laboratory/StructureDefinition/Composition-eu-lab"
          ]
        },
        "identifier": {
          "assigner": {
            "display": "HL7 Europe"
          },
          "system": "urn:oid:2.16.840.1.113883.2.51.999",
          "value": "b79b19fe-48b3-430d-954c-256c3cbfcb18"
        },
        "author": [
          {
            "reference": "urn:uuid:367e0095-601d-4d14-8a3d-4e9f4428cbbd"
          }
        ],
        "category": [
          {
            "coding": [
              {
                "code": "26436-6",
                "system": "http://loinc.org",
                "display": "Laboratory studies (set)"
              }
            ]
          }
        ],
        "type": {
          "coding": [
            {
              "code": "11502-2",
              "system": "http://loinc.org",
              "display": "Laboratory report"
            }
          ],
          "text": "Laboratory Report"
        },
        "section": [
          {
            "code": {
              "coding": [
                {
                  "code": "26436-6",
                  "system": "http://loinc.org",
                  "display": "Laboratory studies (set)"
                }
              ],
              "text": "Laboratory studies"
            },
            "section": [
              {
                "code": {
                  "coding": [
                    {
                      "code": "$18719-5",
                      "system": "http://loinc.org",
                      "display": "Chemistry studies (set)"
                    }
                  ],
                  "text": "Chemistry"
                },
                "entry": [
                  {
                    "reference": "urn:uuid:596c550d-4d3a-4f8b-954a-494b80c9d333"
                  },
                  {
                    "reference": "urn:uuid:38907adb-800a-4b39-b7ca-405989c9d25c"
                  },
                  {
                    "reference": "urn:uuid:deca9b5f-d320-4b49-bc19-3aa749f0cc91"
                  },
                  {
                    "reference": "urn:uuid:c017f52a-75fe-4cd2-973c-37c2cc10d251"
                  },
                  {
                    "reference": "urn:uuid:987e788b-1849-4bf2-93ac-91accac90ec5"
                  },
                  {
                    "reference": "urn:uuid:9f54b9ed-1309-4682-973c-e34c205a2ba3"
                  },
                  {
                    "reference": "urn:uuid:1f01d92e-2d7c-4b5d-b56a-41ed6301a3a1"
                  },
                  {
                    "reference": "urn:uuid:22ef6fd7-3e5c-4150-80af-c6babe49aa68"
                  },
                  {
                    "reference": "urn:uuid:8abb7315-a08c-441f-8b32-b38557de7957"
                  },
                  {
                    "reference": "urn:uuid:7c9f7d15-43c7-4432-83cc-ead3ad8b3a4d"
                  },
                  {
                    "reference": "urn:uuid:2bff5e3f-9b89-41af-8b0c-540f81cf2e70"
                  },
                  {
                    "reference": "urn:uuid:00bfda64-2c93-45ca-853c-eb2f7ed336de"
                  },
                  {
                    "reference": "urn:uuid:94859ed2-0e99-4d8d-9cd6-89b61c1ee220"
                  },
                  {
                    "reference": "urn:uuid:2dd72f5d-2305-4da9-926a-d8f470548f97"
                  },
                  {
                    "reference": "urn:uuid:214fff36-5da0-4e08-aadc-5978a311287b"
                  },
                  {
                    "reference": "urn:uuid:3d81b5d4-a4d7-4ffd-a553-75d8aa3ff68a"
                  }
                ],
                "text": {
                  "status": "generated",
                  "div": "<div xmlns=\"http://www.w3.org/1999/xhtml\"><h3>Chemistry</h3><table class=\"hl7__eu__lab__report\"><thead><tr><th>Test</th><th>28-APR-2018</th><th>Reference&#xA0;Range</th><th>Unit</th></tr></thead><tbody><tr><td>Glucose [Mass/volume] in Blood</td><td>93.1</td><td>70 - 140</td><td>mg/dL</td></tr><tr><td>Urea nitrogen [Mass/volume] in Blood</td><td>10.3</td><td>7 - 30</td><td>mg/dL</td></tr><tr><td>Creatinine [Mass/volume] in Blood</td><td><strong>2.5 H</strong></td><td>0.5 - 1.3</td><td>mg/dL</td></tr><tr><td>Calcium [Mass/volume] in Blood</td><td>9.5</td><td>8.6 - 10.2</td><td>mg/dL</td></tr><tr><td>Sodium [Moles/volume] in Blood</td><td>143.5</td><td>135 - 145</td><td>mmol/L</td></tr><tr><td>Potassium [Moles/volume] in Blood</td><td>5.0</td><td>3.5 - 5.1</td><td>mmol/L</td></tr><tr><td>Chloride [Moles/volume] in Blood</td><td>110.6</td><td>98 - 114</td><td>mmol/L</td></tr><tr><td>Carbon dioxide, total [Moles/volume] in Blood</td><td>24.6</td><td>22 - 32</td><td>mmol/L</td></tr><tr><td>Protein [Mass/volume] in Serum or Plasma</td><td>6.8</td><td>6 - 8.3</td><td>g/dL</td></tr><tr><td>Albumin [Mass/volume] in Serum or Plasma</td><td>5.0</td><td>3.5 - 5.5</td><td>g/dL</td></tr><tr><td>Globulin [Mass/volume] in Serum by calculation</td><td>2.0</td><td>2 - 3.5</td><td>g/L</td></tr><tr><td>Bilirubin.total [Mass/volume] in Serum or Plasma</td><td>0.6</td><td>0.3 - 1.2</td><td>mg/dL</td></tr><tr><td>Alkaline phosphatase [Enzymatic activity/volume] in Serum or Plasma</td><td>89.0</td><td>44 - 142</td><td>U/L</td></tr><tr><td>Alanine aminotransferase [Enzymatic activity/volume] in Serum or Plasma</td><td>25.4</td><td>7 - 40</td><td>U/L</td></tr><tr><td>Aspartate aminotransferase [Enzymatic activity/volume] in Serum or Plasma</td><td>38.5</td><td>10 - 40</td><td>U/L</td></tr><tr><td>Ketones [Presence] in Urine by Test strip</td><td>Urine ketone test = +++</td><td></td><td></td></tr></tbody></table></div>"
                },
                "title": "Chemistry"
              },
              {
                "code": {
                  "coding": [
                    {
                      "code": "$18729-4",
                      "system": "http://loinc.org",
                      "display": "Urinalysis studies (set)"
                    }
                  ],
                  "text": "Urinalysis"
                },
                "entry": [
                  {
                    "reference": "urn:uuid:79cfb5e0-02ef-4812-a8dc-53856a2ea0e8"
                  },
                  {
                    "reference": "urn:uuid:0e079b53-5f08-4d95-9655-cfad91aa1009"
                  },
                  {
                    "reference": "urn:uuid:b99cf340-adfe-4619-98e9-1c9f829bd5f0"
                  },
                  {
                    "reference": "urn:uuid:9100727c-9bda-43fc-801f-d1baf051a515"
                  },
                  {
                    "reference": "urn:uuid:0f197f7a-610c-4f35-a84a-3702dc4d346f"
                  },
                  {
                    "reference": "urn:uuid:a94ed3ed-2f0c-4e3f-81a1-86ea66657b43"
                  },
                  {
                    "reference": "urn:uuid:f096cf5b-cf70-4755-bb9d-24bf8aee62d3"
                  },
                  {
                    "reference": "urn:uuid:fa8c1618-b2bb-4b87-80f8-3e9a1ec261a4"
                  },
                  {
                    "reference": "urn:uuid:0563d21c-6039-49f6-bbf9-caf044018ff4"
                  },
                  {
                    "reference": "urn:uuid:b4738a47-5398-4d7a-8499-cfa35ee0688f"
                  },
                  {
                    "reference": "urn:uuid:5e07edf2-bdaa-471c-8345-67af3015c611"
                  },
                  {
                    "reference": "urn:uuid:b4325121-8d38-4bf7-a1ef-b796fb3274b8"
                  }
                ],
                "text": {
                  "status": "generated",
                  "div": "<div xmlns=\"http://www.w3.org/1999/xhtml\"><h3>Urinalysis</h3><table class=\"hl7__eu__lab__report\"><thead><tr><th>Test</th><th>28-APR-2018</th><th>Reference&#xA0;Range</th><th>Unit</th></tr></thead><tbody><tr><td>Glucose [Mass/volume] in Urine by Test strip</td><td><strong>1.5 H</strong></td><td>0.8 - 0</td><td>mg/dL</td></tr><tr><td>Glucose [Presence] in Urine by Test strip</td><td>++</td><td></td><td></td></tr><tr><td>Bilirubin.total [Mass/volume] in Urine by Test strip</td><td>1.2</td><td>0 - 1.5</td><td>mg/dL</td></tr><tr><td>Bilirubin.total [Presence] in Urine by Test strip</td><td>Finding of bilirubin in urine</td><td></td><td></td></tr><tr><td>Ketones [Mass/volume] in Urine by Test strip</td><td><strong>13.2 H</strong></td><td>0 - 8</td><td>mg/dL</td></tr><tr><td>Specific gravity of Urine by Test strip</td><td><strong>1.0 L</strong></td><td>1.01 - 1.03</td><td>{nominal}</td></tr><tr><td>pH of Urine by Test strip</td><td>6.7</td><td>4.6 - 7.5</td><td>pH</td></tr><tr><td>Protein [Mass/volume] in Urine by Test strip</td><td><strong>417.6 H</strong></td><td>0 - 14</td><td>mg/dL</td></tr><tr><td>Protein [Presence] in Urine by Test strip</td><td>Urine protein test = +++</td><td></td><td></td></tr><tr><td>Nitrite [Presence] in Urine by Test strip</td><td>Urine nitrite negative</td><td></td><td></td></tr><tr><td>Hemoglobin [Presence] in Urine by Test strip</td><td>Urine blood test = negative</td><td></td><td></td></tr><tr><td>Leukocyte esterase [Presence] in Urine by Test strip</td><td>Urine leukocyte test negative</td><td></td><td></td></tr></tbody></table></div>"
                },
                "title": "Urinalysis"
              },
              {
                "code": {
                  "coding": [
                    {
                      "code": "$LP7846-1",
                      "system": "http://loinc.org",
                      "display": "Specimen information"
                    }
                  ],
                  "text": "Specimen information"
                },
                "entry": [
                  {
                    "reference": "urn:uuid:8635fa7a-5b94-4459-9c54-c4bbb49e9ce1"
                  },
                  {
                    "reference": "urn:uuid:a7a99451-35ce-4a77-859c-890ddc53381e"
                  },
                  {
                    "reference": "urn:uuid:690d70e1-5f18-4c2d-b2e6-a90333a6a4f2"
                  },
                  {
                    "reference": "urn:uuid:6db259dd-ddda-4894-ae55-37a73e86b619"
                  }
                ],
                "text": {
                  "status": "generated",
                  "div": "<div xmlns=\"http://www.w3.org/1999/xhtml\"><h3>Specimen information</h3><table class=\"hl7__eu__lab__report\"><thead><tr><th>Test</th><th>28-APR-2018</th><th>Specimen</th><th></th></tr></thead><tbody><tr><td>Appearance of Urine</td><td>Cloudy urine</td><td>Urine</td><td></td></tr><tr><td>Odor of Urine</td><td>Urine smell ammoniacal</td><td>Urine</td><td></td></tr><tr><td>Clarity of Urine</td><td>Translucent</td><td>Urine</td><td></td></tr><tr><td>Color of Urine</td><td>Brown color</td><td>Urine</td><td></td></tr></tbody></table></div>"
                },
                "title": "Specimen information"
              }
            ],
            "title": "Laboratory Report"
          },
          {
            "text": {
              "status": "generated",
              "div": "<div xmlns=\"http://www.w3.org/1999/xhtml\"><h3>Annotation</h3><table class=\"hl7__eu__lab__report\"><tr><th>Conclusion and Recommendations based on this report and previous findings known to us</th></tr><tr><td>The patient shows significantly elevated serum creatinine, indicating impaired renal function. Urinalysis reveals marked proteinuria, glucosuria, and ketonuria, with low specific gravity and abnormal urine appearance (cloudy, brown, ammoniacal odor), suggesting possible nephrotic syndrome or acute/chronic kidney injury with tubular dysfunction. No evidence of urinary tract infection. Further nephrological evaluation is recommended.</td></tr></table></div>"
            },
            "code": {
              "coding": [
                {
                  "system": "http://loinc.org",
                  "code": "48767-8",
                  "display": "Annotation comment"
                }
              ]
            },
            "title": "Annotation comment"
          }
        ],
        "status": "final",
        "subject": {
          "reference": "urn:uuid:8c1cca03-1957-4b4a-8faf-ddce64f5fba7",
          "display": "Maria Nohlmans"
        },
        "date": "2018-04-28T00:33:39Z",
        "title": "Laboratory Report",
        "confidentiality": "N"
      }
    },
    {
      "fullUrl": "urn:uuid:867cd453-e115-4c69-89e4-e853d65240ee",
      "resource": {
        "resourceType": "DiagnosticReport",
        "id": "867cd453-e115-4c69-89e4-e853d65240ee",
        "meta": {
          "profile": [
            "http://hl7.eu/fhir/laboratory/StructureDefinition/DiagnosticReport-eu-lab"
          ]
        },
        "identifier": [
          {
            "assigner": {
              "display": "HL7 Europe"
            },
            "system": "urn:oid:2.16.840.1.113883.2.51.999",
            "value": "35e66e67-2f34-4e90-a8f8-15a879d6a7aa"
          }
        ],
        "extension": [
          {
            "url": "http://hl7.org/fhir/5.0/StructureDefinition/extension-DiagnosticReport.composition",
            "valueReference": {
              "reference": "urn:uuid:b79b19fe-48b3-430d-954c-256c3cbfcb18"
            }
          }
        ],
        "category": [
          {
            "coding": [
              {
                "code": "26436-6",
                "system": "http://loinc.org",
                "display": "Laboratory studies (set)"
              }
            ]
          }
        ],
        "specimen": [
          {
            "reference": "urn:uuid:9494fc28-693d-4f9e-8433-bca091424015"
          },
          {
            "reference": "urn:uuid:fb90625d-1a02-4f9e-9d12-3d1c7fb0218a"
          },
          {
            "reference": "urn:uuid:b7199331-5d36-4d8c-bd98-36e1a47d75b9"
          },
          {
            "reference": "urn:uuid:ab5f99b3-e764-456b-8111-ffd9fa09926b"
          }
        ],
        "result": [
          {
            "reference": "urn:uuid:596c550d-4d3a-4f8b-954a-494b80c9d333"
          },
          {
            "reference": "urn:uuid:38907adb-800a-4b39-b7ca-405989c9d25c"
          },
          {
            "reference": "urn:uuid:deca9b5f-d320-4b49-bc19-3aa749f0cc91"
          },
          {
            "reference": "urn:uuid:c017f52a-75fe-4cd2-973c-37c2cc10d251"
          },
          {
            "reference": "urn:uuid:987e788b-1849-4bf2-93ac-91accac90ec5"
          },
          {
            "reference": "urn:uuid:9f54b9ed-1309-4682-973c-e34c205a2ba3"
          },
          {
            "reference": "urn:uuid:1f01d92e-2d7c-4b5d-b56a-41ed6301a3a1"
          },
          {
            "reference": "urn:uuid:22ef6fd7-3e5c-4150-80af-c6babe49aa68"
          },
          {
            "reference": "urn:uuid:8abb7315-a08c-441f-8b32-b38557de7957"
          },
          {
            "reference": "urn:uuid:7c9f7d15-43c7-4432-83cc-ead3ad8b3a4d"
          },
          {
            "reference": "urn:uuid:2bff5e3f-9b89-41af-8b0c-540f81cf2e70"
          },
          {
            "reference": "urn:uuid:00bfda64-2c93-45ca-853c-eb2f7ed336de"
          },
          {
            "reference": "urn:uuid:94859ed2-0e99-4d8d-9cd6-89b61c1ee220"
          },
          {
            "reference": "urn:uuid:2dd72f5d-2305-4da9-926a-d8f470548f97"
          },
          {
            "reference": "urn:uuid:214fff36-5da0-4e08-aadc-5978a311287b"
          },
          {
            "reference": "urn:uuid:8635fa7a-5b94-4459-9c54-c4bbb49e9ce1"
          },
          {
            "reference": "urn:uuid:a7a99451-35ce-4a77-859c-890ddc53381e"
          },
          {
            "reference": "urn:uuid:690d70e1-5f18-4c2d-b2e6-a90333a6a4f2"
          },
          {
            "reference": "urn:uuid:6db259dd-ddda-4894-ae55-37a73e86b619"
          },
          {
            "reference": "urn:uuid:79cfb5e0-02ef-4812-a8dc-53856a2ea0e8"
          },
          {
            "reference": "urn:uuid:0e079b53-5f08-4d95-9655-cfad91aa1009"
          },
          {
            "reference": "urn:uuid:b99cf340-adfe-4619-98e9-1c9f829bd5f0"
          },
          {
            "reference": "urn:uuid:9100727c-9bda-43fc-801f-d1baf051a515"
          },
          {
            "reference": "urn:uuid:0f197f7a-610c-4f35-a84a-3702dc4d346f"
          },
          {
            "reference": "urn:uuid:3d81b5d4-a4d7-4ffd-a553-75d8aa3ff68a"
          },
          {
            "reference": "urn:uuid:a94ed3ed-2f0c-4e3f-81a1-86ea66657b43"
          },
          {
            "reference": "urn:uuid:f096cf5b-cf70-4755-bb9d-24bf8aee62d3"
          },
          {
            "reference": "urn:uuid:fa8c1618-b2bb-4b87-80f8-3e9a1ec261a4"
          },
          {
            "reference": "urn:uuid:0563d21c-6039-49f6-bbf9-caf044018ff4"
          },
          {
            "reference": "urn:uuid:b4738a47-5398-4d7a-8499-cfa35ee0688f"
          },
          {
            "reference": "urn:uuid:5e07edf2-bdaa-471c-8345-67af3015c611"
          },
          {
            "reference": "urn:uuid:b4325121-8d38-4bf7-a1ef-b796fb3274b8"
          }
        ],
        "status": "registered",
        "code": {
          "coding": [
            {
              "code": "11502-2",
              "system": "http://loinc.org",
              "display": "Laboratory report"
            }
          ]
        },
        "subject": {
          "reference": "urn:uuid:8c1cca03-1957-4b4a-8faf-ddce64f5fba7",
          "display": "Maria Nohlmans"
        }
      }
    },
    {
      "fullUrl": "urn:uuid:8c1cca03-1957-4b4a-8faf-ddce64f5fba7",
      "resource": {
        "resourceType": "Patient",
        "id": "8c1cca03-1957-4b4a-8faf-ddce64f5fba7",
        "meta": {
          "security": [
            {
              "system": "http://terminology.hl7.org/CodeSystem/v3-ActReason",
              "code": "HTEST"
            },
            {
              "system": "http://terminology.hl7.org/CodeSystem/v3-ActReason",
              "code": "TRAIN"
            }
          ],
          "tag": [
            {
              "system": "https://synderai.net/fhir/CodeSystem/tags",
              "code": "synthetic",
              "display": "SYNDERAI Synthetic data"
            }
          ],
          "profile": [
            "http://hl7.eu/fhir/base/StructureDefinition/patient-eu-core"
          ]
        },
        "identifier": [
          {
            "type": {
              "coding": [
                {
                  "code": "PT",
                  "system": "http://terminology.hl7.org/CodeSystem/v2-0203"
                }
              ]
            },
            "system": "http://ec.europa.eu/identifier/eci",
            "value": "6886-506417-1"
          },
          {
            "type": {
              "coding": [
                {
                  "code": "MR",
                  "system": "http://terminology.hl7.org/CodeSystem/v2-0203"
                }
              ]
            },
            "system": "http://local.setting.eu/identifier",
            "value": "2cb21ed6-b617-b1f3-2290-589a710de5ee"
          }
        ],
        "name": [
          {
            "family": "Nohlmans"
          },
          {
            "given": [
              "Maria"
            ]
          },
          {
            "text": "Maria Nohlmans"
          }
        ],
        "address": [
          {
            "line": [
              "Alfons-Wulff-Weg 1"
            ],
            "use": "home",
            "type": "physical",
            "postalCode": "25813",
            "city": "Husum",
            "country": "Germany"
          }
        ],
        "telecom": [
          {
            "system": "phone",
            "value": "+49(0)1911 105501"
          }
        ],
        "extension": [
          {
            "url": "http://hl7.org/fhir/StructureDefinition/patient-nationality",
            "valueCodeableConcept": {
              "coding": [
                {
                  "code": "DE",
                  "system": "http://hl7.org/fhir/ValueSet/country"
                }
              ]
            }
          }
        ],
        "text": {
          "status": "generated",
          "div": "<div xmlns=\"http://www.w3.org/1999/xhtml\"><table class=\"hl7__ips\"><tr><td>Maria Nohlmans</td><td>female</td><td>11-Jun-1947</td></tr></table></div>"
        },
        "gender": "female",
        "birthDate": "1947-06-11"
      }
    },
    {
      "fullUrl": "urn:uuid:99571493-45fa-4124-b0fe-e5a90ab1f712",
      "resource": {
        "resourceType": "ServiceRequest",
        "id": "99571493-45fa-4124-b0fe-e5a90ab1f712",
        "meta": {
          "profile": [
            "http://hl7.eu/fhir/laboratory/StructureDefinition/ServiceRequest-eu-lab"
          ]
        },
        "identifier": [
          {
            "system": "http://example.org",
            "value": "9c8f2f71-d296-40a6-b868-4d8ba3e5ea80"
          }
        ],
        "specimen": [
          {
            "reference": "urn:uuid:9494fc28-693d-4f9e-8433-bca091424015"
          },
          {
            "reference": "urn:uuid:fb90625d-1a02-4f9e-9d12-3d1c7fb0218a"
          },
          {
            "reference": "urn:uuid:b7199331-5d36-4d8c-bd98-36e1a47d75b9"
          },
          {
            "reference": "urn:uuid:ab5f99b3-e764-456b-8111-ffd9fa09926b"
          }
        ],
        "reasonCode": [
          {
            "coding": [
              {
                "code": "401314000",
                "system": "http://snomed.info/sct",
                "display": "Acute non-ST segment elevation myocardial infarction"
              }
            ]
          },
          {
            "coding": [
              {
                "code": "157141000119108",
                "system": "http://snomed.info/sct",
                "display": "Proteinuria due to type 2 diabetes mellitus"
              }
            ]
          },
          {
            "coding": [
              {
                "code": "237602007",
                "system": "http://snomed.info/sct",
                "display": "Metabolic syndrome X"
              }
            ]
          },
          {
            "coding": [
              {
                "code": "90781000119102",
                "system": "http://snomed.info/sct",
                "display": "Microalbuminuria due to type 2 diabetes mellitus"
              }
            ]
          },
          {
            "coding": [
              {
                "code": "127013003",
                "system": "http://snomed.info/sct",
                "display": "Disorder of kidney due to diabetes mellitus"
              }
            ]
          },
          {
            "coding": [
              {
                "code": "59621000",
                "system": "http://snomed.info/sct",
                "display": "Essential hypertension"
              }
            ]
          },
          {
            "coding": [
              {
                "code": "271737000",
                "system": "http://snomed.info/sct",
                "display": "Anemia"
              }
            ]
          },
          {
            "coding": [
              {
                "code": "15777000",
                "system": "http://snomed.info/sct",
                "display": "Prediabetes"
              }
            ]
          }
        ],
        "status": "active",
        "intent": "order",
        "code": {
          "coding": [
            {
              "code": "108252007",
              "system": "http://snomed.info/sct",
              "display": "Laboratory procedure"
            }
          ]
        },
        "subject": {
          "reference": "urn:uuid:8c1cca03-1957-4b4a-8faf-ddce64f5fba7",
          "display": "Maria Nohlmans"
        },
        "requester": {
          "reference": "urn:uuid:36b00b73-0a04-4eb6-8418-b721bed1c363"
        }
      }
    },
    {
      "fullUrl": "urn:uuid:36b00b73-0a04-4eb6-8418-b721bed1c363",
      "resource": {
        "resourceType": "PractitionerRole",
        "id": "36b00b73-0a04-4eb6-8418-b721bed1c363",
        "meta": {
          "profile": [
            "http://hl7.eu/fhir/base/StructureDefinition/practitionerRole-eu"
          ]
        },
        "text": {
          "status": "generated",
          "div": "<div xmlns=\"http://www.w3.org/1999/xhtml\">Provider Role Id: 36b00b73-0a04-4eb6-8418-b721bed1c363</div>"
        },
        "organization": {
          "reference": "urn:uuid:900ae800-c6f9-4030-b33d-b6be43bf5dfb"
        }
      }
    },
    {
      "fullUrl": "urn:uuid:900ae800-c6f9-4030-b33d-b6be43bf5dfb",
      "resource": {
        "resourceType": "Organization",
        "id": "900ae800-c6f9-4030-b33d-b6be43bf5dfb",
        "meta": {
          "profile": [
            "http://hl7.eu/fhir/base/StructureDefinition/organization-eu"
          ]
        },
        "identifier": [
          {
            "assigner": {
              "display": "HL7 Europe"
            },
            "system": "urn:oid:2.16.840.1.113883.2.51.999",
            "value": "cc9c7979-7086-4eee-b075-8e8fe70fe484"
          }
        ],
        "address": [
          {
            "line": [
              "Brinckmannstraße 35"
            ],
            "city": "Husum",
            "postalCode": "25813",
            "country": "Germany"
          }
        ],
        "text": {
          "status": "generated",
          "div": "<div xmlns=\"http://www.w3.org/1999/xhtml\">Provider Organization: Dr. Wolfram Hussels Kieferorthopäde</div>"
        },
        "name": "Dr. Wolfram Hussels Kieferorthopäde"
      }
    },
    {
      "fullUrl": "urn:uuid:9494fc28-693d-4f9e-8433-bca091424015",
      "resource": {
        "resourceType": "Specimen",
        "id": "9494fc28-693d-4f9e-8433-bca091424015",
        "meta": {
          "profile": [
            "http://hl7.eu/fhir/laboratory/StructureDefinition/Specimen-eu-lab"
          ]
        },
        "collection": {
          "collectedDateTime": "2018-04-27"
        },
        "text": {
          "status": "generated",
          "div": "<div xmlns=\"http://www.w3.org/1999/xhtml\"><table class=\"hl7__eu__lab__report\"><tr><th>Specimen</th><th>Collection Date</th></tr><tr><td>Whole blood specimen (specimen)</td><td><span class=\"nb\">27-Apr-2018</span></td></tr></table></div>"
        },
        "type": {
          "coding": [
            {
              "code": "258580003",
              "system": "http://snomed.info/sct",
              "display": "Whole blood specimen (specimen)"
            }
          ]
        }
      }
    },
    {
      "fullUrl": "urn:uuid:fb90625d-1a02-4f9e-9d12-3d1c7fb0218a",
      "resource": {
        "resourceType": "Specimen",
        "id": "fb90625d-1a02-4f9e-9d12-3d1c7fb0218a",
        "meta": {
          "profile": [
            "http://hl7.eu/fhir/laboratory/StructureDefinition/Specimen-eu-lab"
          ]
        },
        "collection": {
          "collectedDateTime": "2018-04-27"
        },
        "text": {
          "status": "generated",
          "div": "<div xmlns=\"http://www.w3.org/1999/xhtml\"><table class=\"hl7__eu__lab__report\"><tr><th>Specimen</th><th>Collection Date</th></tr><tr><td>Acellular blood (serum or plasma) specimen</td><td><span class=\"nb\">27-Apr-2018</span></td></tr></table></div>"
        },
        "type": {
          "coding": [
            {
              "code": "122592007",
              "system": "http://snomed.info/sct",
              "display": "Acellular blood (serum or plasma) specimen"
            }
          ]
        }
      }
    },
    {
      "fullUrl": "urn:uuid:b7199331-5d36-4d8c-bd98-36e1a47d75b9",
      "resource": {
        "resourceType": "Specimen",
        "id": "b7199331-5d36-4d8c-bd98-36e1a47d75b9",
        "meta": {
          "profile": [
            "http://hl7.eu/fhir/laboratory/StructureDefinition/Specimen-eu-lab"
          ]
        },
        "collection": {
          "collectedDateTime": "2018-04-27"
        },
        "text": {
          "status": "generated",
          "div": "<div xmlns=\"http://www.w3.org/1999/xhtml\"><table class=\"hl7__eu__lab__report\"><tr><th>Specimen</th><th>Collection Date</th></tr><tr><td>Serum specimen</td><td><span class=\"nb\">27-Apr-2018</span></td></tr></table></div>"
        },
        "type": {
          "coding": [
            {
              "code": "119364003",
              "system": "http://snomed.info/sct",
              "display": "Serum specimen"
            }
          ]
        }
      }
    },
    {
      "fullUrl": "urn:uuid:ab5f99b3-e764-456b-8111-ffd9fa09926b",
      "resource": {
        "resourceType": "Specimen",
        "id": "ab5f99b3-e764-456b-8111-ffd9fa09926b",
        "meta": {
          "profile": [
            "http://hl7.eu/fhir/laboratory/StructureDefinition/Specimen-eu-lab"
          ]
        },
        "collection": {
          "collectedDateTime": "2018-04-27"
        },
        "text": {
          "status": "generated",
          "div": "<div xmlns=\"http://www.w3.org/1999/xhtml\"><table class=\"hl7__eu__lab__report\"><tr><th>Specimen</th><th>Collection Date</th></tr><tr><td>Urine specimen</td><td><span class=\"nb\">27-Apr-2018</span></td></tr></table></div>"
        },
        "type": {
          "coding": [
            {
              "code": "122575003",
              "system": "http://snomed.info/sct",
              "display": "Urine specimen"
            }
          ]
        }
      }
    },
    {
      "fullUrl": "urn:uuid:596c550d-4d3a-4f8b-954a-494b80c9d333",
      "resource": {
        "resourceType": "Observation",
        "id": "596c550d-4d3a-4f8b-954a-494b80c9d333",
        "meta": {
          "profile": [
            "http://hl7.eu/fhir/laboratory/StructureDefinition/Observation-resultslab-eu-lab"
          ]
        },
        "performer": [
          {
            "display": "The Central European Lab"
          }
        ],
        "category": [
          {
            "coding": [
              {
                "system": "http://terminology.hl7.org/CodeSystem/observation-category",
                "code": "laboratory"
              }
            ]
          }
        ],
        "code": {
          "coding": [
            {
              "code": "2339-0",
              "system": "http://loinc.org",
              "display": "Glucose [Mass/volume] in Blood"
            }
          ],
          "text": "Glucose [Mass/volume] in Blood"
        },
        "valueQuantity": {
          "system": "http://unitsofmeasure.org",
          "value": 93.1,
          "unit": "mg/dL",
          "code": "mg/dL"
        },
        "referenceRange": [
          {
            "low": {
              "value": 70,
              "code": "mg/dL",
              "system": "http://unitsofmeasure.org"
            }
          },
          {
            "high": {
              "value": 140,
              "code": "mg/dL",
              "system": "http://unitsofmeasure.org"
            }
          }
        ],
        "text": {
          "status": "generated",
          "div": "<div xmlns=\"http://www.w3.org/1999/xhtml\"><table class=\"hl7__eu__lab__report\"><tr><th>Test</th><th>28-Apr-2018</th><th>Reference&#xA0;Range</th><th>Unit</th></tr><tr><td>Glucose [Mass/volume] in Blood</td><td>93.1</td><td>70 - 140</td><td></td><td>mg/dL</td></tr></table></div>"
        },
        "status": "final",
        "subject": {
          "reference": "urn:uuid:8c1cca03-1957-4b4a-8faf-ddce64f5fba7",
          "display": "Maria Nohlmans"
        },
        "effectiveDateTime": "2018-04-27T22:33:39Z",
        "specimen": {
          "reference": "urn:uuid:9494fc28-693d-4f9e-8433-bca091424015"
        }
      }
    },
    {
      "fullUrl": "urn:uuid:38907adb-800a-4b39-b7ca-405989c9d25c",
      "resource": {
        "resourceType": "Observation",
        "id": "38907adb-800a-4b39-b7ca-405989c9d25c",
        "meta": {
          "profile": [
            "http://hl7.eu/fhir/laboratory/StructureDefinition/Observation-resultslab-eu-lab"
          ]
        },
        "performer": [
          {
            "display": "The Central European Lab"
          }
        ],
        "category": [
          {
            "coding": [
              {
                "system": "http://terminology.hl7.org/CodeSystem/observation-category",
                "code": "laboratory"
              }
            ]
          }
        ],
        "code": {
          "coding": [
            {
              "code": "6299-2",
              "system": "http://loinc.org",
              "display": "Urea nitrogen [Mass/volume] in Blood"
            }
          ],
          "text": "Urea nitrogen [Mass/volume] in Blood"
        },
        "valueQuantity": {
          "system": "http://unitsofmeasure.org",
          "value": 10.3,
          "unit": "mg/dL",
          "code": "mg/dL"
        },
        "referenceRange": [
          {
            "low": {
              "value": 7,
              "code": "mg/dL",
              "system": "http://unitsofmeasure.org"
            }
          },
          {
            "high": {
              "value": 30,
              "code": "mg/dL",
              "system": "http://unitsofmeasure.org"
            }
          }
        ],
        "text": {
          "status": "generated",
          "div": "<div xmlns=\"http://www.w3.org/1999/xhtml\"><table class=\"hl7__eu__lab__report\"><tr><th>Test</th><th>28-Apr-2018</th><th>Reference&#xA0;Range</th><th>Unit</th></tr><tr><td>Urea nitrogen [Mass/volume] in Blood</td><td>10.3</td><td>7 - 30</td><td></td><td>mg/dL</td></tr></table></div>"
        },
        "status": "final",
        "subject": {
          "reference": "urn:uuid:8c1cca03-1957-4b4a-8faf-ddce64f5fba7",
          "display": "Maria Nohlmans"
        },
        "effectiveDateTime": "2018-04-27T22:33:39Z",
        "specimen": {
          "reference": "urn:uuid:9494fc28-693d-4f9e-8433-bca091424015"
        }
      }
    },
    {
      "fullUrl": "urn:uuid:deca9b5f-d320-4b49-bc19-3aa749f0cc91",
      "resource": {
        "resourceType": "Observation",
        "id": "deca9b5f-d320-4b49-bc19-3aa749f0cc91",
        "meta": {
          "profile": [
            "http://hl7.eu/fhir/laboratory/StructureDefinition/Observation-resultslab-eu-lab"
          ]
        },
        "performer": [
          {
            "display": "The Central European Lab"
          }
        ],
        "category": [
          {
            "coding": [
              {
                "system": "http://terminology.hl7.org/CodeSystem/observation-category",
                "code": "laboratory"
              }
            ]
          }
        ],
        "code": {
          "coding": [
            {
              "code": "38483-4",
              "system": "http://loinc.org",
              "display": "Creatinine [Mass/volume] in Blood"
            }
          ],
          "text": "Creatinine [Mass/volume] in Blood"
        },
        "valueQuantity": {
          "system": "http://unitsofmeasure.org",
          "value": 2.5,
          "unit": "mg/dL",
          "code": "mg/dL"
        },
        "referenceRange": [
          {
            "low": {
              "value": 0.5,
              "code": "mg/dL",
              "system": "http://unitsofmeasure.org"
            }
          },
          {
            "high": {
              "value": 1.3,
              "code": "mg/dL",
              "system": "http://unitsofmeasure.org"
            }
          }
        ],
        "interpretation": [
          {
            "coding": [
              {
                "code": "H",
                "system": "http://terminology.hl7.org/CodeSystem/v3-ObservationInterpretation",
                "display": "High"
              }
            ]
          }
        ],
        "text": {
          "status": "generated",
          "div": "<div xmlns=\"http://www.w3.org/1999/xhtml\"><table class=\"hl7__eu__lab__report\"><tr><th>Test</th><th>28-Apr-2018</th><th>Reference&#xA0;Range</th><th>Unit</th></tr><tr><td>Creatinine [Mass/volume] in Blood</td><td>2.5</td><td>0.5 - 1.3</td><td>H</td><td>mg/dL</td></tr></table></div>"
        },
        "status": "final",
        "subject": {
          "reference": "urn:uuid:8c1cca03-1957-4b4a-8faf-ddce64f5fba7",
          "display": "Maria Nohlmans"
        },
        "effectiveDateTime": "2018-04-27T22:33:39Z",
        "specimen": {
          "reference": "urn:uuid:9494fc28-693d-4f9e-8433-bca091424015"
        }
      }
    },
    {
      "fullUrl": "urn:uuid:c017f52a-75fe-4cd2-973c-37c2cc10d251",
      "resource": {
        "resourceType": "Observation",
        "id": "c017f52a-75fe-4cd2-973c-37c2cc10d251",
        "meta": {
          "profile": [
            "http://hl7.eu/fhir/laboratory/StructureDefinition/Observation-resultslab-eu-lab"
          ]
        },
        "performer": [
          {
            "display": "The Central European Lab"
          }
        ],
        "category": [
          {
            "coding": [
              {
                "system": "http://terminology.hl7.org/CodeSystem/observation-category",
                "code": "laboratory"
              }
            ]
          }
        ],
        "code": {
          "coding": [
            {
              "code": "49765-1",
              "system": "http://loinc.org",
              "display": "Calcium [Mass/volume] in Blood"
            }
          ],
          "text": "Calcium [Mass/volume] in Blood"
        },
        "valueQuantity": {
          "system": "http://unitsofmeasure.org",
          "value": 9.5,
          "unit": "mg/dL",
          "code": "mg/dL"
        },
        "referenceRange": [
          {
            "low": {
              "value": 8.6,
              "code": "mg/dL",
              "system": "http://unitsofmeasure.org"
            }
          },
          {
            "high": {
              "value": 10.2,
              "code": "mg/dL",
              "system": "http://unitsofmeasure.org"
            }
          }
        ],
        "text": {
          "status": "generated",
          "div": "<div xmlns=\"http://www.w3.org/1999/xhtml\"><table class=\"hl7__eu__lab__report\"><tr><th>Test</th><th>28-Apr-2018</th><th>Reference&#xA0;Range</th><th>Unit</th></tr><tr><td>Calcium [Mass/volume] in Blood</td><td>9.5</td><td>8.6 - 10.2</td><td></td><td>mg/dL</td></tr></table></div>"
        },
        "status": "final",
        "subject": {
          "reference": "urn:uuid:8c1cca03-1957-4b4a-8faf-ddce64f5fba7",
          "display": "Maria Nohlmans"
        },
        "effectiveDateTime": "2018-04-27T22:33:39Z",
        "specimen": {
          "reference": "urn:uuid:9494fc28-693d-4f9e-8433-bca091424015"
        }
      }
    },
    {
      "fullUrl": "urn:uuid:987e788b-1849-4bf2-93ac-91accac90ec5",
      "resource": {
        "resourceType": "Observation",
        "id": "987e788b-1849-4bf2-93ac-91accac90ec5",
        "meta": {
          "profile": [
            "http://hl7.eu/fhir/laboratory/StructureDefinition/Observation-resultslab-eu-lab"
          ]
        },
        "performer": [
          {
            "display": "The Central European Lab"
          }
        ],
        "category": [
          {
            "coding": [
              {
                "system": "http://terminology.hl7.org/CodeSystem/observation-category",
                "code": "laboratory"
              }
            ]
          }
        ],
        "code": {
          "coding": [
            {
              "code": "2947-0",
              "system": "http://loinc.org",
              "display": "Sodium [Moles/volume] in Blood"
            }
          ],
          "text": "Sodium [Moles/volume] in Blood"
        },
        "valueQuantity": {
          "system": "http://unitsofmeasure.org",
          "value": 143.5,
          "unit": "mmol/L",
          "code": "mmol/L"
        },
        "referenceRange": [
          {
            "low": {
              "value": 135,
              "code": "mmol/L",
              "system": "http://unitsofmeasure.org"
            }
          },
          {
            "high": {
              "value": 145,
              "code": "mmol/L",
              "system": "http://unitsofmeasure.org"
            }
          }
        ],
        "text": {
          "status": "generated",
          "div": "<div xmlns=\"http://www.w3.org/1999/xhtml\"><table class=\"hl7__eu__lab__report\"><tr><th>Test</th><th>28-Apr-2018</th><th>Reference&#xA0;Range</th><th>Unit</th></tr><tr><td>Sodium [Moles/volume] in Blood</td><td>143.5</td><td>135 - 145</td><td></td><td>mmol/L</td></tr></table></div>"
        },
        "status": "final",
        "subject": {
          "reference": "urn:uuid:8c1cca03-1957-4b4a-8faf-ddce64f5fba7",
          "display": "Maria Nohlmans"
        },
        "effectiveDateTime": "2018-04-27T22:33:39Z",
        "specimen": {
          "reference": "urn:uuid:9494fc28-693d-4f9e-8433-bca091424015"
        }
      }
    },
    {
      "fullUrl": "urn:uuid:9f54b9ed-1309-4682-973c-e34c205a2ba3",
      "resource": {
        "resourceType": "Observation",
        "id": "9f54b9ed-1309-4682-973c-e34c205a2ba3",
        "meta": {
          "profile": [
            "http://hl7.eu/fhir/laboratory/StructureDefinition/Observation-resultslab-eu-lab"
          ]
        },
        "performer": [
          {
            "display": "The Central European Lab"
          }
        ],
        "category": [
          {
            "coding": [
              {
                "system": "http://terminology.hl7.org/CodeSystem/observation-category",
                "code": "laboratory"
              }
            ]
          }
        ],
        "code": {
          "coding": [
            {
              "code": "6298-4",
              "system": "http://loinc.org",
              "display": "Potassium [Moles/volume] in Blood"
            }
          ],
          "text": "Potassium [Moles/volume] in Blood"
        },
        "valueQuantity": {
          "system": "http://unitsofmeasure.org",
          "value": 5,
          "unit": "mmol/L",
          "code": "mmol/L"
        },
        "referenceRange": [
          {
            "low": {
              "value": 3.5,
              "code": "mmol/L",
              "system": "http://unitsofmeasure.org"
            }
          },
          {
            "high": {
              "value": 5.1,
              "code": "mmol/L",
              "system": "http://unitsofmeasure.org"
            }
          }
        ],
        "text": {
          "status": "generated",
          "div": "<div xmlns=\"http://www.w3.org/1999/xhtml\"><table class=\"hl7__eu__lab__report\"><tr><th>Test</th><th>28-Apr-2018</th><th>Reference&#xA0;Range</th><th>Unit</th></tr><tr><td>Potassium [Moles/volume] in Blood</td><td>5.0</td><td>3.5 - 5.1</td><td></td><td>mmol/L</td></tr></table></div>"
        },
        "status": "final",
        "subject": {
          "reference": "urn:uuid:8c1cca03-1957-4b4a-8faf-ddce64f5fba7",
          "display": "Maria Nohlmans"
        },
        "effectiveDateTime": "2018-04-27T22:33:39Z",
        "specimen": {
          "reference": "urn:uuid:9494fc28-693d-4f9e-8433-bca091424015"
        }
      }
    },
    {
      "fullUrl": "urn:uuid:1f01d92e-2d7c-4b5d-b56a-41ed6301a3a1",
      "resource": {
        "resourceType": "Observation",
        "id": "1f01d92e-2d7c-4b5d-b56a-41ed6301a3a1",
        "meta": {
          "profile": [
            "http://hl7.eu/fhir/laboratory/StructureDefinition/Observation-resultslab-eu-lab"
          ]
        },
        "performer": [
          {
            "display": "The Central European Lab"
          }
        ],
        "category": [
          {
            "coding": [
              {
                "system": "http://terminology.hl7.org/CodeSystem/observation-category",
                "code": "laboratory"
              }
            ]
          }
        ],
        "code": {
          "coding": [
            {
              "code": "2069-3",
              "system": "http://loinc.org",
              "display": "Chloride [Moles/volume] in Blood"
            }
          ],
          "text": "Chloride [Moles/volume] in Blood"
        },
        "valueQuantity": {
          "system": "http://unitsofmeasure.org",
          "value": 110.6,
          "unit": "mmol/L",
          "code": "mmol/L"
        },
        "referenceRange": [
          {
            "low": {
              "value": 98,
              "code": "mmol/L",
              "system": "http://unitsofmeasure.org"
            }
          },
          {
            "high": {
              "value": 114,
              "code": "mmol/L",
              "system": "http://unitsofmeasure.org"
            }
          }
        ],
        "text": {
          "status": "generated",
          "div": "<div xmlns=\"http://www.w3.org/1999/xhtml\"><table class=\"hl7__eu__lab__report\"><tr><th>Test</th><th>28-Apr-2018</th><th>Reference&#xA0;Range</th><th>Unit</th></tr><tr><td>Chloride [Moles/volume] in Blood</td><td>110.6</td><td>98 - 114</td><td></td><td>mmol/L</td></tr></table></div>"
        },
        "status": "final",
        "subject": {
          "reference": "urn:uuid:8c1cca03-1957-4b4a-8faf-ddce64f5fba7",
          "display": "Maria Nohlmans"
        },
        "effectiveDateTime": "2018-04-27T22:33:39Z",
        "specimen": {
          "reference": "urn:uuid:9494fc28-693d-4f9e-8433-bca091424015"
        }
      }
    },
    {
      "fullUrl": "urn:uuid:22ef6fd7-3e5c-4150-80af-c6babe49aa68",
      "resource": {
        "resourceType": "Observation",
        "id": "22ef6fd7-3e5c-4150-80af-c6babe49aa68",
        "meta": {
          "profile": [
            "http://hl7.eu/fhir/laboratory/StructureDefinition/Observation-resultslab-eu-lab"
          ]
        },
        "performer": [
          {
            "display": "The Central European Lab"
          }
        ],
        "category": [
          {
            "coding": [
              {
                "system": "http://terminology.hl7.org/CodeSystem/observation-category",
                "code": "laboratory"
              }
            ]
          }
        ],
        "code": {
          "coding": [
            {
              "code": "20565-8",
              "system": "http://loinc.org",
              "display": "Carbon dioxide, total [Moles/volume] in Blood"
            }
          ],
          "text": "Carbon dioxide, total [Moles/volume] in Blood"
        },
        "valueQuantity": {
          "system": "http://unitsofmeasure.org",
          "value": 24.6,
          "unit": "mmol/L",
          "code": "mmol/L"
        },
        "referenceRange": [
          {
            "low": {
              "value": 22,
              "code": "mmol/L",
              "system": "http://unitsofmeasure.org"
            }
          },
          {
            "high": {
              "value": 32,
              "code": "mmol/L",
              "system": "http://unitsofmeasure.org"
            }
          }
        ],
        "text": {
          "status": "generated",
          "div": "<div xmlns=\"http://www.w3.org/1999/xhtml\"><table class=\"hl7__eu__lab__report\"><tr><th>Test</th><th>28-Apr-2018</th><th>Reference&#xA0;Range</th><th>Unit</th></tr><tr><td>Carbon dioxide, total [Moles/volume] in Blood</td><td>24.6</td><td>22 - 32</td><td></td><td>mmol/L</td></tr></table></div>"
        },
        "status": "final",
        "subject": {
          "reference": "urn:uuid:8c1cca03-1957-4b4a-8faf-ddce64f5fba7",
          "display": "Maria Nohlmans"
        },
        "effectiveDateTime": "2018-04-27T22:33:39Z",
        "specimen": {
          "reference": "urn:uuid:9494fc28-693d-4f9e-8433-bca091424015"
        }
      }
    },
    {
      "fullUrl": "urn:uuid:8abb7315-a08c-441f-8b32-b38557de7957",
      "resource": {
        "resourceType": "Observation",
        "id": "8abb7315-a08c-441f-8b32-b38557de7957",
        "meta": {
          "profile": [
            "http://hl7.eu/fhir/laboratory/StructureDefinition/Observation-resultslab-eu-lab"
          ]
        },
        "performer": [
          {
            "display": "The Central European Lab"
          }
        ],
        "category": [
          {
            "coding": [
              {
                "system": "http://terminology.hl7.org/CodeSystem/observation-category",
                "code": "laboratory"
              }
            ]
          }
        ],
        "code": {
          "coding": [
            {
              "code": "2885-2",
              "system": "http://loinc.org",
              "display": "Protein [Mass/volume] in Serum or Plasma"
            }
          ],
          "text": "Protein [Mass/volume] in Serum or Plasma"
        },
        "valueQuantity": {
          "system": "http://unitsofmeasure.org",
          "value": 6.8,
          "unit": "g/dL",
          "code": "g/dL"
        },
        "referenceRange": [
          {
            "low": {
              "value": 6,
              "code": "g/dL",
              "system": "http://unitsofmeasure.org"
            }
          },
          {
            "high": {
              "value": 8.3,
              "code": "g/dL",
              "system": "http://unitsofmeasure.org"
            }
          }
        ],
        "text": {
          "status": "generated",
          "div": "<div xmlns=\"http://www.w3.org/1999/xhtml\"><table class=\"hl7__eu__lab__report\"><tr><th>Test</th><th>28-Apr-2018</th><th>Reference&#xA0;Range</th><th>Unit</th></tr><tr><td>Protein [Mass/volume] in Serum or Plasma</td><td>6.8</td><td>6 - 8.3</td><td></td><td>g/dL</td></tr></table></div>"
        },
        "status": "final",
        "subject": {
          "reference": "urn:uuid:8c1cca03-1957-4b4a-8faf-ddce64f5fba7",
          "display": "Maria Nohlmans"
        },
        "effectiveDateTime": "2018-04-27T22:33:39Z",
        "specimen": {
          "reference": "urn:uuid:fb90625d-1a02-4f9e-9d12-3d1c7fb0218a"
        }
      }
    },
    {
      "fullUrl": "urn:uuid:7c9f7d15-43c7-4432-83cc-ead3ad8b3a4d",
      "resource": {
        "resourceType": "Observation",
        "id": "7c9f7d15-43c7-4432-83cc-ead3ad8b3a4d",
        "meta": {
          "profile": [
            "http://hl7.eu/fhir/laboratory/StructureDefinition/Observation-resultslab-eu-lab"
          ]
        },
        "performer": [
          {
            "display": "The Central European Lab"
          }
        ],
        "category": [
          {
            "coding": [
              {
                "system": "http://terminology.hl7.org/CodeSystem/observation-category",
                "code": "laboratory"
              }
            ]
          }
        ],
        "code": {
          "coding": [
            {
              "code": "1751-7",
              "system": "http://loinc.org",
              "display": "Albumin [Mass/volume] in Serum or Plasma"
            }
          ],
          "text": "Albumin [Mass/volume] in Serum or Plasma"
        },
        "valueQuantity": {
          "system": "http://unitsofmeasure.org",
          "value": 5,
          "unit": "g/dL",
          "code": "g/dL"
        },
        "referenceRange": [
          {
            "low": {
              "value": 3.5,
              "code": "g/dL",
              "system": "http://unitsofmeasure.org"
            }
          },
          {
            "high": {
              "value": 5.5,
              "code": "g/dL",
              "system": "http://unitsofmeasure.org"
            }
          }
        ],
        "text": {
          "status": "generated",
          "div": "<div xmlns=\"http://www.w3.org/1999/xhtml\"><table class=\"hl7__eu__lab__report\"><tr><th>Test</th><th>28-Apr-2018</th><th>Reference&#xA0;Range</th><th>Unit</th></tr><tr><td>Albumin [Mass/volume] in Serum or Plasma</td><td>5.0</td><td>3.5 - 5.5</td><td></td><td>g/dL</td></tr></table></div>"
        },
        "status": "final",
        "subject": {
          "reference": "urn:uuid:8c1cca03-1957-4b4a-8faf-ddce64f5fba7",
          "display": "Maria Nohlmans"
        },
        "effectiveDateTime": "2018-04-27T22:33:39Z",
        "specimen": {
          "reference": "urn:uuid:fb90625d-1a02-4f9e-9d12-3d1c7fb0218a"
        }
      }
    },
    {
      "fullUrl": "urn:uuid:2bff5e3f-9b89-41af-8b0c-540f81cf2e70",
      "resource": {
        "resourceType": "Observation",
        "id": "2bff5e3f-9b89-41af-8b0c-540f81cf2e70",
        "meta": {
          "profile": [
            "http://hl7.eu/fhir/laboratory/StructureDefinition/Observation-resultslab-eu-lab"
          ]
        },
        "performer": [
          {
            "display": "The Central European Lab"
          }
        ],
        "category": [
          {
            "coding": [
              {
                "system": "http://terminology.hl7.org/CodeSystem/observation-category",
                "code": "laboratory"
              }
            ]
          }
        ],
        "code": {
          "coding": [
            {
              "code": "10834-0",
              "system": "http://loinc.org",
              "display": "Globulin [Mass/volume] in Serum by calculation"
            }
          ],
          "text": "Globulin [Mass/volume] in Serum by calculation"
        },
        "valueQuantity": {
          "system": "http://unitsofmeasure.org",
          "value": 2,
          "unit": "g/L",
          "code": "g/L"
        },
        "referenceRange": [
          {
            "low": {
              "value": 2,
              "code": "g/L",
              "system": "http://unitsofmeasure.org"
            }
          },
          {
            "high": {
              "value": 3.5,
              "code": "g/L",
              "system": "http://unitsofmeasure.org"
            }
          }
        ],
        "text": {
          "status": "generated",
          "div": "<div xmlns=\"http://www.w3.org/1999/xhtml\"><table class=\"hl7__eu__lab__report\"><tr><th>Test</th><th>28-Apr-2018</th><th>Reference&#xA0;Range</th><th>Unit</th></tr><tr><td>Globulin [Mass/volume] in Serum by calculation</td><td>2.0</td><td>2 - 3.5</td><td></td><td>g/L</td></tr></table></div>"
        },
        "status": "final",
        "subject": {
          "reference": "urn:uuid:8c1cca03-1957-4b4a-8faf-ddce64f5fba7",
          "display": "Maria Nohlmans"
        },
        "effectiveDateTime": "2018-04-27T22:33:39Z",
        "specimen": {
          "reference": "urn:uuid:b7199331-5d36-4d8c-bd98-36e1a47d75b9"
        }
      }
    },
    {
      "fullUrl": "urn:uuid:00bfda64-2c93-45ca-853c-eb2f7ed336de",
      "resource": {
        "resourceType": "Observation",
        "id": "00bfda64-2c93-45ca-853c-eb2f7ed336de",
        "meta": {
          "profile": [
            "http://hl7.eu/fhir/laboratory/StructureDefinition/Observation-resultslab-eu-lab"
          ]
        },
        "performer": [
          {
            "display": "The Central European Lab"
          }
        ],
        "category": [
          {
            "coding": [
              {
                "system": "http://terminology.hl7.org/CodeSystem/observation-category",
                "code": "laboratory"
              }
            ]
          }
        ],
        "code": {
          "coding": [
            {
              "code": "1975-2",
              "system": "http://loinc.org",
              "display": "Bilirubin.total [Mass/volume] in Serum or Plasma"
            }
          ],
          "text": "Bilirubin.total [Mass/volume] in Serum or Plasma"
        },
        "valueQuantity": {
          "system": "http://unitsofmeasure.org",
          "value": 0.6,
          "unit": "mg/dL",
          "code": "mg/dL"
        },
        "referenceRange": [
          {
            "low": {
              "value": 0.3,
              "code": "mg/dL",
              "system": "http://unitsofmeasure.org"
            }
          },
          {
            "high": {
              "value": 1.2,
              "code": "mg/dL",
              "system": "http://unitsofmeasure.org"
            }
          }
        ],
        "text": {
          "status": "generated",
          "div": "<div xmlns=\"http://www.w3.org/1999/xhtml\"><table class=\"hl7__eu__lab__report\"><tr><th>Test</th><th>28-Apr-2018</th><th>Reference&#xA0;Range</th><th>Unit</th></tr><tr><td>Bilirubin.total [Mass/volume] in Serum or Plasma</td><td>0.6</td><td>0.3 - 1.2</td><td></td><td>mg/dL</td></tr></table></div>"
        },
        "status": "final",
        "subject": {
          "reference": "urn:uuid:8c1cca03-1957-4b4a-8faf-ddce64f5fba7",
          "display": "Maria Nohlmans"
        },
        "effectiveDateTime": "2018-04-27T22:33:39Z",
        "specimen": {
          "reference": "urn:uuid:fb90625d-1a02-4f9e-9d12-3d1c7fb0218a"
        }
      }
    },
    {
      "fullUrl": "urn:uuid:94859ed2-0e99-4d8d-9cd6-89b61c1ee220",
      "resource": {
        "resourceType": "Observation",
        "id": "94859ed2-0e99-4d8d-9cd6-89b61c1ee220",
        "meta": {
          "profile": [
            "http://hl7.eu/fhir/laboratory/StructureDefinition/Observation-resultslab-eu-lab"
          ]
        },
        "performer": [
          {
            "display": "The Central European Lab"
          }
        ],
        "category": [
          {
            "coding": [
              {
                "system": "http://terminology.hl7.org/CodeSystem/observation-category",
                "code": "laboratory"
              }
            ]
          }
        ],
        "code": {
          "coding": [
            {
              "code": "6768-6",
              "system": "http://loinc.org",
              "display": "Alkaline phosphatase [Enzymatic activity/volume] in Serum or Plasma"
            }
          ],
          "text": "Alkaline phosphatase [Enzymatic activity/volume] in Serum or Plasma"
        },
        "valueQuantity": {
          "system": "http://unitsofmeasure.org",
          "value": 89,
          "unit": "U/L",
          "code": "U/L"
        },
        "referenceRange": [
          {
            "low": {
              "value": 44,
              "code": "U/L",
              "system": "http://unitsofmeasure.org"
            }
          },
          {
            "high": {
              "value": 142,
              "code": "U/L",
              "system": "http://unitsofmeasure.org"
            }
          }
        ],
        "text": {
          "status": "generated",
          "div": "<div xmlns=\"http://www.w3.org/1999/xhtml\"><table class=\"hl7__eu__lab__report\"><tr><th>Test</th><th>28-Apr-2018</th><th>Reference&#xA0;Range</th><th>Unit</th></tr><tr><td>Alkaline phosphatase [Enzymatic activity/volume] in Serum or Plasma</td><td>89.0</td><td>44 - 142</td><td></td><td>U/L</td></tr></table></div>"
        },
        "status": "final",
        "subject": {
          "reference": "urn:uuid:8c1cca03-1957-4b4a-8faf-ddce64f5fba7",
          "display": "Maria Nohlmans"
        },
        "effectiveDateTime": "2018-04-27T22:33:39Z",
        "specimen": {
          "reference": "urn:uuid:fb90625d-1a02-4f9e-9d12-3d1c7fb0218a"
        }
      }
    },
    {
      "fullUrl": "urn:uuid:2dd72f5d-2305-4da9-926a-d8f470548f97",
      "resource": {
        "resourceType": "Observation",
        "id": "2dd72f5d-2305-4da9-926a-d8f470548f97",
        "meta": {
          "profile": [
            "http://hl7.eu/fhir/laboratory/StructureDefinition/Observation-resultslab-eu-lab"
          ]
        },
        "performer": [
          {
            "display": "The Central European Lab"
          }
        ],
        "category": [
          {
            "coding": [
              {
                "system": "http://terminology.hl7.org/CodeSystem/observation-category",
                "code": "laboratory"
              }
            ]
          }
        ],
        "code": {
          "coding": [
            {
              "code": "1742-6",
              "system": "http://loinc.org",
              "display": "Alanine aminotransferase [Enzymatic activity/volume] in Serum or Plasma"
            }
          ],
          "text": "Alanine aminotransferase [Enzymatic activity/volume] in Serum or Plasma"
        },
        "valueQuantity": {
          "system": "http://unitsofmeasure.org",
          "value": 25.4,
          "unit": "U/L",
          "code": "U/L"
        },
        "referenceRange": [
          {
            "low": {
              "value": 7,
              "code": "U/L",
              "system": "http://unitsofmeasure.org"
            }
          },
          {
            "high": {
              "value": 40,
              "code": "U/L",
              "system": "http://unitsofmeasure.org"
            }
          }
        ],
        "text": {
          "status": "generated",
          "div": "<div xmlns=\"http://www.w3.org/1999/xhtml\"><table class=\"hl7__eu__lab__report\"><tr><th>Test</th><th>28-Apr-2018</th><th>Reference&#xA0;Range</th><th>Unit</th></tr><tr><td>Alanine aminotransferase [Enzymatic activity/volume] in Serum or Plasma</td><td>25.4</td><td>7 - 40</td><td></td><td>U/L</td></tr></table></div>"
        },
        "status": "final",
        "subject": {
          "reference": "urn:uuid:8c1cca03-1957-4b4a-8faf-ddce64f5fba7",
          "display": "Maria Nohlmans"
        },
        "effectiveDateTime": "2018-04-27T22:33:39Z",
        "specimen": {
          "reference": "urn:uuid:fb90625d-1a02-4f9e-9d12-3d1c7fb0218a"
        }
      }
    },
    {
      "fullUrl": "urn:uuid:214fff36-5da0-4e08-aadc-5978a311287b",
      "resource": {
        "resourceType": "Observation",
        "id": "214fff36-5da0-4e08-aadc-5978a311287b",
        "meta": {
          "profile": [
            "http://hl7.eu/fhir/laboratory/StructureDefinition/Observation-resultslab-eu-lab"
          ]
        },
        "performer": [
          {
            "display": "The Central European Lab"
          }
        ],
        "category": [
          {
            "coding": [
              {
                "system": "http://terminology.hl7.org/CodeSystem/observation-category",
                "code": "laboratory"
              }
            ]
          }
        ],
        "code": {
          "coding": [
            {
              "code": "1920-8",
              "system": "http://loinc.org",
              "display": "Aspartate aminotransferase [Enzymatic activity/volume] in Serum or Plasma"
            }
          ],
          "text": "Aspartate aminotransferase [Enzymatic activity/volume] in Serum or Plasma"
        },
        "valueQuantity": {
          "system": "http://unitsofmeasure.org",
          "value": 38.5,
          "unit": "U/L",
          "code": "U/L"
        },
        "referenceRange": [
          {
            "low": {
              "value": 10,
              "code": "U/L",
              "system": "http://unitsofmeasure.org"
            }
          },
          {
            "high": {
              "value": 40,
              "code": "U/L",
              "system": "http://unitsofmeasure.org"
            }
          }
        ],
        "text": {
          "status": "generated",
          "div": "<div xmlns=\"http://www.w3.org/1999/xhtml\"><table class=\"hl7__eu__lab__report\"><tr><th>Test</th><th>28-Apr-2018</th><th>Reference&#xA0;Range</th><th>Unit</th></tr><tr><td>Aspartate aminotransferase [Enzymatic activity/volume] in Serum or Plasma</td><td>38.5</td><td>10 - 40</td><td></td><td>U/L</td></tr></table></div>"
        },
        "status": "final",
        "subject": {
          "reference": "urn:uuid:8c1cca03-1957-4b4a-8faf-ddce64f5fba7",
          "display": "Maria Nohlmans"
        },
        "effectiveDateTime": "2018-04-27T22:33:39Z",
        "specimen": {
          "reference": "urn:uuid:fb90625d-1a02-4f9e-9d12-3d1c7fb0218a"
        }
      }
    },
    {
      "fullUrl": "urn:uuid:8635fa7a-5b94-4459-9c54-c4bbb49e9ce1",
      "resource": {
        "resourceType": "Observation",
        "id": "8635fa7a-5b94-4459-9c54-c4bbb49e9ce1",
        "meta": {
          "profile": [
            "http://hl7.eu/fhir/laboratory/StructureDefinition/Observation-resultslab-eu-lab"
          ]
        },
        "performer": [
          {
            "display": "The Central European Lab"
          }
        ],
        "category": [
          {
            "coding": [
              {
                "system": "http://terminology.hl7.org/CodeSystem/observation-category",
                "code": "laboratory"
              }
            ]
          }
        ],
        "code": {
          "coding": [
            {
              "code": "5767-9",
              "system": "http://loinc.org",
              "display": "Appearance of Urine"
            }
          ],
          "text": "Appearance of Urine"
        },
        "text": {
          "status": "generated",
          "div": "<div xmlns=\"http://www.w3.org/1999/xhtml\"><table class=\"hl7__eu__lab__report\"><tr><th>Test</th><th>28-Apr-2018</th><th>Reference&#xA0;Range</th><th>Unit</th></tr><tr><td>Appearance of Urine</td></tr></table></div>"
        },
        "status": "final",
        "subject": {
          "reference": "urn:uuid:8c1cca03-1957-4b4a-8faf-ddce64f5fba7",
          "display": "Maria Nohlmans"
        },
        "effectiveDateTime": "2018-04-27T22:33:39Z",
        "specimen": {
          "reference": "urn:uuid:ab5f99b3-e764-456b-8111-ffd9fa09926b"
        }
      }
    },
    {
      "fullUrl": "urn:uuid:a7a99451-35ce-4a77-859c-890ddc53381e",
      "resource": {
        "resourceType": "Observation",
        "id": "a7a99451-35ce-4a77-859c-890ddc53381e",
        "meta": {
          "profile": [
            "http://hl7.eu/fhir/laboratory/StructureDefinition/Observation-resultslab-eu-lab"
          ]
        },
        "performer": [
          {
            "display": "The Central European Lab"
          }
        ],
        "category": [
          {
            "coding": [
              {
                "system": "http://terminology.hl7.org/CodeSystem/observation-category",
                "code": "laboratory"
              }
            ]
          }
        ],
        "code": {
          "coding": [
            {
              "code": "34533-0",
              "system": "http://loinc.org",
              "display": "Odor of Urine"
            }
          ],
          "text": "Odor of Urine"
        },
        "text": {
          "status": "generated",
          "div": "<div xmlns=\"http://www.w3.org/1999/xhtml\"><table class=\"hl7__eu__lab__report\"><tr><th>Test</th><th>28-Apr-2018</th><th>Reference&#xA0;Range</th><th>Unit</th></tr><tr><td>Odor of Urine</td></tr></table></div>"
        },
        "status": "final",
        "subject": {
          "reference": "urn:uuid:8c1cca03-1957-4b4a-8faf-ddce64f5fba7",
          "display": "Maria Nohlmans"
        },
        "effectiveDateTime": "2018-04-27T22:33:39Z",
        "specimen": {
          "reference": "urn:uuid:ab5f99b3-e764-456b-8111-ffd9fa09926b"
        }
      }
    },
    {
      "fullUrl": "urn:uuid:690d70e1-5f18-4c2d-b2e6-a90333a6a4f2",
      "resource": {
        "resourceType": "Observation",
        "id": "690d70e1-5f18-4c2d-b2e6-a90333a6a4f2",
        "meta": {
          "profile": [
            "http://hl7.eu/fhir/laboratory/StructureDefinition/Observation-resultslab-eu-lab"
          ]
        },
        "performer": [
          {
            "display": "The Central European Lab"
          }
        ],
        "category": [
          {
            "coding": [
              {
                "system": "http://terminology.hl7.org/CodeSystem/observation-category",
                "code": "laboratory"
              }
            ]
          }
        ],
        "code": {
          "coding": [
            {
              "code": "32167-9",
              "system": "http://loinc.org",
              "display": "Clarity of Urine"
            }
          ],
          "text": "Clarity of Urine"
        },
        "text": {
          "status": "generated",
          "div": "<div xmlns=\"http://www.w3.org/1999/xhtml\"><table class=\"hl7__eu__lab__report\"><tr><th>Test</th><th>28-Apr-2018</th><th>Reference&#xA0;Range</th><th>Unit</th></tr><tr><td>Clarity of Urine</td></tr></table></div>"
        },
        "status": "final",
        "subject": {
          "reference": "urn:uuid:8c1cca03-1957-4b4a-8faf-ddce64f5fba7",
          "display": "Maria Nohlmans"
        },
        "effectiveDateTime": "2018-04-27T22:33:39Z",
        "specimen": {
          "reference": "urn:uuid:ab5f99b3-e764-456b-8111-ffd9fa09926b"
        }
      }
    },
    {
      "fullUrl": "urn:uuid:6db259dd-ddda-4894-ae55-37a73e86b619",
      "resource": {
        "resourceType": "Observation",
        "id": "6db259dd-ddda-4894-ae55-37a73e86b619",
        "meta": {
          "profile": [
            "http://hl7.eu/fhir/laboratory/StructureDefinition/Observation-resultslab-eu-lab"
          ]
        },
        "performer": [
          {
            "display": "The Central European Lab"
          }
        ],
        "category": [
          {
            "coding": [
              {
                "system": "http://terminology.hl7.org/CodeSystem/observation-category",
                "code": "laboratory"
              }
            ]
          }
        ],
        "code": {
          "coding": [
            {
              "code": "5778-6",
              "system": "http://loinc.org",
              "display": "Color of Urine"
            }
          ],
          "text": "Color of Urine"
        },
        "text": {
          "status": "generated",
          "div": "<div xmlns=\"http://www.w3.org/1999/xhtml\"><table class=\"hl7__eu__lab__report\"><tr><th>Test</th><th>28-Apr-2018</th><th>Reference&#xA0;Range</th><th>Unit</th></tr><tr><td>Color of Urine</td></tr></table></div>"
        },
        "status": "final",
        "subject": {
          "reference": "urn:uuid:8c1cca03-1957-4b4a-8faf-ddce64f5fba7",
          "display": "Maria Nohlmans"
        },
        "effectiveDateTime": "2018-04-27T22:33:39Z",
        "specimen": {
          "reference": "urn:uuid:ab5f99b3-e764-456b-8111-ffd9fa09926b"
        }
      }
    },
    {
      "fullUrl": "urn:uuid:79cfb5e0-02ef-4812-a8dc-53856a2ea0e8",
      "resource": {
        "resourceType": "Observation",
        "id": "79cfb5e0-02ef-4812-a8dc-53856a2ea0e8",
        "meta": {
          "profile": [
            "http://hl7.eu/fhir/laboratory/StructureDefinition/Observation-resultslab-eu-lab"
          ]
        },
        "performer": [
          {
            "display": "The Central European Lab"
          }
        ],
        "category": [
          {
            "coding": [
              {
                "system": "http://terminology.hl7.org/CodeSystem/observation-category",
                "code": "laboratory"
              }
            ]
          }
        ],
        "code": {
          "coding": [
            {
              "code": "5792-7",
              "system": "http://loinc.org",
              "display": "Glucose [Mass/volume] in Urine by Test strip"
            }
          ],
          "text": "Glucose [Mass/volume] in Urine by Test strip"
        },
        "valueQuantity": {
          "system": "http://unitsofmeasure.org",
          "value": 1.5,
          "unit": "mg/dL",
          "code": "mg/dL"
        },
        "referenceRange": [
          {
            "low": {
              "value": 0.8,
              "code": "mg/dL",
              "system": "http://unitsofmeasure.org"
            }
          },
          {
            "high": {
              "value": 0,
              "code": "mg/dL",
              "system": "http://unitsofmeasure.org"
            }
          }
        ],
        "interpretation": [
          {
            "coding": [
              {
                "code": "H",
                "system": "http://terminology.hl7.org/CodeSystem/v3-ObservationInterpretation",
                "display": "High"
              }
            ]
          }
        ],
        "text": {
          "status": "generated",
          "div": "<div xmlns=\"http://www.w3.org/1999/xhtml\"><table class=\"hl7__eu__lab__report\"><tr><th>Test</th><th>28-Apr-2018</th><th>Reference&#xA0;Range</th><th>Unit</th></tr><tr><td>Glucose [Mass/volume] in Urine by Test strip</td><td>1.5</td><td>0.8 - 0</td><td>H</td><td>mg/dL</td></tr></table></div>"
        },
        "status": "final",
        "subject": {
          "reference": "urn:uuid:8c1cca03-1957-4b4a-8faf-ddce64f5fba7",
          "display": "Maria Nohlmans"
        },
        "effectiveDateTime": "2018-04-27T22:33:39Z",
        "specimen": {
          "reference": "urn:uuid:ab5f99b3-e764-456b-8111-ffd9fa09926b"
        }
      }
    },
    {
      "fullUrl": "urn:uuid:0e079b53-5f08-4d95-9655-cfad91aa1009",
      "resource": {
        "resourceType": "Observation",
        "id": "0e079b53-5f08-4d95-9655-cfad91aa1009",
        "meta": {
          "profile": [
            "http://hl7.eu/fhir/laboratory/StructureDefinition/Observation-resultslab-eu-lab"
          ]
        },
        "performer": [
          {
            "display": "The Central European Lab"
          }
        ],
        "category": [
          {
            "coding": [
              {
                "system": "http://terminology.hl7.org/CodeSystem/observation-category",
                "code": "laboratory"
              }
            ]
          }
        ],
        "code": {
          "coding": [
            {
              "code": "25428-4",
              "system": "http://loinc.org",
              "display": "Glucose [Presence] in Urine by Test strip"
            }
          ],
          "text": "Glucose [Presence] in Urine by Test strip"
        },
        "text": {
          "status": "generated",
          "div": "<div xmlns=\"http://www.w3.org/1999/xhtml\"><table class=\"hl7__eu__lab__report\"><tr><th>Test</th><th>28-Apr-2018</th><th>Reference&#xA0;Range</th><th>Unit</th></tr><tr><td>Glucose [Presence] in Urine by Test strip</td></tr></table></div>"
        },
        "status": "final",
        "subject": {
          "reference": "urn:uuid:8c1cca03-1957-4b4a-8faf-ddce64f5fba7",
          "display": "Maria Nohlmans"
        },
        "effectiveDateTime": "2018-04-27T22:33:39Z",
        "specimen": {
          "reference": "urn:uuid:ab5f99b3-e764-456b-8111-ffd9fa09926b"
        }
      }
    },
    {
      "fullUrl": "urn:uuid:b99cf340-adfe-4619-98e9-1c9f829bd5f0",
      "resource": {
        "resourceType": "Observation",
        "id": "b99cf340-adfe-4619-98e9-1c9f829bd5f0",
        "meta": {
          "profile": [
            "http://hl7.eu/fhir/laboratory/StructureDefinition/Observation-resultslab-eu-lab"
          ]
        },
        "performer": [
          {
            "display": "The Central European Lab"
          }
        ],
        "category": [
          {
            "coding": [
              {
                "system": "http://terminology.hl7.org/CodeSystem/observation-category",
                "code": "laboratory"
              }
            ]
          }
        ],
        "code": {
          "coding": [
            {
              "code": "20505-4",
              "system": "http://loinc.org",
              "display": "Bilirubin.total [Mass/volume] in Urine by Test strip"
            }
          ],
          "text": "Bilirubin.total [Mass/volume] in Urine by Test strip"
        },
        "valueQuantity": {
          "system": "http://unitsofmeasure.org",
          "value": 1.2,
          "unit": "mg/dL",
          "code": "mg/dL"
        },
        "referenceRange": [
          {
            "low": {
              "value": 0,
              "code": "mg/dL",
              "system": "http://unitsofmeasure.org"
            }
          },
          {
            "high": {
              "value": 1.5,
              "code": "mg/dL",
              "system": "http://unitsofmeasure.org"
            }
          }
        ],
        "text": {
          "status": "generated",
          "div": "<div xmlns=\"http://www.w3.org/1999/xhtml\"><table class=\"hl7__eu__lab__report\"><tr><th>Test</th><th>28-Apr-2018</th><th>Reference&#xA0;Range</th><th>Unit</th></tr><tr><td>Bilirubin.total [Mass/volume] in Urine by Test strip</td><td>1.2</td><td>0 - 1.5</td><td></td><td>mg/dL</td></tr></table></div>"
        },
        "status": "final",
        "subject": {
          "reference": "urn:uuid:8c1cca03-1957-4b4a-8faf-ddce64f5fba7",
          "display": "Maria Nohlmans"
        },
        "effectiveDateTime": "2018-04-27T22:33:39Z",
        "specimen": {
          "reference": "urn:uuid:ab5f99b3-e764-456b-8111-ffd9fa09926b"
        }
      }
    },
    {
      "fullUrl": "urn:uuid:9100727c-9bda-43fc-801f-d1baf051a515",
      "resource": {
        "resourceType": "Observation",
        "id": "9100727c-9bda-43fc-801f-d1baf051a515",
        "meta": {
          "profile": [
            "http://hl7.eu/fhir/laboratory/StructureDefinition/Observation-resultslab-eu-lab"
          ]
        },
        "performer": [
          {
            "display": "The Central European Lab"
          }
        ],
        "category": [
          {
            "coding": [
              {
                "system": "http://terminology.hl7.org/CodeSystem/observation-category",
                "code": "laboratory"
              }
            ]
          }
        ],
        "code": {
          "coding": [
            {
              "code": "5770-3",
              "system": "http://loinc.org",
              "display": "Bilirubin.total [Presence] in Urine by Test strip"
            }
          ],
          "text": "Bilirubin.total [Presence] in Urine by Test strip"
        },
        "text": {
          "status": "generated",
          "div": "<div xmlns=\"http://www.w3.org/1999/xhtml\"><table class=\"hl7__eu__lab__report\"><tr><th>Test</th><th>28-Apr-2018</th><th>Reference&#xA0;Range</th><th>Unit</th></tr><tr><td>Bilirubin.total [Presence] in Urine by Test strip</td></tr></table></div>"
        },
        "status": "final",
        "subject": {
          "reference": "urn:uuid:8c1cca03-1957-4b4a-8faf-ddce64f5fba7",
          "display": "Maria Nohlmans"
        },
        "effectiveDateTime": "2018-04-27T22:33:39Z",
        "specimen": {
          "reference": "urn:uuid:ab5f99b3-e764-456b-8111-ffd9fa09926b"
        }
      }
    },
    {
      "fullUrl": "urn:uuid:0f197f7a-610c-4f35-a84a-3702dc4d346f",
      "resource": {
        "resourceType": "Observation",
        "id": "0f197f7a-610c-4f35-a84a-3702dc4d346f",
        "meta": {
          "profile": [
            "http://hl7.eu/fhir/laboratory/StructureDefinition/Observation-resultslab-eu-lab"
          ]
        },
        "performer": [
          {
            "display": "The Central European Lab"
          }
        ],
        "category": [
          {
            "coding": [
              {
                "system": "http://terminology.hl7.org/CodeSystem/observation-category",
                "code": "laboratory"
              }
            ]
          }
        ],
        "code": {
          "coding": [
            {
              "code": "5797-6",
              "system": "http://loinc.org",
              "display": "Ketones [Mass/volume] in Urine by Test strip"
            }
          ],
          "text": "Ketones [Mass/volume] in Urine by Test strip"
        },
        "valueQuantity": {
          "system": "http://unitsofmeasure.org",
          "value": 13.2,
          "unit": "mg/dL",
          "code": "mg/dL"
        },
        "referenceRange": [
          {
            "low": {
              "value": 0,
              "code": "mg/dL",
              "system": "http://unitsofmeasure.org"
            }
          },
          {
            "high": {
              "value": 8,
              "code": "mg/dL",
              "system": "http://unitsofmeasure.org"
            }
          }
        ],
        "interpretation": [
          {
            "coding": [
              {
                "code": "H",
                "system": "http://terminology.hl7.org/CodeSystem/v3-ObservationInterpretation",
                "display": "High"
              }
            ]
          }
        ],
        "text": {
          "status": "generated",
          "div": "<div xmlns=\"http://www.w3.org/1999/xhtml\"><table class=\"hl7__eu__lab__report\"><tr><th>Test</th><th>28-Apr-2018</th><th>Reference&#xA0;Range</th><th>Unit</th></tr><tr><td>Ketones [Mass/volume] in Urine by Test strip</td><td>13.2</td><td>0 - 8</td><td>H</td><td>mg/dL</td></tr></table></div>"
        },
        "status": "final",
        "subject": {
          "reference": "urn:uuid:8c1cca03-1957-4b4a-8faf-ddce64f5fba7",
          "display": "Maria Nohlmans"
        },
        "effectiveDateTime": "2018-04-27T22:33:39Z",
        "specimen": {
          "reference": "urn:uuid:ab5f99b3-e764-456b-8111-ffd9fa09926b"
        }
      }
    },
    {
      "fullUrl": "urn:uuid:3d81b5d4-a4d7-4ffd-a553-75d8aa3ff68a",
      "resource": {
        "resourceType": "Observation",
        "id": "3d81b5d4-a4d7-4ffd-a553-75d8aa3ff68a",
        "meta": {
          "profile": [
            "http://hl7.eu/fhir/laboratory/StructureDefinition/Observation-resultslab-eu-lab"
          ]
        },
        "performer": [
          {
            "display": "The Central European Lab"
          }
        ],
        "category": [
          {
            "coding": [
              {
                "system": "http://terminology.hl7.org/CodeSystem/observation-category",
                "code": "laboratory"
              }
            ]
          }
        ],
        "code": {
          "coding": [
            {
              "code": "2514-8",
              "system": "http://loinc.org",
              "display": "Ketones [Presence] in Urine by Test strip"
            }
          ],
          "text": "Ketones [Presence] in Urine by Test strip"
        },
        "text": {
          "status": "generated",
          "div": "<div xmlns=\"http://www.w3.org/1999/xhtml\"><table class=\"hl7__eu__lab__report\"><tr><th>Test</th><th>28-Apr-2018</th><th>Reference&#xA0;Range</th><th>Unit</th></tr><tr><td>Ketones [Presence] in Urine by Test strip</td></tr></table></div>"
        },
        "status": "final",
        "subject": {
          "reference": "urn:uuid:8c1cca03-1957-4b4a-8faf-ddce64f5fba7",
          "display": "Maria Nohlmans"
        },
        "effectiveDateTime": "2018-04-27T22:33:39Z",
        "specimen": {
          "reference": "urn:uuid:ab5f99b3-e764-456b-8111-ffd9fa09926b"
        }
      }
    },
    {
      "fullUrl": "urn:uuid:a94ed3ed-2f0c-4e3f-81a1-86ea66657b43",
      "resource": {
        "resourceType": "Observation",
        "id": "a94ed3ed-2f0c-4e3f-81a1-86ea66657b43",
        "meta": {
          "profile": [
            "http://hl7.eu/fhir/laboratory/StructureDefinition/Observation-resultslab-eu-lab"
          ]
        },
        "performer": [
          {
            "display": "The Central European Lab"
          }
        ],
        "category": [
          {
            "coding": [
              {
                "system": "http://terminology.hl7.org/CodeSystem/observation-category",
                "code": "laboratory"
              }
            ]
          }
        ],
        "code": {
          "coding": [
            {
              "code": "5811-5",
              "system": "http://loinc.org",
              "display": "Specific gravity of Urine by Test strip"
            }
          ],
          "text": "Specific gravity of Urine by Test strip"
        },
        "valueQuantity": {
          "system": "http://unitsofmeasure.org",
          "value": 1,
          "unit": "{nominal}",
          "code": "{nominal}"
        },
        "referenceRange": [
          {
            "low": {
              "value": 1.01,
              "code": "g/mL",
              "system": "http://unitsofmeasure.org"
            }
          },
          {
            "high": {
              "value": 1.03,
              "code": "g/mL",
              "system": "http://unitsofmeasure.org"
            }
          }
        ],
        "interpretation": [
          {
            "coding": [
              {
                "code": "L",
                "system": "http://terminology.hl7.org/CodeSystem/v3-ObservationInterpretation",
                "display": "Low"
              }
            ]
          }
        ],
        "text": {
          "status": "generated",
          "div": "<div xmlns=\"http://www.w3.org/1999/xhtml\"><table class=\"hl7__eu__lab__report\"><tr><th>Test</th><th>28-Apr-2018</th><th>Reference&#xA0;Range</th><th>Unit</th></tr><tr><td>Specific gravity of Urine by Test strip</td><td>1.0</td><td>1.01 - 1.03</td><td>L</td><td>{nominal}</td></tr></table></div>"
        },
        "status": "final",
        "subject": {
          "reference": "urn:uuid:8c1cca03-1957-4b4a-8faf-ddce64f5fba7",
          "display": "Maria Nohlmans"
        },
        "effectiveDateTime": "2018-04-27T22:33:39Z",
        "specimen": {
          "reference": "urn:uuid:ab5f99b3-e764-456b-8111-ffd9fa09926b"
        }
      }
    },
    {
      "fullUrl": "urn:uuid:f096cf5b-cf70-4755-bb9d-24bf8aee62d3",
      "resource": {
        "resourceType": "Observation",
        "id": "f096cf5b-cf70-4755-bb9d-24bf8aee62d3",
        "meta": {
          "profile": [
            "http://hl7.eu/fhir/laboratory/StructureDefinition/Observation-resultslab-eu-lab"
          ]
        },
        "performer": [
          {
            "display": "The Central European Lab"
          }
        ],
        "category": [
          {
            "coding": [
              {
                "system": "http://terminology.hl7.org/CodeSystem/observation-category",
                "code": "laboratory"
              }
            ]
          }
        ],
        "code": {
          "coding": [
            {
              "code": "5803-2",
              "system": "http://loinc.org",
              "display": "pH of Urine by Test strip"
            }
          ],
          "text": "pH of Urine by Test strip"
        },
        "valueQuantity": {
          "system": "http://unitsofmeasure.org",
          "value": 6.7,
          "unit": "pH",
          "code": "pH"
        },
        "referenceRange": [
          {
            "low": {
              "value": 4.6,
              "code": "pH",
              "system": "http://unitsofmeasure.org"
            }
          },
          {
            "high": {
              "value": 7.5,
              "code": "pH",
              "system": "http://unitsofmeasure.org"
            }
          }
        ],
        "text": {
          "status": "generated",
          "div": "<div xmlns=\"http://www.w3.org/1999/xhtml\"><table class=\"hl7__eu__lab__report\"><tr><th>Test</th><th>28-Apr-2018</th><th>Reference&#xA0;Range</th><th>Unit</th></tr><tr><td>pH of Urine by Test strip</td><td>6.7</td><td>4.6 - 7.5</td><td></td><td>pH</td></tr></table></div>"
        },
        "status": "final",
        "subject": {
          "reference": "urn:uuid:8c1cca03-1957-4b4a-8faf-ddce64f5fba7",
          "display": "Maria Nohlmans"
        },
        "effectiveDateTime": "2018-04-27T22:33:39Z",
        "specimen": {
          "reference": "urn:uuid:ab5f99b3-e764-456b-8111-ffd9fa09926b"
        }
      }
    },
    {
      "fullUrl": "urn:uuid:fa8c1618-b2bb-4b87-80f8-3e9a1ec261a4",
      "resource": {
        "resourceType": "Observation",
        "id": "fa8c1618-b2bb-4b87-80f8-3e9a1ec261a4",
        "meta": {
          "profile": [
            "http://hl7.eu/fhir/laboratory/StructureDefinition/Observation-resultslab-eu-lab"
          ]
        },
        "performer": [
          {
            "display": "The Central European Lab"
          }
        ],
        "category": [
          {
            "coding": [
              {
                "system": "http://terminology.hl7.org/CodeSystem/observation-category",
                "code": "laboratory"
              }
            ]
          }
        ],
        "code": {
          "coding": [
            {
              "code": "5804-0",
              "system": "http://loinc.org",
              "display": "Protein [Mass/volume] in Urine by Test strip"
            }
          ],
          "text": "Protein [Mass/volume] in Urine by Test strip"
        },
        "valueQuantity": {
          "system": "http://unitsofmeasure.org",
          "value": 417.6,
          "unit": "mg/dL",
          "code": "mg/dL"
        },
        "referenceRange": [
          {
            "low": {
              "value": 0,
              "code": "mg/dL",
              "system": "http://unitsofmeasure.org"
            }
          },
          {
            "high": {
              "value": 14,
              "code": "mg/dL",
              "system": "http://unitsofmeasure.org"
            }
          }
        ],
        "interpretation": [
          {
            "coding": [
              {
                "code": "H",
                "system": "http://terminology.hl7.org/CodeSystem/v3-ObservationInterpretation",
                "display": "High"
              }
            ]
          }
        ],
        "text": {
          "status": "generated",
          "div": "<div xmlns=\"http://www.w3.org/1999/xhtml\"><table class=\"hl7__eu__lab__report\"><tr><th>Test</th><th>28-Apr-2018</th><th>Reference&#xA0;Range</th><th>Unit</th></tr><tr><td>Protein [Mass/volume] in Urine by Test strip</td><td>417.6</td><td>0 - 14</td><td>H</td><td>mg/dL</td></tr></table></div>"
        },
        "status": "final",
        "subject": {
          "reference": "urn:uuid:8c1cca03-1957-4b4a-8faf-ddce64f5fba7",
          "display": "Maria Nohlmans"
        },
        "effectiveDateTime": "2018-04-27T22:33:39Z",
        "specimen": {
          "reference": "urn:uuid:ab5f99b3-e764-456b-8111-ffd9fa09926b"
        }
      }
    },
    {
      "fullUrl": "urn:uuid:0563d21c-6039-49f6-bbf9-caf044018ff4",
      "resource": {
        "resourceType": "Observation",
        "id": "0563d21c-6039-49f6-bbf9-caf044018ff4",
        "meta": {
          "profile": [
            "http://hl7.eu/fhir/laboratory/StructureDefinition/Observation-resultslab-eu-lab"
          ]
        },
        "performer": [
          {
            "display": "The Central European Lab"
          }
        ],
        "category": [
          {
            "coding": [
              {
                "system": "http://terminology.hl7.org/CodeSystem/observation-category",
                "code": "laboratory"
              }
            ]
          }
        ],
        "code": {
          "coding": [
            {
              "code": "20454-5",
              "system": "http://loinc.org",
              "display": "Protein [Presence] in Urine by Test strip"
            }
          ],
          "text": "Protein [Presence] in Urine by Test strip"
        },
        "text": {
          "status": "generated",
          "div": "<div xmlns=\"http://www.w3.org/1999/xhtml\"><table class=\"hl7__eu__lab__report\"><tr><th>Test</th><th>28-Apr-2018</th><th>Reference&#xA0;Range</th><th>Unit</th></tr><tr><td>Protein [Presence] in Urine by Test strip</td></tr></table></div>"
        },
        "status": "final",
        "subject": {
          "reference": "urn:uuid:8c1cca03-1957-4b4a-8faf-ddce64f5fba7",
          "display": "Maria Nohlmans"
        },
        "effectiveDateTime": "2018-04-27T22:33:39Z",
        "specimen": {
          "reference": "urn:uuid:ab5f99b3-e764-456b-8111-ffd9fa09926b"
        }
      }
    },
    {
      "fullUrl": "urn:uuid:b4738a47-5398-4d7a-8499-cfa35ee0688f",
      "resource": {
        "resourceType": "Observation",
        "id": "b4738a47-5398-4d7a-8499-cfa35ee0688f",
        "meta": {
          "profile": [
            "http://hl7.eu/fhir/laboratory/StructureDefinition/Observation-resultslab-eu-lab"
          ]
        },
        "performer": [
          {
            "display": "The Central European Lab"
          }
        ],
        "category": [
          {
            "coding": [
              {
                "system": "http://terminology.hl7.org/CodeSystem/observation-category",
                "code": "laboratory"
              }
            ]
          }
        ],
        "code": {
          "coding": [
            {
              "code": "5802-4",
              "system": "http://loinc.org",
              "display": "Nitrite [Presence] in Urine by Test strip"
            }
          ],
          "text": "Nitrite [Presence] in Urine by Test strip"
        },
        "text": {
          "status": "generated",
          "div": "<div xmlns=\"http://www.w3.org/1999/xhtml\"><table class=\"hl7__eu__lab__report\"><tr><th>Test</th><th>28-Apr-2018</th><th>Reference&#xA0;Range</th><th>Unit</th></tr><tr><td>Nitrite [Presence] in Urine by Test strip</td></tr></table></div>"
        },
        "status": "final",
        "subject": {
          "reference": "urn:uuid:8c1cca03-1957-4b4a-8faf-ddce64f5fba7",
          "display": "Maria Nohlmans"
        },
        "effectiveDateTime": "2018-04-27T22:33:39Z",
        "specimen": {
          "reference": "urn:uuid:ab5f99b3-e764-456b-8111-ffd9fa09926b"
        }
      }
    },
    {
      "fullUrl": "urn:uuid:5e07edf2-bdaa-471c-8345-67af3015c611",
      "resource": {
        "resourceType": "Observation",
        "id": "5e07edf2-bdaa-471c-8345-67af3015c611",
        "meta": {
          "profile": [
            "http://hl7.eu/fhir/laboratory/StructureDefinition/Observation-resultslab-eu-lab"
          ]
        },
        "performer": [
          {
            "display": "The Central European Lab"
          }
        ],
        "category": [
          {
            "coding": [
              {
                "system": "http://terminology.hl7.org/CodeSystem/observation-category",
                "code": "laboratory"
              }
            ]
          }
        ],
        "code": {
          "coding": [
            {
              "code": "5794-3",
              "system": "http://loinc.org",
              "display": "Hemoglobin [Presence] in Urine by Test strip"
            }
          ],
          "text": "Hemoglobin [Presence] in Urine by Test strip"
        },
        "text": {
          "status": "generated",
          "div": "<div xmlns=\"http://www.w3.org/1999/xhtml\"><table class=\"hl7__eu__lab__report\"><tr><th>Test</th><th>28-Apr-2018</th><th>Reference&#xA0;Range</th><th>Unit</th></tr><tr><td>Hemoglobin [Presence] in Urine by Test strip</td></tr></table></div>"
        },
        "status": "final",
        "subject": {
          "reference": "urn:uuid:8c1cca03-1957-4b4a-8faf-ddce64f5fba7",
          "display": "Maria Nohlmans"
        },
        "effectiveDateTime": "2018-04-27T22:33:39Z",
        "specimen": {
          "reference": "urn:uuid:ab5f99b3-e764-456b-8111-ffd9fa09926b"
        }
      }
    },
    {
      "fullUrl": "urn:uuid:b4325121-8d38-4bf7-a1ef-b796fb3274b8",
      "resource": {
        "resourceType": "Observation",
        "id": "b4325121-8d38-4bf7-a1ef-b796fb3274b8",
        "meta": {
          "profile": [
            "http://hl7.eu/fhir/laboratory/StructureDefinition/Observation-resultslab-eu-lab"
          ]
        },
        "performer": [
          {
            "display": "The Central European Lab"
          }
        ],
        "category": [
          {
            "coding": [
              {
                "system": "http://terminology.hl7.org/CodeSystem/observation-category",
                "code": "laboratory"
              }
            ]
          }
        ],
        "code": {
          "coding": [
            {
              "code": "5799-2",
              "system": "http://loinc.org",
              "display": "Leukocyte esterase [Presence] in Urine by Test strip"
            }
          ],
          "text": "Leukocyte esterase [Presence] in Urine by Test strip"
        },
        "text": {
          "status": "generated",
          "div": "<div xmlns=\"http://www.w3.org/1999/xhtml\"><table class=\"hl7__eu__lab__report\"><tr><th>Test</th><th>28-Apr-2018</th><th>Reference&#xA0;Range</th><th>Unit</th></tr><tr><td>Leukocyte esterase [Presence] in Urine by Test strip</td></tr></table></div>"
        },
        "status": "final",
        "subject": {
          "reference": "urn:uuid:8c1cca03-1957-4b4a-8faf-ddce64f5fba7",
          "display": "Maria Nohlmans"
        },
        "effectiveDateTime": "2018-04-27T22:33:39Z",
        "specimen": {
          "reference": "urn:uuid:ab5f99b3-e764-456b-8111-ffd9fa09926b"
        }
      }
    },
    {
      "fullUrl": "urn:uuid:6e14b73d-3380-468f-ba42-51d5d66ae086",
      "resource": {
        "resourceType": "Device",
        "id": "6e14b73d-3380-468f-ba42-51d5d66ae086",
        "deviceName": [
          {
            "name": "SYNDERAI Synthetic Generator",
            "type": "manufacturer-name"
          }
        ],
        "version": [
          {
            "value": "5.0"
          }
        ],
        "text": {
          "status": "generated",
          "div": "<div xmlns=\"http://www.w3.org/1999/xhtml\">SYNDERAI Synthetic Generator v5.0</div>"
        },
        "status": "active\"",
        "distinctIdentifier": "synderai-generator-50",
        "manufacturer": "SYNDERAI Project"
      }
    },
    {
      "fullUrl": "urn:uuid:32670b43-1e71-404a-b43d-a5eb40ac8810",
      "resource": {
        "resourceType": "Provenance",
        "id": "32670b43-1e71-404a-b43d-a5eb40ac8810",
        "target": [
          {
            "reference": "Patient/8c1cca03-1957-4b4a-8faf-ddce64f5fba7"
          },
          {
            "reference": "Bundle/d11d3568-09f2-44d6-81db-bda6ab0e593c"
          },
          {
            "reference": "Composition/8dfa3d48-62e0-47bd-b7f3-7b19054f2aef"
          },
          {
            "reference": "PractitionerRole/367e0095-601d-4d14-8a3d-4e9f4428cbbd"
          },
          {
            "reference": "Practitioner/b3de528e-2036-4ea6-9b8d-c3b8ab6e5630"
          },
          {
            "reference": "PractitionerRole/36b00b73-0a04-4eb6-8418-b721bed1c363"
          },
          {
            "reference": "Organization/900ae800-c6f9-4030-b33d-b6be43bf5dfb"
          }
        ],
        "activity": {
          "text": "Synthetic Example Data Generation"
        },
        "policy": [
          "https://synderai.net/synderai-synthetic-data-policy"
        ],
        "agent": [
          {
            "type": {
              "text": "author"
            },
            "who": {
              "reference": "Device/6e14b73d-3380-468f-ba42-51d5d66ae086"
            }
          }
        ],
        "reason": [
          {
            "text": "Interoperability Testing and Training (non-clinical use)"
          }
        ],
        "text": {
          "status": "generated",
          "div": "<div xmlns=\"http://www.w3.org/1999/xhtml\">Provenance for SYNDERAI Synthetic Example Data Resource</div>"
        },
        "recorded": "2018-04-28T00:33:39Z"
      }
    },
    {
      "fullUrl": "urn:uuid:367e0095-601d-4d14-8a3d-4e9f4428cbbd",
      "resource": {
        "resourceType": "PractitionerRole",
        "id": "367e0095-601d-4d14-8a3d-4e9f4428cbbd",
        "meta": {
          "profile": [
            "http://hl7.eu/fhir/base/StructureDefinition/practitionerRole-eu"
          ]
        },
        "text": {
          "status": "generated",
          "div": "<div xmlns=\"http://www.w3.org/1999/xhtml\">Laboratory Role Id: 367e0095-601d-4d14-8a3d-4e9f4428cbbd</div>"
        },
        "practitioner": {
          "reference": "urn:uuid:b3de528e-2036-4ea6-9b8d-c3b8ab6e5630"
        }
      }
    },
    {
      "fullUrl": "urn:uuid:b3de528e-2036-4ea6-9b8d-c3b8ab6e5630",
      "resource": {
        "resourceType": "Practitioner",
        "id": "b3de528e-2036-4ea6-9b8d-c3b8ab6e5630",
        "meta": {
          "profile": [
            "http://hl7.eu/fhir/base/StructureDefinition/practitioner-eu"
          ]
        },
        "identifier": [
          {
            "assigner": {
              "display": "HL7 Europe"
            },
            "system": "urn:oid:2.16.840.1.113883.2.51.999",
            "value": "f282fe76-fe5a-47bd-a7c0-6c153eed83ac"
          }
        ],
        "name": [
          {
            "prefix": [
              "dr"
            ],
            "given": [
              "Ex"
            ],
            "family": "Ample"
          }
        ],
        "address": [
          {
            "line": [
              "Laboratoire Central Européenne",
              "Boulevard du Jardin Botanique 32"
            ],
            "postalCode": "1000",
            "city": "Brussels",
            "country": "Belgium"
          }
        ],
        "text": {
          "status": "generated",
          "div": "<div xmlns=\"http://www.w3.org/1999/xhtml\">Laboratory: Laboratoire Central Européenne, 1000 Brussels, Belgium</div>"
        }
      }
    }
  ],
  "type": "document",
  "timestamp": "2018-04-28T00:33:39Z"
}
