<Bundle xmlns="http://hl7.org/fhir">
   <id value="35b9d544-ae23-4d68-8c90-2e6d44ed0b57"/>
   <meta>
      <profile value="http://hl7.eu/fhir/laboratory/StructureDefinition/Bundle-eu-lab"/>
   </meta>
   <identifier>
      <system value="urn:oid:2.16.840.1.113883.2.51.999"/>
      <value value="3d357f10-da48-42e8-beef-30d36b059a22"/>
      <assigner>
         <display value="HL7 Europe"/>
      </assigner>
   </identifier>
   <type value="document"/>
   <timestamp value="2025-01-19T14:31:07Z"/>
   <entry>
      <fullUrl value="urn:uuid:a823e9be-5b89-4465-9beb-0723e32a62ed"/>
      <resource>
         <Composition>
            <id value="a823e9be-5b89-4465-9beb-0723e32a62ed"/>
            <meta>
               <profile value="http://hl7.eu/fhir/laboratory/StructureDefinition/Composition-eu-lab"/>
            </meta>
            <identifier>
               <system value="urn:oid:2.16.840.1.113883.2.51.999"/>
               <value value="c5abf2e0-7824-4574-a8f4-526c7e8519d3"/>
               <assigner>
                  <display value="HL7 Europe"/>
               </assigner>
            </identifier>
            <status value="final"/>
            <type>
               <coding>
                  <system value="http://loinc.org"/>
                  <code value="11502-2"/>
                  <display value="Laboratory report"/>
               </coding>
               <text value="Laboratory Report"/>
            </type>
            <category>
               <coding>
                  <system value="http://loinc.org"/>
                  <code value="26436-6"/>
                  <display value="Laboratory studies (set)"/>
               </coding>
            </category>
            <subject>
               <reference value="urn:uuid:c8ff7f5a-342a-4313-a22d-ef2654d1dc7b"/>
               <display value="Russell Khan"/>
            </subject>
            <date value="2025-01-19T14:31:07Z"/>
            <author>
               <reference value="urn:uuid:26e8018d-a8fd-4533-bda1-0cecc3776fcd"/>
            </author>
            <title value="Laboratory Report"/>
            <confidentiality value="N"/>
            <section>
               <title value="Laboratory Report"/>
               <code>
                  <coding>
                     <system value="http://loinc.org"/>
                     <code value="26436-6"/>
                     <display value="Laboratory studies (set)"/>
                  </coding>
                  <text value="Laboratory studies"/>
               </code>
               <section>
                  <title value="Chemistry"/>
                  <code>
                     <coding>
                        <system value="http://loinc.org"/>
                        <code value="$18719-5"/>
                        <display value="Chemistry studies (set)"/>
                     </coding>
                     <text value="Chemistry"/>
                  </code>
                  <text>
                     <status value="generated"/>
                     <div xmlns="http://www.w3.org/1999/xhtml">
                        <h3>Chemistry</h3>
                        <table class="hl7__eu__lab__report">
                           <thead>
                              <tr>
                                 <th>Test</th>
                                 <th>19-JAN-2025</th>
                                 <th>Reference Range</th>
                                 <th>Unit</th>
                              </tr>
                           </thead>
                           <tbody>
                              <tr>
                                 <td>Cholesterol [Mass/volume] in Serum or Plasma</td>
                                 <td>
                                    <strong>255.1 H</strong>
                                 </td>
                                 <td>0 - 200</td>
                                 <td>mg/dL</td>
                              </tr>
                              <tr>
                                 <td>Triglyceride [Mass/volume] in Serum or Plasma</td>
                                 <td>110.8</td>
                                 <td>0 - 150</td>
                                 <td>mg/dL</td>
                              </tr>
                              <tr>
                                 <td>Cholesterol in LDL [Mass/volume] in Serum or Plasma by Direct assay</td>
                                 <td>
                                    <strong>181.2 H</strong>
                                 </td>
                                 <td>0 - 130</td>
                                 <td>mg/dL</td>
                              </tr>
                              <tr>
                                 <td>Cholesterol in HDL [Mass/volume] in Serum or Plasma</td>
                                 <td>51.8</td>
                                 <td>40 - 60</td>
                                 <td>mg/dL</td>
                              </tr>
                           </tbody>
                        </table>
                     </div>
                  </text>
                  <entry>
                     <reference value="urn:uuid:ddf1d86b-defe-4b45-8c6b-d197bc050e9d"/>
                  </entry>
                  <entry>
                     <reference value="urn:uuid:0ec3f06b-cbb1-41a3-ad18-b3a0203b3aae"/>
                  </entry>
                  <entry>
                     <reference value="urn:uuid:afa162bf-3250-437b-add1-c2b6d510b166"/>
                  </entry>
                  <entry>
                     <reference value="urn:uuid:a341a9c3-427f-42e0-b4a5-68e41899b730"/>
                  </entry>
               </section>
            </section>
            <section>
               <title value="Annotation comment"/>
               <code>
                  <coding>
                     <system value="http://loinc.org"/>
                     <code value="48767-8"/>
                     <display value="Annotation comment"/>
                  </coding>
               </code>
               <text>
                  <status value="generated"/>
                  <div xmlns="http://www.w3.org/1999/xhtml">
                     <h3>Annotation</h3>
                     <table class="hl7__eu__lab__report">
                        <tr>
                           <th>Conclusion and Recommendations based on this report and previous findings known to us</th>
                        </tr>
                        <tr>
                           <td>The patient shows elevated total cholesterol and LDL cholesterol, while triglycerides and HDL cholesterol are within normal limits. These findings indicate increased cardiovascular risk, primarily due to high LDL. Clinical correlation and consideration of lifestyle modification or lipid-lowering therapy are recommended.</td>
                        </tr>
                     </table>
                  </div>
               </text>
            </section>
         </Composition>
      </resource>
   </entry>
   <entry>
      <fullUrl value="urn:uuid:70561901-fef4-40ff-9ac6-322d0fe7097c"/>
      <resource>
         <DiagnosticReport>
            <id value="70561901-fef4-40ff-9ac6-322d0fe7097c"/>
            <meta>
               <profile value="http://hl7.eu/fhir/laboratory/StructureDefinition/DiagnosticReport-eu-lab"/>
            </meta>
            <extension url="http://hl7.org/fhir/5.0/StructureDefinition/extension-DiagnosticReport.composition">
               <valueReference>
                  <reference value="urn:uuid:c5abf2e0-7824-4574-a8f4-526c7e8519d3"/>
               </valueReference>
            </extension>
            <identifier>
               <system value="urn:oid:2.16.840.1.113883.2.51.999"/>
               <value value="a33e93c1-f554-4f73-a87b-5245b07c98b8"/>
               <assigner>
                  <display value="HL7 Europe"/>
               </assigner>
            </identifier>
            <status value="registered"/>
            <category>
               <coding>
                  <system value="http://loinc.org"/>
                  <code value="26436-6"/>
                  <display value="Laboratory studies (set)"/>
               </coding>
            </category>
            <code>
               <coding>
                  <system value="http://loinc.org"/>
                  <code value="11502-2"/>
                  <display value="Laboratory report"/>
               </coding>
            </code>
            <subject>
               <reference value="urn:uuid:c8ff7f5a-342a-4313-a22d-ef2654d1dc7b"/>
               <display value="Russell Khan"/>
            </subject>
            <specimen>
               <reference value="urn:uuid:538671d5-ba3a-4d72-b617-ee1451f3ae53"/>
            </specimen>
            <result>
               <reference value="urn:uuid:ddf1d86b-defe-4b45-8c6b-d197bc050e9d"/>
            </result>
            <result>
               <reference value="urn:uuid:0ec3f06b-cbb1-41a3-ad18-b3a0203b3aae"/>
            </result>
            <result>
               <reference value="urn:uuid:afa162bf-3250-437b-add1-c2b6d510b166"/>
            </result>
            <result>
               <reference value="urn:uuid:a341a9c3-427f-42e0-b4a5-68e41899b730"/>
            </result>
         </DiagnosticReport>
      </resource>
   </entry>
   <entry>
      <fullUrl value="urn:uuid:c8ff7f5a-342a-4313-a22d-ef2654d1dc7b"/>
      <resource>
         <Patient>
            <id value="c8ff7f5a-342a-4313-a22d-ef2654d1dc7b"/>
            <meta>
               <profile value="http://hl7.eu/fhir/base/StructureDefinition/patient-eu-core"/>
               <security>
                  <system value="http://terminology.hl7.org/CodeSystem/v3-ActReason"/>
                  <code value="HTEST"/>
               </security>
               <security>
                  <system value="http://terminology.hl7.org/CodeSystem/v3-ActReason"/>
                  <code value="TRAIN"/>
               </security>
               <tag>
                  <system value="https://synderai.net/fhir/CodeSystem/tags"/>
                  <code value="synthetic"/>
                  <display value="SYNDERAI Synthetic data"/>
               </tag>
            </meta>
            <text>
               <status value="generated"/>
               <div xmlns="http://www.w3.org/1999/xhtml">
                  <table class="hl7__ips">
                     <tr>
                        <td>Russell Khan</td>
                        <td>male</td>
                        <td>29-Aug-1980</td>
                     </tr>
                  </table>
               </div>
            </text>
            <extension url="http://hl7.org/fhir/StructureDefinition/patient-nationality">
               <valueCodeableConcept>
                  <coding>
                     <system value="http://hl7.org/fhir/ValueSet/country"/>
                     <code value="GB"/>
                  </coding>
               </valueCodeableConcept>
            </extension>
            <identifier>
               <type>
                  <coding>
                     <system value="http://terminology.hl7.org/CodeSystem/v2-0203"/>
                     <code value="PT"/>
                  </coding>
               </type>
               <system value="http://ec.europa.eu/identifier/eci"/>
               <value value="7982-255119-2"/>
            </identifier>
            <identifier>
               <type>
                  <coding>
                     <system value="http://terminology.hl7.org/CodeSystem/v2-0203"/>
                     <code value="MR"/>
                  </coding>
               </type>
               <system value="http://local.setting.eu/identifier"/>
               <value value="7070b0e2-4aa2-c981-d552-92289a13285c"/>
            </identifier>
            <name>
               <family value="Khan"/>
            </name>
            <name>
               <given value="Russell"/>
            </name>
            <name>
               <text value="Russell Khan"/>
            </name>
            <telecom>
               <system value="phone"/>
               <value value="0115 4960345"/>
            </telecom>
            <gender value="male"/>
            <birthDate value="1980-08-29"/>
            <address>
               <use value="home"/>
               <type value="physical"/>
               <line value="1 Holly well"/>
               <city value="Allantown"/>
               <postalCode value="B9"/>
               <country value="United Kingdom"/>
            </address>
         </Patient>
      </resource>
   </entry>
   <entry>
      <fullUrl value="urn:uuid:dbc01fb7-99a3-426b-badb-711af8834218"/>
      <resource>
         <ServiceRequest>
            <id value="dbc01fb7-99a3-426b-badb-711af8834218"/>
            <meta>
               <profile value="http://hl7.eu/fhir/laboratory/StructureDefinition/ServiceRequest-eu-lab"/>
            </meta>
            <identifier>
               <system value="http://example.org"/>
               <value value="7ab709f2-c438-4d04-ad9d-8ae2604ce790"/>
            </identifier>
            <status value="active"/>
            <intent value="order"/>
            <code>
               <coding>
                  <system value="http://snomed.info/sct"/>
                  <code value="108252007"/>
                  <display value="Laboratory procedure"/>
               </coding>
            </code>
            <subject>
               <reference value="urn:uuid:c8ff7f5a-342a-4313-a22d-ef2654d1dc7b"/>
               <display value="Russell Khan"/>
            </subject>
            <requester>
               <reference value="urn:uuid:4f12482a-d69e-4426-8def-bfc26f774d25"/>
            </requester>
            <reasonCode>
               <coding>
                  <system value="http://snomed.info/sct"/>
                  <code value="59621000"/>
                  <display value="Essential hypertension"/>
               </coding>
            </reasonCode>
            <specimen>
               <reference value="urn:uuid:538671d5-ba3a-4d72-b617-ee1451f3ae53"/>
            </specimen>
         </ServiceRequest>
      </resource>
   </entry>
   <entry>
      <fullUrl value="urn:uuid:4f12482a-d69e-4426-8def-bfc26f774d25"/>
      <resource>
         <PractitionerRole>
            <id value="4f12482a-d69e-4426-8def-bfc26f774d25"/>
            <meta>
               <profile value="http://hl7.eu/fhir/base/StructureDefinition/practitionerRole-eu"/>
            </meta>
            <text>
               <status value="generated"/>
               <div xmlns="http://www.w3.org/1999/xhtml">Provider Role Id: 4f12482a-d69e-4426-8def-bfc26f774d25</div>
            </text>
            <organization>
               <reference value="urn:uuid:d8dddc9b-f8ff-4651-ac29-8d2405c74aa5"/>
            </organization>
         </PractitionerRole>
      </resource>
   </entry>
   <entry>
      <fullUrl value="urn:uuid:d8dddc9b-f8ff-4651-ac29-8d2405c74aa5"/>
      <resource>
         <Organization>
            <id value="d8dddc9b-f8ff-4651-ac29-8d2405c74aa5"/>
            <meta>
               <profile value="http://hl7.eu/fhir/base/StructureDefinition/organization-eu"/>
            </meta>
            <text>
               <status value="generated"/>
               <div xmlns="http://www.w3.org/1999/xhtml">Provider Organization: Birmingham Children's Hospital</div>
            </text>
            <identifier>
               <system value="urn:oid:2.16.840.1.113883.2.51.999"/>
               <value value="9f64f067-c887-4eb8-915c-1b7ef5b4f393"/>
               <assigner>
                  <display value="HL7 Europe"/>
               </assigner>
            </identifier>
            <name value="Birmingham Children&amp;#039;s Hospital"/>
            <address>
               <city value="Birmingham"/>
               <postalCode value="B4 6"/>
               <country value="United Kingdom"/>
            </address>
         </Organization>
      </resource>
   </entry>
   <entry>
      <fullUrl value="urn:uuid:538671d5-ba3a-4d72-b617-ee1451f3ae53"/>
      <resource>
         <Specimen>
            <id value="538671d5-ba3a-4d72-b617-ee1451f3ae53"/>
            <meta>
               <profile value="http://hl7.eu/fhir/laboratory/StructureDefinition/Specimen-eu-lab"/>
            </meta>
            <text>
               <status value="generated"/>
               <div xmlns="http://www.w3.org/1999/xhtml">
                  <table class="hl7__eu__lab__report">
                     <tr>
                        <th>Specimen</th>
                        <th>Collection Date</th>
                     </tr>
                     <tr>
                        <td>Acellular blood (serum or plasma) specimen</td>
                        <td>
                           <span class="nb">19-Jan-2025</span>
                        </td>
                     </tr>
                  </table>
               </div>
            </text>
            <type>
               <coding>
                  <system value="http://snomed.info/sct"/>
                  <code value="122592007"/>
                  <display value="Acellular blood (serum or plasma) specimen"/>
               </coding>
            </type>
            <collection>
               <collectedDateTime value="2025-01-19"/>
            </collection>
         </Specimen>
      </resource>
   </entry>
   <entry>
      <fullUrl value="urn:uuid:ddf1d86b-defe-4b45-8c6b-d197bc050e9d"/>
      <resource>
         <Observation>
            <id value="ddf1d86b-defe-4b45-8c6b-d197bc050e9d"/>
            <meta>
               <profile value="http://hl7.eu/fhir/laboratory/StructureDefinition/Observation-resultslab-eu-lab"/>
            </meta>
            <text>
               <status value="generated"/>
               <div xmlns="http://www.w3.org/1999/xhtml">
                  <table class="hl7__eu__lab__report">
                     <tr>
                        <th>Test</th>
                        <th>19-Jan-2025</th>
                        <th>Reference Range</th>
                        <th>Unit</th>
                     </tr>
                     <tr>
                        <td>Cholesterol [Mass/volume] in Serum or Plasma</td>
                        <td>255.1</td>
                        <td>0 - 200</td>
                        <td>H</td>
                        <td>mg/dL</td>
                     </tr>
                  </table>
               </div>
            </text>
            <status value="final"/>
            <category>
               <coding>
                  <system value="http://terminology.hl7.org/CodeSystem/observation-category"/>
                  <code value="laboratory"/>
               </coding>
            </category>
            <code>
               <coding>
                  <system value="http://loinc.org"/>
                  <code value="2093-3"/>
                  <display value="Cholesterol [Mass/volume] in Serum or Plasma"/>
               </coding>
               <text value="Cholesterol [Mass/volume] in Serum or Plasma"/>
            </code>
            <subject>
               <reference value="urn:uuid:c8ff7f5a-342a-4313-a22d-ef2654d1dc7b"/>
               <display value="Russell Khan"/>
            </subject>
            <effectiveDateTime value="2025-01-19T13:31:07Z"/>
            <performer>
               <display value="The Central European Lab"/>
            </performer>
            <valueQuantity>
               <value value="255.1"/>
               <unit value="mg/dL"/>
               <system value="http://unitsofmeasure.org"/>
               <code value="mg/dL"/>
            </valueQuantity>
            <interpretation>
               <coding>
                  <system value="http://terminology.hl7.org/CodeSystem/v3-ObservationInterpretation"/>
                  <code value="H"/>
                  <display value="High"/>
               </coding>
            </interpretation>
            <specimen>
               <reference value="urn:uuid:538671d5-ba3a-4d72-b617-ee1451f3ae53"/>
            </specimen>
            <referenceRange>
               <low>
                  <value value="0"/>
                  <system value="http://unitsofmeasure.org"/>
                  <code value="mg/dL"/>
               </low>
            </referenceRange>
            <referenceRange>
               <high>
                  <value value="200"/>
                  <system value="http://unitsofmeasure.org"/>
                  <code value="mg/dL"/>
               </high>
            </referenceRange>
         </Observation>
      </resource>
   </entry>
   <entry>
      <fullUrl value="urn:uuid:0ec3f06b-cbb1-41a3-ad18-b3a0203b3aae"/>
      <resource>
         <Observation>
            <id value="0ec3f06b-cbb1-41a3-ad18-b3a0203b3aae"/>
            <meta>
               <profile value="http://hl7.eu/fhir/laboratory/StructureDefinition/Observation-resultslab-eu-lab"/>
            </meta>
            <text>
               <status value="generated"/>
               <div xmlns="http://www.w3.org/1999/xhtml">
                  <table class="hl7__eu__lab__report">
                     <tr>
                        <th>Test</th>
                        <th>19-Jan-2025</th>
                        <th>Reference Range</th>
                        <th>Unit</th>
                     </tr>
                     <tr>
                        <td>Triglyceride [Mass/volume] in Serum or Plasma</td>
                        <td>110.8</td>
                        <td>0 - 150</td>
                        <td/>
                        <td>mg/dL</td>
                     </tr>
                  </table>
               </div>
            </text>
            <status value="final"/>
            <category>
               <coding>
                  <system value="http://terminology.hl7.org/CodeSystem/observation-category"/>
                  <code value="laboratory"/>
               </coding>
            </category>
            <code>
               <coding>
                  <system value="http://loinc.org"/>
                  <code value="2571-8"/>
                  <display value="Triglyceride [Mass/volume] in Serum or Plasma"/>
               </coding>
               <text value="Triglyceride [Mass/volume] in Serum or Plasma"/>
            </code>
            <subject>
               <reference value="urn:uuid:c8ff7f5a-342a-4313-a22d-ef2654d1dc7b"/>
               <display value="Russell Khan"/>
            </subject>
            <effectiveDateTime value="2025-01-19T13:31:07Z"/>
            <performer>
               <display value="The Central European Lab"/>
            </performer>
            <valueQuantity>
               <value value="110.8"/>
               <unit value="mg/dL"/>
               <system value="http://unitsofmeasure.org"/>
               <code value="mg/dL"/>
            </valueQuantity>
            <specimen>
               <reference value="urn:uuid:538671d5-ba3a-4d72-b617-ee1451f3ae53"/>
            </specimen>
            <referenceRange>
               <low>
                  <value value="0"/>
                  <system value="http://unitsofmeasure.org"/>
                  <code value="mg/dL"/>
               </low>
            </referenceRange>
            <referenceRange>
               <high>
                  <value value="150"/>
                  <system value="http://unitsofmeasure.org"/>
                  <code value="mg/dL"/>
               </high>
            </referenceRange>
         </Observation>
      </resource>
   </entry>
   <entry>
      <fullUrl value="urn:uuid:afa162bf-3250-437b-add1-c2b6d510b166"/>
      <resource>
         <Observation>
            <id value="afa162bf-3250-437b-add1-c2b6d510b166"/>
            <meta>
               <profile value="http://hl7.eu/fhir/laboratory/StructureDefinition/Observation-resultslab-eu-lab"/>
            </meta>
            <text>
               <status value="generated"/>
               <div xmlns="http://www.w3.org/1999/xhtml">
                  <table class="hl7__eu__lab__report">
                     <tr>
                        <th>Test</th>
                        <th>19-Jan-2025</th>
                        <th>Reference Range</th>
                        <th>Unit</th>
                     </tr>
                     <tr>
                        <td>Cholesterol in LDL [Mass/volume] in Serum or Plasma by Direct assay</td>
                        <td>181.2</td>
                        <td>0 - 130</td>
                        <td>H</td>
                        <td>mg/dL</td>
                     </tr>
                  </table>
               </div>
            </text>
            <status value="final"/>
            <category>
               <coding>
                  <system value="http://terminology.hl7.org/CodeSystem/observation-category"/>
                  <code value="laboratory"/>
               </coding>
            </category>
            <code>
               <coding>
                  <system value="http://loinc.org"/>
                  <code value="18262-6"/>
                  <display value="Cholesterol in LDL [Mass/volume] in Serum or Plasma by Direct assay"/>
               </coding>
               <text value="Cholesterol in LDL [Mass/volume] in Serum or Plasma by Direct assay"/>
            </code>
            <subject>
               <reference value="urn:uuid:c8ff7f5a-342a-4313-a22d-ef2654d1dc7b"/>
               <display value="Russell Khan"/>
            </subject>
            <effectiveDateTime value="2025-01-19T13:31:07Z"/>
            <performer>
               <display value="The Central European Lab"/>
            </performer>
            <valueQuantity>
               <value value="181.2"/>
               <unit value="mg/dL"/>
               <system value="http://unitsofmeasure.org"/>
               <code value="mg/dL"/>
            </valueQuantity>
            <interpretation>
               <coding>
                  <system value="http://terminology.hl7.org/CodeSystem/v3-ObservationInterpretation"/>
                  <code value="H"/>
                  <display value="High"/>
               </coding>
            </interpretation>
            <specimen>
               <reference value="urn:uuid:538671d5-ba3a-4d72-b617-ee1451f3ae53"/>
            </specimen>
            <referenceRange>
               <low>
                  <value value="0"/>
                  <system value="http://unitsofmeasure.org"/>
                  <code value="mg/dL"/>
               </low>
            </referenceRange>
            <referenceRange>
               <high>
                  <value value="130"/>
                  <system value="http://unitsofmeasure.org"/>
                  <code value="mg/dL"/>
               </high>
            </referenceRange>
         </Observation>
      </resource>
   </entry>
   <entry>
      <fullUrl value="urn:uuid:a341a9c3-427f-42e0-b4a5-68e41899b730"/>
      <resource>
         <Observation>
            <id value="a341a9c3-427f-42e0-b4a5-68e41899b730"/>
            <meta>
               <profile value="http://hl7.eu/fhir/laboratory/StructureDefinition/Observation-resultslab-eu-lab"/>
            </meta>
            <text>
               <status value="generated"/>
               <div xmlns="http://www.w3.org/1999/xhtml">
                  <table class="hl7__eu__lab__report">
                     <tr>
                        <th>Test</th>
                        <th>19-Jan-2025</th>
                        <th>Reference Range</th>
                        <th>Unit</th>
                     </tr>
                     <tr>
                        <td>Cholesterol in HDL [Mass/volume] in Serum or Plasma</td>
                        <td>51.8</td>
                        <td>40 - 60</td>
                        <td/>
                        <td>mg/dL</td>
                     </tr>
                  </table>
               </div>
            </text>
            <status value="final"/>
            <category>
               <coding>
                  <system value="http://terminology.hl7.org/CodeSystem/observation-category"/>
                  <code value="laboratory"/>
               </coding>
            </category>
            <code>
               <coding>
                  <system value="http://loinc.org"/>
                  <code value="2085-9"/>
                  <display value="Cholesterol in HDL [Mass/volume] in Serum or Plasma"/>
               </coding>
               <text value="Cholesterol in HDL [Mass/volume] in Serum or Plasma"/>
            </code>
            <subject>
               <reference value="urn:uuid:c8ff7f5a-342a-4313-a22d-ef2654d1dc7b"/>
               <display value="Russell Khan"/>
            </subject>
            <effectiveDateTime value="2025-01-19T13:31:07Z"/>
            <performer>
               <display value="The Central European Lab"/>
            </performer>
            <valueQuantity>
               <value value="51.8"/>
               <unit value="mg/dL"/>
               <system value="http://unitsofmeasure.org"/>
               <code value="mg/dL"/>
            </valueQuantity>
            <specimen>
               <reference value="urn:uuid:538671d5-ba3a-4d72-b617-ee1451f3ae53"/>
            </specimen>
            <referenceRange>
               <low>
                  <value value="40"/>
                  <system value="http://unitsofmeasure.org"/>
                  <code value="mg/dL"/>
               </low>
            </referenceRange>
            <referenceRange>
               <high>
                  <value value="60"/>
                  <system value="http://unitsofmeasure.org"/>
                  <code value="mg/dL"/>
               </high>
            </referenceRange>
         </Observation>
      </resource>
   </entry>
   <entry>
      <fullUrl value="urn:uuid:abe78853-dfbb-4a4b-822d-b5b456c78883"/>
      <resource>
         <Device>
            <id value="abe78853-dfbb-4a4b-822d-b5b456c78883"/>
            <text>
               <status value="generated"/>
               <div xmlns="http://www.w3.org/1999/xhtml">SYNDERAI Synthetic Generator v5.0</div>
            </text>
            <status value="active&#34;"/>
            <distinctIdentifier value="synderai-generator-50"/>
            <manufacturer value="SYNDERAI Project"/>
            <deviceName>
               <name value="SYNDERAI Synthetic Generator"/>
               <type value="manufacturer-name"/>
            </deviceName>
            <version>
               <value value="5.0"/>
            </version>
         </Device>
      </resource>
   </entry>
   <entry>
      <fullUrl value="urn:uuid:0bc54e94-626d-47d8-9934-1a030da4fa4f"/>
      <resource>
         <Provenance>
            <id value="0bc54e94-626d-47d8-9934-1a030da4fa4f"/>
            <text>
               <status value="generated"/>
               <div xmlns="http://www.w3.org/1999/xhtml">Provenance for SYNDERAI Synthetic Example Data Resource</div>
            </text>
            <target>
               <reference value="Patient/c8ff7f5a-342a-4313-a22d-ef2654d1dc7b"/>
            </target>
            <target>
               <reference value="Bundle/35b9d544-ae23-4d68-8c90-2e6d44ed0b57"/>
            </target>
            <target>
               <reference value="Composition/a823e9be-5b89-4465-9beb-0723e32a62ed"/>
            </target>
            <target>
               <reference value="PractitionerRole/26e8018d-a8fd-4533-bda1-0cecc3776fcd"/>
            </target>
            <target>
               <reference value="Practitioner/527a84fb-97b5-43e1-a28a-8e24daa3e3e6"/>
            </target>
            <target>
               <reference value="PractitionerRole/4f12482a-d69e-4426-8def-bfc26f774d25"/>
            </target>
            <target>
               <reference value="Organization/d8dddc9b-f8ff-4651-ac29-8d2405c74aa5"/>
            </target>
            <recorded value="2025-01-19T14:31:07Z"/>
            <policy value="https://synderai.net/synderai-synthetic-data-policy"/>
            <reason>
               <text value="Interoperability Testing and Training (non-clinical use)"/>
            </reason>
            <activity>
               <text value="Synthetic Example Data Generation"/>
            </activity>
            <agent>
               <type>
                  <text value="author"/>
               </type>
               <who>
                  <reference value="Device/abe78853-dfbb-4a4b-822d-b5b456c78883"/>
               </who>
            </agent>
         </Provenance>
      </resource>
   </entry>
   <entry>
      <fullUrl value="urn:uuid:26e8018d-a8fd-4533-bda1-0cecc3776fcd"/>
      <resource>
         <PractitionerRole>
            <id value="26e8018d-a8fd-4533-bda1-0cecc3776fcd"/>
            <meta>
               <profile value="http://hl7.eu/fhir/base/StructureDefinition/practitionerRole-eu"/>
            </meta>
            <text>
               <status value="generated"/>
               <div xmlns="http://www.w3.org/1999/xhtml">Laboratory Role Id: 26e8018d-a8fd-4533-bda1-0cecc3776fcd</div>
            </text>
            <practitioner>
               <reference value="urn:uuid:527a84fb-97b5-43e1-a28a-8e24daa3e3e6"/>
            </practitioner>
         </PractitionerRole>
      </resource>
   </entry>
   <entry>
      <fullUrl value="urn:uuid:527a84fb-97b5-43e1-a28a-8e24daa3e3e6"/>
      <resource>
         <Practitioner>
            <id value="527a84fb-97b5-43e1-a28a-8e24daa3e3e6"/>
            <meta>
               <profile value="http://hl7.eu/fhir/base/StructureDefinition/practitioner-eu"/>
            </meta>
            <text>
               <status value="generated"/>
               <div xmlns="http://www.w3.org/1999/xhtml">Laboratory: Laboratoire Central Européenne, 1000 Brussels, Belgium</div>
            </text>
            <identifier>
               <system value="urn:oid:2.16.840.1.113883.2.51.999"/>
               <value value="23878a89-ad87-4dfe-bf19-22a5ab0d6283"/>
               <assigner>
                  <display value="HL7 Europe"/>
               </assigner>
            </identifier>
            <name>
               <family value="Ample"/>
               <given value="Ex"/>
               <prefix value="dr"/>
            </name>
            <address>
               <line value="Laboratoire Central Européenne"/>
               <line value="Boulevard du Jardin Botanique 32"/>
               <city value="Brussels"/>
               <postalCode value="1000"/>
               <country value="Belgium"/>
            </address>
         </Practitioner>
      </resource>
   </entry>
</Bundle>