{
  "resourceType": "Bundle",
  "id": "e9f3f297-06ad-4ec6-b74e-5a79160385b3",
  "meta": {
    "profile": [
      "http://hl7.eu/fhir/laboratory/StructureDefinition/Bundle-eu-lab"
    ]
  },
  "identifier": {
    "assigner": {
      "display": "HL7 Europe"
    },
    "system": "urn:oid:2.16.840.1.113883.2.51.999",
    "value": "eca34179-9979-44be-afe7-654d65b88467"
  },
  "entry": [
    {
      "fullUrl": "urn:uuid:fb622359-ae2e-4ea8-a49c-b4a83290fc0e",
      "resource": {
        "resourceType": "Composition",
        "id": "fb622359-ae2e-4ea8-a49c-b4a83290fc0e",
        "meta": {
          "profile": [
            "http://hl7.eu/fhir/laboratory/StructureDefinition/Composition-eu-lab"
          ]
        },
        "identifier": {
          "assigner": {
            "display": "HL7 Europe"
          },
          "system": "urn:oid:2.16.840.1.113883.2.51.999",
          "value": "eba3b8f6-eed4-4b87-b6c3-5e89ca043b27"
        },
        "author": [
          {
            "reference": "urn:uuid:79c9f6ac-89c8-41cb-a89d-659fcb04d7be"
          }
        ],
        "category": [
          {
            "coding": [
              {
                "code": "26436-6",
                "system": "http://loinc.org",
                "display": "Laboratory studies (set)"
              }
            ]
          }
        ],
        "type": {
          "coding": [
            {
              "code": "11502-2",
              "system": "http://loinc.org",
              "display": "Laboratory report"
            }
          ],
          "text": "Laboratory Report"
        },
        "section": [
          {
            "code": {
              "coding": [
                {
                  "code": "26436-6",
                  "system": "http://loinc.org",
                  "display": "Laboratory studies (set)"
                }
              ],
              "text": "Laboratory studies"
            },
            "section": [
              {
                "code": {
                  "coding": [
                    {
                      "code": "$18719-5",
                      "system": "http://loinc.org",
                      "display": "Chemistry studies (set)"
                    }
                  ],
                  "text": "Chemistry"
                },
                "entry": [
                  {
                    "reference": "urn:uuid:03c63809-0e74-481f-bbe3-eb5c12a6ed97"
                  },
                  {
                    "reference": "urn:uuid:65a7233a-08f1-474c-8992-be848dd53f80"
                  },
                  {
                    "reference": "urn:uuid:5abaac44-3457-4429-a171-4110a2a16cb2"
                  },
                  {
                    "reference": "urn:uuid:42318552-1278-4354-8bf5-64b6a33b18d1"
                  },
                  {
                    "reference": "urn:uuid:75a39ebb-0fc0-4b9d-aafa-673daf05b6c8"
                  },
                  {
                    "reference": "urn:uuid:79421888-0f56-4e27-a88d-0e5fe5e9cee1"
                  },
                  {
                    "reference": "urn:uuid:e55a7edc-772b-413d-9c91-ca4d56d362a5"
                  },
                  {
                    "reference": "urn:uuid:c3e8f130-e746-4f06-8e96-bccd6a5c789b"
                  },
                  {
                    "reference": "urn:uuid:e873407f-609b-4d42-8d8a-7387f7873443"
                  },
                  {
                    "reference": "urn:uuid:3cd839eb-35a7-49e0-bca5-7b1c0159d314"
                  },
                  {
                    "reference": "urn:uuid:b5a408fb-bb67-4872-8cb3-c0566271c04b"
                  },
                  {
                    "reference": "urn:uuid:b4dc4f96-dfb4-4549-9fbd-0d8b4cfdbff1"
                  },
                  {
                    "reference": "urn:uuid:85e3848d-3fa9-4682-bc31-d6d54341d4c5"
                  },
                  {
                    "reference": "urn:uuid:8aa33716-d0c0-45dd-be3a-d64d0e4d2400"
                  },
                  {
                    "reference": "urn:uuid:301c8f7d-6656-471c-84ef-26219a98b98d"
                  },
                  {
                    "reference": "urn:uuid:2ddae45b-2e77-4db2-ae81-6f630f29c525"
                  },
                  {
                    "reference": "urn:uuid:62e2e255-12a8-41f6-a611-13d9761fbfff"
                  },
                  {
                    "reference": "urn:uuid:7df177a8-0a56-41ad-a328-17bf2b2c6490"
                  },
                  {
                    "reference": "urn:uuid:5b8edce1-f96f-4c98-9fa4-791683142575"
                  }
                ],
                "text": {
                  "status": "generated",
                  "div": "<div xmlns=\"http://www.w3.org/1999/xhtml\"><h3>Chemistry</h3><table class=\"hl7__eu__lab__report\"><thead><tr><th>Test</th><th>31-MAR-2020</th><th>Reference&#xA0;Range</th><th>Unit</th></tr></thead><tbody><tr><td>Glucose [Mass/volume] in Blood</td><td>87.0</td><td>70 - 140</td><td>mg/dL</td></tr><tr><td>Urea nitrogen [Mass/volume] in Blood</td><td>14.0</td><td>7 - 20</td><td>mg/dL</td></tr><tr><td>Creatinine [Mass/volume] in Blood</td><td><strong>2.8 H</strong></td><td>0.6 - 1.1</td><td>mg/dL</td></tr><tr><td>Calcium [Mass/volume] in Blood</td><td>10.1</td><td>8.5 - 10.4</td><td>mg/dL</td></tr><tr><td>Sodium [Moles/volume] in Blood</td><td>139.3</td><td>135 - 145</td><td>mmol/L</td></tr><tr><td>Potassium [Moles/volume] in Blood</td><td>4.7</td><td>3.5 - 5.1</td><td>mmol/L</td></tr><tr><td>Chloride [Moles/volume] in Blood</td><td>108.0</td><td>98 - 108</td><td>mmol/L</td></tr><tr><td>Carbon dioxide, total [Moles/volume] in Blood</td><td>23.2</td><td>22 - 29</td><td>mmol/L</td></tr><tr><td>Protein [Mass/volume] in Serum or Plasma</td><td>7.4</td><td>6 - 8.3</td><td>g/dL</td></tr><tr><td>Albumin [Mass/volume] in Serum or Plasma</td><td><strong>5.4 H</strong></td><td>3.4 - 5</td><td>g/dL</td></tr><tr><td>Globulin [Mass/volume] in Serum by calculation</td><td>2.6</td><td>2 - 3.5</td><td>g/L</td></tr><tr><td>Bilirubin.total [Mass/volume] in Serum or Plasma</td><td>0.7</td><td>0.2 - 1.2</td><td>mg/dL</td></tr><tr><td>Alkaline phosphatase [Enzymatic activity/volume] in Serum or Plasma</td><td>48.0</td><td>44 - 104</td><td>U/L</td></tr><tr><td>Alanine aminotransferase [Enzymatic activity/volume] in Serum or Plasma</td><td>25.0</td><td>13 - 36</td><td>U/L</td></tr><tr><td>Aspartate aminotransferase [Enzymatic activity/volume] in Serum or Plasma</td><td>28.5</td><td>10 - 40</td><td>U/L</td></tr><tr><td>Cholesterol [Mass/volume] in Serum or Plasma</td><td>196.5</td><td>130 - 200</td><td>mg/dL</td></tr><tr><td>Triglyceride [Mass/volume] in Serum or Plasma</td><td><strong>190.6 H</strong></td><td>35 - 175</td><td>mg/dL</td></tr><tr><td>Cholesterol in LDL [Mass/volume] in Serum or Plasma by Direct assay</td><td>129.0</td><td>0 - 190</td><td>mg/dL</td></tr><tr><td>Cholesterol in HDL [Mass/volume] in Serum or Plasma</td><td>66.4</td><td>50 - 100</td><td>mg/dL</td></tr></tbody></table></div>"
                },
                "title": "Chemistry"
              }
            ],
            "title": "Laboratory Report"
          },
          {
            "text": {
              "status": "generated",
              "div": "<div xmlns=\"http://www.w3.org/1999/xhtml\"><h3>Annotation</h3><table class=\"hl7__eu__lab__report\"><tr><th>Conclusion and Recommendations based on this report and previous findings known to us</th></tr><tr><td>Renal function is impaired as indicated by elevated creatinine. Albumin is slightly above normal, which may reflect dehydration or other causes. Triglycerides are mildly elevated, suggesting a risk for dyslipidemia. Other parameters, including glucose, electrolytes, liver enzymes, and cholesterol, are within normal limits. Recommend further evaluation of renal function and lipid profile management.</td></tr></table></div>"
            },
            "code": {
              "coding": [
                {
                  "system": "http://loinc.org",
                  "code": "48767-8",
                  "display": "Annotation comment"
                }
              ]
            },
            "title": "Annotation comment"
          }
        ],
        "status": "final",
        "subject": {
          "reference": "urn:uuid:9ae742b1-f687-4d86-8698-288cad4f3f3d",
          "display": "Eileen Taylor"
        },
        "date": "2020-03-31T07:47:02Z",
        "title": "Laboratory Report",
        "confidentiality": "N"
      }
    },
    {
      "fullUrl": "urn:uuid:3c96f860-604b-4235-866c-822d4669fd7f",
      "resource": {
        "resourceType": "DiagnosticReport",
        "id": "3c96f860-604b-4235-866c-822d4669fd7f",
        "meta": {
          "profile": [
            "http://hl7.eu/fhir/laboratory/StructureDefinition/DiagnosticReport-eu-lab"
          ]
        },
        "identifier": [
          {
            "assigner": {
              "display": "HL7 Europe"
            },
            "system": "urn:oid:2.16.840.1.113883.2.51.999",
            "value": "3e282dae-4a67-41b7-a93a-898ce7b5ff7e"
          }
        ],
        "extension": [
          {
            "url": "http://hl7.org/fhir/5.0/StructureDefinition/extension-DiagnosticReport.composition",
            "valueReference": {
              "reference": "urn:uuid:eba3b8f6-eed4-4b87-b6c3-5e89ca043b27"
            }
          }
        ],
        "category": [
          {
            "coding": [
              {
                "code": "26436-6",
                "system": "http://loinc.org",
                "display": "Laboratory studies (set)"
              }
            ]
          }
        ],
        "specimen": [
          {
            "reference": "urn:uuid:caa95329-71a2-4b22-aec4-22d2fbeddb1f"
          },
          {
            "reference": "urn:uuid:357d71e3-a3d7-4d12-acc7-639fde4cccde"
          },
          {
            "reference": "urn:uuid:1f581632-826d-4822-b14a-83dfb5b43c34"
          }
        ],
        "result": [
          {
            "reference": "urn:uuid:03c63809-0e74-481f-bbe3-eb5c12a6ed97"
          },
          {
            "reference": "urn:uuid:65a7233a-08f1-474c-8992-be848dd53f80"
          },
          {
            "reference": "urn:uuid:5abaac44-3457-4429-a171-4110a2a16cb2"
          },
          {
            "reference": "urn:uuid:42318552-1278-4354-8bf5-64b6a33b18d1"
          },
          {
            "reference": "urn:uuid:75a39ebb-0fc0-4b9d-aafa-673daf05b6c8"
          },
          {
            "reference": "urn:uuid:79421888-0f56-4e27-a88d-0e5fe5e9cee1"
          },
          {
            "reference": "urn:uuid:e55a7edc-772b-413d-9c91-ca4d56d362a5"
          },
          {
            "reference": "urn:uuid:c3e8f130-e746-4f06-8e96-bccd6a5c789b"
          },
          {
            "reference": "urn:uuid:e873407f-609b-4d42-8d8a-7387f7873443"
          },
          {
            "reference": "urn:uuid:3cd839eb-35a7-49e0-bca5-7b1c0159d314"
          },
          {
            "reference": "urn:uuid:b5a408fb-bb67-4872-8cb3-c0566271c04b"
          },
          {
            "reference": "urn:uuid:b4dc4f96-dfb4-4549-9fbd-0d8b4cfdbff1"
          },
          {
            "reference": "urn:uuid:85e3848d-3fa9-4682-bc31-d6d54341d4c5"
          },
          {
            "reference": "urn:uuid:8aa33716-d0c0-45dd-be3a-d64d0e4d2400"
          },
          {
            "reference": "urn:uuid:301c8f7d-6656-471c-84ef-26219a98b98d"
          },
          {
            "reference": "urn:uuid:2ddae45b-2e77-4db2-ae81-6f630f29c525"
          },
          {
            "reference": "urn:uuid:62e2e255-12a8-41f6-a611-13d9761fbfff"
          },
          {
            "reference": "urn:uuid:7df177a8-0a56-41ad-a328-17bf2b2c6490"
          },
          {
            "reference": "urn:uuid:5b8edce1-f96f-4c98-9fa4-791683142575"
          }
        ],
        "status": "registered",
        "code": {
          "coding": [
            {
              "code": "11502-2",
              "system": "http://loinc.org",
              "display": "Laboratory report"
            }
          ]
        },
        "subject": {
          "reference": "urn:uuid:9ae742b1-f687-4d86-8698-288cad4f3f3d",
          "display": "Eileen Taylor"
        }
      }
    },
    {
      "fullUrl": "urn:uuid:9ae742b1-f687-4d86-8698-288cad4f3f3d",
      "resource": {
        "resourceType": "Patient",
        "id": "9ae742b1-f687-4d86-8698-288cad4f3f3d",
        "meta": {
          "security": [
            {
              "system": "http://terminology.hl7.org/CodeSystem/v3-ActReason",
              "code": "HTEST"
            },
            {
              "system": "http://terminology.hl7.org/CodeSystem/v3-ActReason",
              "code": "TRAIN"
            }
          ],
          "tag": [
            {
              "system": "https://synderai.net/fhir/CodeSystem/tags",
              "code": "synthetic",
              "display": "SYNDERAI Synthetic data"
            }
          ],
          "profile": [
            "http://hl7.eu/fhir/base/StructureDefinition/patient-eu-core"
          ]
        },
        "identifier": [
          {
            "type": {
              "coding": [
                {
                  "code": "PT",
                  "system": "http://terminology.hl7.org/CodeSystem/v2-0203"
                }
              ]
            },
            "system": "http://ec.europa.eu/identifier/eci",
            "value": "6172-576075-7"
          },
          {
            "type": {
              "coding": [
                {
                  "code": "MR",
                  "system": "http://terminology.hl7.org/CodeSystem/v2-0203"
                }
              ]
            },
            "system": "http://local.setting.eu/identifier",
            "value": "f7f175da-cf0d-5686-8800-840d9ab7b47b"
          }
        ],
        "name": [
          {
            "family": "Taylor"
          },
          {
            "given": [
              "Eileen"
            ]
          },
          {
            "text": "Eileen Taylor"
          }
        ],
        "address": [
          {
            "line": [
              "39 Slater harbors"
            ],
            "use": "home",
            "type": "physical",
            "postalCode": "LE17",
            "city": "Smithtown",
            "country": "United Kingdom"
          }
        ],
        "telecom": [
          {
            "system": "phone",
            "value": "+44(0)1614960460"
          }
        ],
        "extension": [
          {
            "url": "http://hl7.org/fhir/StructureDefinition/patient-nationality",
            "valueCodeableConcept": {
              "coding": [
                {
                  "code": "GB",
                  "system": "http://hl7.org/fhir/ValueSet/country"
                }
              ]
            }
          }
        ],
        "text": {
          "status": "generated",
          "div": "<div xmlns=\"http://www.w3.org/1999/xhtml\"><table class=\"hl7__ips\"><tr><td>Eileen Taylor</td><td>female</td><td>11-Dec-1951</td></tr></table></div>"
        },
        "gender": "female",
        "birthDate": "1951-12-11"
      }
    },
    {
      "fullUrl": "urn:uuid:710107fb-695f-4303-89eb-78a7f3f8ce7f",
      "resource": {
        "resourceType": "ServiceRequest",
        "id": "710107fb-695f-4303-89eb-78a7f3f8ce7f",
        "meta": {
          "profile": [
            "http://hl7.eu/fhir/laboratory/StructureDefinition/ServiceRequest-eu-lab"
          ]
        },
        "identifier": [
          {
            "system": "http://example.org",
            "value": "90ad44c8-8af0-4cef-9ec4-a120c40425fc"
          }
        ],
        "specimen": [
          {
            "reference": "urn:uuid:caa95329-71a2-4b22-aec4-22d2fbeddb1f"
          },
          {
            "reference": "urn:uuid:357d71e3-a3d7-4d12-acc7-639fde4cccde"
          },
          {
            "reference": "urn:uuid:1f581632-826d-4822-b14a-83dfb5b43c34"
          }
        ],
        "reasonCode": [
          {
            "coding": [
              {
                "code": "203082005",
                "system": "http://snomed.info/sct",
                "display": "Fibromyalgia"
              }
            ]
          },
          {
            "coding": [
              {
                "code": "239873007",
                "system": "http://snomed.info/sct",
                "display": "Osteoarthritis of knee"
              }
            ]
          },
          {
            "coding": [
              {
                "code": "55822004",
                "system": "http://snomed.info/sct",
                "display": "Hyperlipidemia"
              }
            ]
          },
          {
            "coding": [
              {
                "code": "254837009",
                "system": "http://snomed.info/sct",
                "display": "Malignant neoplasm of breast"
              }
            ]
          },
          {
            "coding": [
              {
                "code": "197927001",
                "system": "http://snomed.info/sct",
                "display": "Recurrent urinary tract infection"
              }
            ]
          }
        ],
        "status": "active",
        "intent": "order",
        "code": {
          "coding": [
            {
              "code": "108252007",
              "system": "http://snomed.info/sct",
              "display": "Laboratory procedure"
            }
          ]
        },
        "subject": {
          "reference": "urn:uuid:9ae742b1-f687-4d86-8698-288cad4f3f3d",
          "display": "Eileen Taylor"
        },
        "requester": {
          "reference": "urn:uuid:5ab10e1a-57c9-4c0a-ab90-cd8699b2884f"
        }
      }
    },
    {
      "fullUrl": "urn:uuid:5ab10e1a-57c9-4c0a-ab90-cd8699b2884f",
      "resource": {
        "resourceType": "PractitionerRole",
        "id": "5ab10e1a-57c9-4c0a-ab90-cd8699b2884f",
        "meta": {
          "profile": [
            "http://hl7.eu/fhir/base/StructureDefinition/practitionerRole-eu"
          ]
        },
        "text": {
          "status": "generated",
          "div": "<div xmlns=\"http://www.w3.org/1999/xhtml\">Provider Role Id: 5ab10e1a-57c9-4c0a-ab90-cd8699b2884f</div>"
        },
        "organization": {
          "reference": "urn:uuid:61dbdf06-5b58-4c8a-9907-64eb1b845c8d"
        }
      }
    },
    {
      "fullUrl": "urn:uuid:61dbdf06-5b58-4c8a-9907-64eb1b845c8d",
      "resource": {
        "resourceType": "Organization",
        "id": "61dbdf06-5b58-4c8a-9907-64eb1b845c8d",
        "meta": {
          "profile": [
            "http://hl7.eu/fhir/base/StructureDefinition/organization-eu"
          ]
        },
        "identifier": [
          {
            "assigner": {
              "display": "HL7 Europe"
            },
            "system": "urn:oid:2.16.840.1.113883.2.51.999",
            "value": "d1ab1eb0-2d4c-4a6b-a3f4-b8934d4893f9"
          }
        ],
        "address": [
          {
            "city": "Leicester",
            "postalCode": "LE2 7",
            "country": "United Kingdom"
          }
        ],
        "text": {
          "status": "generated",
          "div": "<div xmlns=\"http://www.w3.org/1999/xhtml\">Provider Organization: Leicester Royal Infirmary</div>"
        },
        "name": "Leicester Royal Infirmary"
      }
    },
    {
      "fullUrl": "urn:uuid:caa95329-71a2-4b22-aec4-22d2fbeddb1f",
      "resource": {
        "resourceType": "Specimen",
        "id": "caa95329-71a2-4b22-aec4-22d2fbeddb1f",
        "meta": {
          "profile": [
            "http://hl7.eu/fhir/laboratory/StructureDefinition/Specimen-eu-lab"
          ]
        },
        "collection": {
          "collectedDateTime": "2020-03-31"
        },
        "text": {
          "status": "generated",
          "div": "<div xmlns=\"http://www.w3.org/1999/xhtml\"><table class=\"hl7__eu__lab__report\"><tr><th>Specimen</th><th>Collection Date</th></tr><tr><td>Whole blood specimen (specimen)</td><td><span class=\"nb\">31-Mar-2020</span></td></tr></table></div>"
        },
        "type": {
          "coding": [
            {
              "code": "258580003",
              "system": "http://snomed.info/sct",
              "display": "Whole blood specimen (specimen)"
            }
          ]
        }
      }
    },
    {
      "fullUrl": "urn:uuid:357d71e3-a3d7-4d12-acc7-639fde4cccde",
      "resource": {
        "resourceType": "Specimen",
        "id": "357d71e3-a3d7-4d12-acc7-639fde4cccde",
        "meta": {
          "profile": [
            "http://hl7.eu/fhir/laboratory/StructureDefinition/Specimen-eu-lab"
          ]
        },
        "collection": {
          "collectedDateTime": "2020-03-31"
        },
        "text": {
          "status": "generated",
          "div": "<div xmlns=\"http://www.w3.org/1999/xhtml\"><table class=\"hl7__eu__lab__report\"><tr><th>Specimen</th><th>Collection Date</th></tr><tr><td>Acellular blood (serum or plasma) specimen</td><td><span class=\"nb\">31-Mar-2020</span></td></tr></table></div>"
        },
        "type": {
          "coding": [
            {
              "code": "122592007",
              "system": "http://snomed.info/sct",
              "display": "Acellular blood (serum or plasma) specimen"
            }
          ]
        }
      }
    },
    {
      "fullUrl": "urn:uuid:1f581632-826d-4822-b14a-83dfb5b43c34",
      "resource": {
        "resourceType": "Specimen",
        "id": "1f581632-826d-4822-b14a-83dfb5b43c34",
        "meta": {
          "profile": [
            "http://hl7.eu/fhir/laboratory/StructureDefinition/Specimen-eu-lab"
          ]
        },
        "collection": {
          "collectedDateTime": "2020-03-31"
        },
        "text": {
          "status": "generated",
          "div": "<div xmlns=\"http://www.w3.org/1999/xhtml\"><table class=\"hl7__eu__lab__report\"><tr><th>Specimen</th><th>Collection Date</th></tr><tr><td>Serum specimen</td><td><span class=\"nb\">31-Mar-2020</span></td></tr></table></div>"
        },
        "type": {
          "coding": [
            {
              "code": "119364003",
              "system": "http://snomed.info/sct",
              "display": "Serum specimen"
            }
          ]
        }
      }
    },
    {
      "fullUrl": "urn:uuid:03c63809-0e74-481f-bbe3-eb5c12a6ed97",
      "resource": {
        "resourceType": "Observation",
        "id": "03c63809-0e74-481f-bbe3-eb5c12a6ed97",
        "meta": {
          "profile": [
            "http://hl7.eu/fhir/laboratory/StructureDefinition/Observation-resultslab-eu-lab"
          ]
        },
        "performer": [
          {
            "display": "The Central European Lab"
          }
        ],
        "category": [
          {
            "coding": [
              {
                "system": "http://terminology.hl7.org/CodeSystem/observation-category",
                "code": "laboratory"
              }
            ]
          }
        ],
        "code": {
          "coding": [
            {
              "code": "2339-0",
              "system": "http://loinc.org",
              "display": "Glucose [Mass/volume] in Blood"
            }
          ],
          "text": "Glucose [Mass/volume] in Blood"
        },
        "valueQuantity": {
          "system": "http://unitsofmeasure.org",
          "value": 87,
          "unit": "mg/dL",
          "code": "mg/dL"
        },
        "referenceRange": [
          {
            "low": {
              "value": 70,
              "code": "mg/dL",
              "system": "http://unitsofmeasure.org"
            }
          },
          {
            "high": {
              "value": 140,
              "code": "mg/dL",
              "system": "http://unitsofmeasure.org"
            }
          }
        ],
        "text": {
          "status": "generated",
          "div": "<div xmlns=\"http://www.w3.org/1999/xhtml\"><table class=\"hl7__eu__lab__report\"><tr><th>Test</th><th>31-Mar-2020</th><th>Reference&#xA0;Range</th><th>Unit</th></tr><tr><td>Glucose [Mass/volume] in Blood</td><td>87.0</td><td>70 - 140</td><td></td><td>mg/dL</td></tr></table></div>"
        },
        "status": "final",
        "subject": {
          "reference": "urn:uuid:9ae742b1-f687-4d86-8698-288cad4f3f3d",
          "display": "Eileen Taylor"
        },
        "effectiveDateTime": "2020-03-31T05:47:02Z",
        "specimen": {
          "reference": "urn:uuid:caa95329-71a2-4b22-aec4-22d2fbeddb1f"
        }
      }
    },
    {
      "fullUrl": "urn:uuid:65a7233a-08f1-474c-8992-be848dd53f80",
      "resource": {
        "resourceType": "Observation",
        "id": "65a7233a-08f1-474c-8992-be848dd53f80",
        "meta": {
          "profile": [
            "http://hl7.eu/fhir/laboratory/StructureDefinition/Observation-resultslab-eu-lab"
          ]
        },
        "performer": [
          {
            "display": "The Central European Lab"
          }
        ],
        "category": [
          {
            "coding": [
              {
                "system": "http://terminology.hl7.org/CodeSystem/observation-category",
                "code": "laboratory"
              }
            ]
          }
        ],
        "code": {
          "coding": [
            {
              "code": "6299-2",
              "system": "http://loinc.org",
              "display": "Urea nitrogen [Mass/volume] in Blood"
            }
          ],
          "text": "Urea nitrogen [Mass/volume] in Blood"
        },
        "valueQuantity": {
          "system": "http://unitsofmeasure.org",
          "value": 14,
          "unit": "mg/dL",
          "code": "mg/dL"
        },
        "referenceRange": [
          {
            "low": {
              "value": 7,
              "code": "mg/dL",
              "system": "http://unitsofmeasure.org"
            }
          },
          {
            "high": {
              "value": 20,
              "code": "mg/dL",
              "system": "http://unitsofmeasure.org"
            }
          }
        ],
        "text": {
          "status": "generated",
          "div": "<div xmlns=\"http://www.w3.org/1999/xhtml\"><table class=\"hl7__eu__lab__report\"><tr><th>Test</th><th>31-Mar-2020</th><th>Reference&#xA0;Range</th><th>Unit</th></tr><tr><td>Urea nitrogen [Mass/volume] in Blood</td><td>14.0</td><td>7 - 20</td><td></td><td>mg/dL</td></tr></table></div>"
        },
        "status": "final",
        "subject": {
          "reference": "urn:uuid:9ae742b1-f687-4d86-8698-288cad4f3f3d",
          "display": "Eileen Taylor"
        },
        "effectiveDateTime": "2020-03-31T05:47:02Z",
        "specimen": {
          "reference": "urn:uuid:caa95329-71a2-4b22-aec4-22d2fbeddb1f"
        }
      }
    },
    {
      "fullUrl": "urn:uuid:5abaac44-3457-4429-a171-4110a2a16cb2",
      "resource": {
        "resourceType": "Observation",
        "id": "5abaac44-3457-4429-a171-4110a2a16cb2",
        "meta": {
          "profile": [
            "http://hl7.eu/fhir/laboratory/StructureDefinition/Observation-resultslab-eu-lab"
          ]
        },
        "performer": [
          {
            "display": "The Central European Lab"
          }
        ],
        "category": [
          {
            "coding": [
              {
                "system": "http://terminology.hl7.org/CodeSystem/observation-category",
                "code": "laboratory"
              }
            ]
          }
        ],
        "code": {
          "coding": [
            {
              "code": "38483-4",
              "system": "http://loinc.org",
              "display": "Creatinine [Mass/volume] in Blood"
            }
          ],
          "text": "Creatinine [Mass/volume] in Blood"
        },
        "valueQuantity": {
          "system": "http://unitsofmeasure.org",
          "value": 2.8,
          "unit": "mg/dL",
          "code": "mg/dL"
        },
        "referenceRange": [
          {
            "low": {
              "value": 0.6,
              "code": "mg/dL",
              "system": "http://unitsofmeasure.org"
            }
          },
          {
            "high": {
              "value": 1.1,
              "code": "mg/dL",
              "system": "http://unitsofmeasure.org"
            }
          }
        ],
        "interpretation": [
          {
            "coding": [
              {
                "code": "H",
                "system": "http://terminology.hl7.org/CodeSystem/v3-ObservationInterpretation",
                "display": "High"
              }
            ]
          }
        ],
        "text": {
          "status": "generated",
          "div": "<div xmlns=\"http://www.w3.org/1999/xhtml\"><table class=\"hl7__eu__lab__report\"><tr><th>Test</th><th>31-Mar-2020</th><th>Reference&#xA0;Range</th><th>Unit</th></tr><tr><td>Creatinine [Mass/volume] in Blood</td><td>2.8</td><td>0.6 - 1.1</td><td>H</td><td>mg/dL</td></tr></table></div>"
        },
        "status": "final",
        "subject": {
          "reference": "urn:uuid:9ae742b1-f687-4d86-8698-288cad4f3f3d",
          "display": "Eileen Taylor"
        },
        "effectiveDateTime": "2020-03-31T05:47:02Z",
        "specimen": {
          "reference": "urn:uuid:caa95329-71a2-4b22-aec4-22d2fbeddb1f"
        }
      }
    },
    {
      "fullUrl": "urn:uuid:42318552-1278-4354-8bf5-64b6a33b18d1",
      "resource": {
        "resourceType": "Observation",
        "id": "42318552-1278-4354-8bf5-64b6a33b18d1",
        "meta": {
          "profile": [
            "http://hl7.eu/fhir/laboratory/StructureDefinition/Observation-resultslab-eu-lab"
          ]
        },
        "performer": [
          {
            "display": "The Central European Lab"
          }
        ],
        "category": [
          {
            "coding": [
              {
                "system": "http://terminology.hl7.org/CodeSystem/observation-category",
                "code": "laboratory"
              }
            ]
          }
        ],
        "code": {
          "coding": [
            {
              "code": "49765-1",
              "system": "http://loinc.org",
              "display": "Calcium [Mass/volume] in Blood"
            }
          ],
          "text": "Calcium [Mass/volume] in Blood"
        },
        "valueQuantity": {
          "system": "http://unitsofmeasure.org",
          "value": 10.1,
          "unit": "mg/dL",
          "code": "mg/dL"
        },
        "referenceRange": [
          {
            "low": {
              "value": 8.5,
              "code": "mg/dL",
              "system": "http://unitsofmeasure.org"
            }
          },
          {
            "high": {
              "value": 10.4,
              "code": "mg/dL",
              "system": "http://unitsofmeasure.org"
            }
          }
        ],
        "text": {
          "status": "generated",
          "div": "<div xmlns=\"http://www.w3.org/1999/xhtml\"><table class=\"hl7__eu__lab__report\"><tr><th>Test</th><th>31-Mar-2020</th><th>Reference&#xA0;Range</th><th>Unit</th></tr><tr><td>Calcium [Mass/volume] in Blood</td><td>10.1</td><td>8.5 - 10.4</td><td></td><td>mg/dL</td></tr></table></div>"
        },
        "status": "final",
        "subject": {
          "reference": "urn:uuid:9ae742b1-f687-4d86-8698-288cad4f3f3d",
          "display": "Eileen Taylor"
        },
        "effectiveDateTime": "2020-03-31T05:47:02Z",
        "specimen": {
          "reference": "urn:uuid:caa95329-71a2-4b22-aec4-22d2fbeddb1f"
        }
      }
    },
    {
      "fullUrl": "urn:uuid:75a39ebb-0fc0-4b9d-aafa-673daf05b6c8",
      "resource": {
        "resourceType": "Observation",
        "id": "75a39ebb-0fc0-4b9d-aafa-673daf05b6c8",
        "meta": {
          "profile": [
            "http://hl7.eu/fhir/laboratory/StructureDefinition/Observation-resultslab-eu-lab"
          ]
        },
        "performer": [
          {
            "display": "The Central European Lab"
          }
        ],
        "category": [
          {
            "coding": [
              {
                "system": "http://terminology.hl7.org/CodeSystem/observation-category",
                "code": "laboratory"
              }
            ]
          }
        ],
        "code": {
          "coding": [
            {
              "code": "2947-0",
              "system": "http://loinc.org",
              "display": "Sodium [Moles/volume] in Blood"
            }
          ],
          "text": "Sodium [Moles/volume] in Blood"
        },
        "valueQuantity": {
          "system": "http://unitsofmeasure.org",
          "value": 139.3,
          "unit": "mmol/L",
          "code": "mmol/L"
        },
        "referenceRange": [
          {
            "low": {
              "value": 135,
              "code": "mmol/L",
              "system": "http://unitsofmeasure.org"
            }
          },
          {
            "high": {
              "value": 145,
              "code": "mmol/L",
              "system": "http://unitsofmeasure.org"
            }
          }
        ],
        "text": {
          "status": "generated",
          "div": "<div xmlns=\"http://www.w3.org/1999/xhtml\"><table class=\"hl7__eu__lab__report\"><tr><th>Test</th><th>31-Mar-2020</th><th>Reference&#xA0;Range</th><th>Unit</th></tr><tr><td>Sodium [Moles/volume] in Blood</td><td>139.3</td><td>135 - 145</td><td></td><td>mmol/L</td></tr></table></div>"
        },
        "status": "final",
        "subject": {
          "reference": "urn:uuid:9ae742b1-f687-4d86-8698-288cad4f3f3d",
          "display": "Eileen Taylor"
        },
        "effectiveDateTime": "2020-03-31T05:47:02Z",
        "specimen": {
          "reference": "urn:uuid:caa95329-71a2-4b22-aec4-22d2fbeddb1f"
        }
      }
    },
    {
      "fullUrl": "urn:uuid:79421888-0f56-4e27-a88d-0e5fe5e9cee1",
      "resource": {
        "resourceType": "Observation",
        "id": "79421888-0f56-4e27-a88d-0e5fe5e9cee1",
        "meta": {
          "profile": [
            "http://hl7.eu/fhir/laboratory/StructureDefinition/Observation-resultslab-eu-lab"
          ]
        },
        "performer": [
          {
            "display": "The Central European Lab"
          }
        ],
        "category": [
          {
            "coding": [
              {
                "system": "http://terminology.hl7.org/CodeSystem/observation-category",
                "code": "laboratory"
              }
            ]
          }
        ],
        "code": {
          "coding": [
            {
              "code": "6298-4",
              "system": "http://loinc.org",
              "display": "Potassium [Moles/volume] in Blood"
            }
          ],
          "text": "Potassium [Moles/volume] in Blood"
        },
        "valueQuantity": {
          "system": "http://unitsofmeasure.org",
          "value": 4.7,
          "unit": "mmol/L",
          "code": "mmol/L"
        },
        "referenceRange": [
          {
            "low": {
              "value": 3.5,
              "code": "mmol/L",
              "system": "http://unitsofmeasure.org"
            }
          },
          {
            "high": {
              "value": 5.1,
              "code": "mmol/L",
              "system": "http://unitsofmeasure.org"
            }
          }
        ],
        "text": {
          "status": "generated",
          "div": "<div xmlns=\"http://www.w3.org/1999/xhtml\"><table class=\"hl7__eu__lab__report\"><tr><th>Test</th><th>31-Mar-2020</th><th>Reference&#xA0;Range</th><th>Unit</th></tr><tr><td>Potassium [Moles/volume] in Blood</td><td>4.7</td><td>3.5 - 5.1</td><td></td><td>mmol/L</td></tr></table></div>"
        },
        "status": "final",
        "subject": {
          "reference": "urn:uuid:9ae742b1-f687-4d86-8698-288cad4f3f3d",
          "display": "Eileen Taylor"
        },
        "effectiveDateTime": "2020-03-31T05:47:02Z",
        "specimen": {
          "reference": "urn:uuid:caa95329-71a2-4b22-aec4-22d2fbeddb1f"
        }
      }
    },
    {
      "fullUrl": "urn:uuid:e55a7edc-772b-413d-9c91-ca4d56d362a5",
      "resource": {
        "resourceType": "Observation",
        "id": "e55a7edc-772b-413d-9c91-ca4d56d362a5",
        "meta": {
          "profile": [
            "http://hl7.eu/fhir/laboratory/StructureDefinition/Observation-resultslab-eu-lab"
          ]
        },
        "performer": [
          {
            "display": "The Central European Lab"
          }
        ],
        "category": [
          {
            "coding": [
              {
                "system": "http://terminology.hl7.org/CodeSystem/observation-category",
                "code": "laboratory"
              }
            ]
          }
        ],
        "code": {
          "coding": [
            {
              "code": "2069-3",
              "system": "http://loinc.org",
              "display": "Chloride [Moles/volume] in Blood"
            }
          ],
          "text": "Chloride [Moles/volume] in Blood"
        },
        "valueQuantity": {
          "system": "http://unitsofmeasure.org",
          "value": 108,
          "unit": "mmol/L",
          "code": "mmol/L"
        },
        "referenceRange": [
          {
            "low": {
              "value": 98,
              "code": "mmol/L",
              "system": "http://unitsofmeasure.org"
            }
          },
          {
            "high": {
              "value": 108,
              "code": "mmol/L",
              "system": "http://unitsofmeasure.org"
            }
          }
        ],
        "text": {
          "status": "generated",
          "div": "<div xmlns=\"http://www.w3.org/1999/xhtml\"><table class=\"hl7__eu__lab__report\"><tr><th>Test</th><th>31-Mar-2020</th><th>Reference&#xA0;Range</th><th>Unit</th></tr><tr><td>Chloride [Moles/volume] in Blood</td><td>108.0</td><td>98 - 108</td><td></td><td>mmol/L</td></tr></table></div>"
        },
        "status": "final",
        "subject": {
          "reference": "urn:uuid:9ae742b1-f687-4d86-8698-288cad4f3f3d",
          "display": "Eileen Taylor"
        },
        "effectiveDateTime": "2020-03-31T05:47:02Z",
        "specimen": {
          "reference": "urn:uuid:caa95329-71a2-4b22-aec4-22d2fbeddb1f"
        }
      }
    },
    {
      "fullUrl": "urn:uuid:c3e8f130-e746-4f06-8e96-bccd6a5c789b",
      "resource": {
        "resourceType": "Observation",
        "id": "c3e8f130-e746-4f06-8e96-bccd6a5c789b",
        "meta": {
          "profile": [
            "http://hl7.eu/fhir/laboratory/StructureDefinition/Observation-resultslab-eu-lab"
          ]
        },
        "performer": [
          {
            "display": "The Central European Lab"
          }
        ],
        "category": [
          {
            "coding": [
              {
                "system": "http://terminology.hl7.org/CodeSystem/observation-category",
                "code": "laboratory"
              }
            ]
          }
        ],
        "code": {
          "coding": [
            {
              "code": "20565-8",
              "system": "http://loinc.org",
              "display": "Carbon dioxide, total [Moles/volume] in Blood"
            }
          ],
          "text": "Carbon dioxide, total [Moles/volume] in Blood"
        },
        "valueQuantity": {
          "system": "http://unitsofmeasure.org",
          "value": 23.2,
          "unit": "mmol/L",
          "code": "mmol/L"
        },
        "referenceRange": [
          {
            "low": {
              "value": 22,
              "code": "mmol/L",
              "system": "http://unitsofmeasure.org"
            }
          },
          {
            "high": {
              "value": 29,
              "code": "mmol/L",
              "system": "http://unitsofmeasure.org"
            }
          }
        ],
        "text": {
          "status": "generated",
          "div": "<div xmlns=\"http://www.w3.org/1999/xhtml\"><table class=\"hl7__eu__lab__report\"><tr><th>Test</th><th>31-Mar-2020</th><th>Reference&#xA0;Range</th><th>Unit</th></tr><tr><td>Carbon dioxide, total [Moles/volume] in Blood</td><td>23.2</td><td>22 - 29</td><td></td><td>mmol/L</td></tr></table></div>"
        },
        "status": "final",
        "subject": {
          "reference": "urn:uuid:9ae742b1-f687-4d86-8698-288cad4f3f3d",
          "display": "Eileen Taylor"
        },
        "effectiveDateTime": "2020-03-31T05:47:02Z",
        "specimen": {
          "reference": "urn:uuid:caa95329-71a2-4b22-aec4-22d2fbeddb1f"
        }
      }
    },
    {
      "fullUrl": "urn:uuid:e873407f-609b-4d42-8d8a-7387f7873443",
      "resource": {
        "resourceType": "Observation",
        "id": "e873407f-609b-4d42-8d8a-7387f7873443",
        "meta": {
          "profile": [
            "http://hl7.eu/fhir/laboratory/StructureDefinition/Observation-resultslab-eu-lab"
          ]
        },
        "performer": [
          {
            "display": "The Central European Lab"
          }
        ],
        "category": [
          {
            "coding": [
              {
                "system": "http://terminology.hl7.org/CodeSystem/observation-category",
                "code": "laboratory"
              }
            ]
          }
        ],
        "code": {
          "coding": [
            {
              "code": "2885-2",
              "system": "http://loinc.org",
              "display": "Protein [Mass/volume] in Serum or Plasma"
            }
          ],
          "text": "Protein [Mass/volume] in Serum or Plasma"
        },
        "valueQuantity": {
          "system": "http://unitsofmeasure.org",
          "value": 7.4,
          "unit": "g/dL",
          "code": "g/dL"
        },
        "referenceRange": [
          {
            "low": {
              "value": 6,
              "code": "g/dL",
              "system": "http://unitsofmeasure.org"
            }
          },
          {
            "high": {
              "value": 8.3,
              "code": "g/dL",
              "system": "http://unitsofmeasure.org"
            }
          }
        ],
        "text": {
          "status": "generated",
          "div": "<div xmlns=\"http://www.w3.org/1999/xhtml\"><table class=\"hl7__eu__lab__report\"><tr><th>Test</th><th>31-Mar-2020</th><th>Reference&#xA0;Range</th><th>Unit</th></tr><tr><td>Protein [Mass/volume] in Serum or Plasma</td><td>7.4</td><td>6 - 8.3</td><td></td><td>g/dL</td></tr></table></div>"
        },
        "status": "final",
        "subject": {
          "reference": "urn:uuid:9ae742b1-f687-4d86-8698-288cad4f3f3d",
          "display": "Eileen Taylor"
        },
        "effectiveDateTime": "2020-03-31T05:47:02Z",
        "specimen": {
          "reference": "urn:uuid:357d71e3-a3d7-4d12-acc7-639fde4cccde"
        }
      }
    },
    {
      "fullUrl": "urn:uuid:3cd839eb-35a7-49e0-bca5-7b1c0159d314",
      "resource": {
        "resourceType": "Observation",
        "id": "3cd839eb-35a7-49e0-bca5-7b1c0159d314",
        "meta": {
          "profile": [
            "http://hl7.eu/fhir/laboratory/StructureDefinition/Observation-resultslab-eu-lab"
          ]
        },
        "performer": [
          {
            "display": "The Central European Lab"
          }
        ],
        "category": [
          {
            "coding": [
              {
                "system": "http://terminology.hl7.org/CodeSystem/observation-category",
                "code": "laboratory"
              }
            ]
          }
        ],
        "code": {
          "coding": [
            {
              "code": "1751-7",
              "system": "http://loinc.org",
              "display": "Albumin [Mass/volume] in Serum or Plasma"
            }
          ],
          "text": "Albumin [Mass/volume] in Serum or Plasma"
        },
        "valueQuantity": {
          "system": "http://unitsofmeasure.org",
          "value": 5.4,
          "unit": "g/dL",
          "code": "g/dL"
        },
        "referenceRange": [
          {
            "low": {
              "value": 3.4,
              "code": "g/dL",
              "system": "http://unitsofmeasure.org"
            }
          },
          {
            "high": {
              "value": 5,
              "code": "g/dL",
              "system": "http://unitsofmeasure.org"
            }
          }
        ],
        "interpretation": [
          {
            "coding": [
              {
                "code": "H",
                "system": "http://terminology.hl7.org/CodeSystem/v3-ObservationInterpretation",
                "display": "High"
              }
            ]
          }
        ],
        "text": {
          "status": "generated",
          "div": "<div xmlns=\"http://www.w3.org/1999/xhtml\"><table class=\"hl7__eu__lab__report\"><tr><th>Test</th><th>31-Mar-2020</th><th>Reference&#xA0;Range</th><th>Unit</th></tr><tr><td>Albumin [Mass/volume] in Serum or Plasma</td><td>5.4</td><td>3.4 - 5</td><td>H</td><td>g/dL</td></tr></table></div>"
        },
        "status": "final",
        "subject": {
          "reference": "urn:uuid:9ae742b1-f687-4d86-8698-288cad4f3f3d",
          "display": "Eileen Taylor"
        },
        "effectiveDateTime": "2020-03-31T05:47:02Z",
        "specimen": {
          "reference": "urn:uuid:357d71e3-a3d7-4d12-acc7-639fde4cccde"
        }
      }
    },
    {
      "fullUrl": "urn:uuid:b5a408fb-bb67-4872-8cb3-c0566271c04b",
      "resource": {
        "resourceType": "Observation",
        "id": "b5a408fb-bb67-4872-8cb3-c0566271c04b",
        "meta": {
          "profile": [
            "http://hl7.eu/fhir/laboratory/StructureDefinition/Observation-resultslab-eu-lab"
          ]
        },
        "performer": [
          {
            "display": "The Central European Lab"
          }
        ],
        "category": [
          {
            "coding": [
              {
                "system": "http://terminology.hl7.org/CodeSystem/observation-category",
                "code": "laboratory"
              }
            ]
          }
        ],
        "code": {
          "coding": [
            {
              "code": "10834-0",
              "system": "http://loinc.org",
              "display": "Globulin [Mass/volume] in Serum by calculation"
            }
          ],
          "text": "Globulin [Mass/volume] in Serum by calculation"
        },
        "valueQuantity": {
          "system": "http://unitsofmeasure.org",
          "value": 2.6,
          "unit": "g/L",
          "code": "g/L"
        },
        "referenceRange": [
          {
            "low": {
              "value": 2,
              "code": "g/L",
              "system": "http://unitsofmeasure.org"
            }
          },
          {
            "high": {
              "value": 3.5,
              "code": "g/L",
              "system": "http://unitsofmeasure.org"
            }
          }
        ],
        "text": {
          "status": "generated",
          "div": "<div xmlns=\"http://www.w3.org/1999/xhtml\"><table class=\"hl7__eu__lab__report\"><tr><th>Test</th><th>31-Mar-2020</th><th>Reference&#xA0;Range</th><th>Unit</th></tr><tr><td>Globulin [Mass/volume] in Serum by calculation</td><td>2.6</td><td>2 - 3.5</td><td></td><td>g/L</td></tr></table></div>"
        },
        "status": "final",
        "subject": {
          "reference": "urn:uuid:9ae742b1-f687-4d86-8698-288cad4f3f3d",
          "display": "Eileen Taylor"
        },
        "effectiveDateTime": "2020-03-31T05:47:02Z",
        "specimen": {
          "reference": "urn:uuid:1f581632-826d-4822-b14a-83dfb5b43c34"
        }
      }
    },
    {
      "fullUrl": "urn:uuid:b4dc4f96-dfb4-4549-9fbd-0d8b4cfdbff1",
      "resource": {
        "resourceType": "Observation",
        "id": "b4dc4f96-dfb4-4549-9fbd-0d8b4cfdbff1",
        "meta": {
          "profile": [
            "http://hl7.eu/fhir/laboratory/StructureDefinition/Observation-resultslab-eu-lab"
          ]
        },
        "performer": [
          {
            "display": "The Central European Lab"
          }
        ],
        "category": [
          {
            "coding": [
              {
                "system": "http://terminology.hl7.org/CodeSystem/observation-category",
                "code": "laboratory"
              }
            ]
          }
        ],
        "code": {
          "coding": [
            {
              "code": "1975-2",
              "system": "http://loinc.org",
              "display": "Bilirubin.total [Mass/volume] in Serum or Plasma"
            }
          ],
          "text": "Bilirubin.total [Mass/volume] in Serum or Plasma"
        },
        "valueQuantity": {
          "system": "http://unitsofmeasure.org",
          "value": 0.7,
          "unit": "mg/dL",
          "code": "mg/dL"
        },
        "referenceRange": [
          {
            "low": {
              "value": 0.2,
              "code": "mg/dL",
              "system": "http://unitsofmeasure.org"
            }
          },
          {
            "high": {
              "value": 1.2,
              "code": "mg/dL",
              "system": "http://unitsofmeasure.org"
            }
          }
        ],
        "text": {
          "status": "generated",
          "div": "<div xmlns=\"http://www.w3.org/1999/xhtml\"><table class=\"hl7__eu__lab__report\"><tr><th>Test</th><th>31-Mar-2020</th><th>Reference&#xA0;Range</th><th>Unit</th></tr><tr><td>Bilirubin.total [Mass/volume] in Serum or Plasma</td><td>0.7</td><td>0.2 - 1.2</td><td></td><td>mg/dL</td></tr></table></div>"
        },
        "status": "final",
        "subject": {
          "reference": "urn:uuid:9ae742b1-f687-4d86-8698-288cad4f3f3d",
          "display": "Eileen Taylor"
        },
        "effectiveDateTime": "2020-03-31T05:47:02Z",
        "specimen": {
          "reference": "urn:uuid:357d71e3-a3d7-4d12-acc7-639fde4cccde"
        }
      }
    },
    {
      "fullUrl": "urn:uuid:85e3848d-3fa9-4682-bc31-d6d54341d4c5",
      "resource": {
        "resourceType": "Observation",
        "id": "85e3848d-3fa9-4682-bc31-d6d54341d4c5",
        "meta": {
          "profile": [
            "http://hl7.eu/fhir/laboratory/StructureDefinition/Observation-resultslab-eu-lab"
          ]
        },
        "performer": [
          {
            "display": "The Central European Lab"
          }
        ],
        "category": [
          {
            "coding": [
              {
                "system": "http://terminology.hl7.org/CodeSystem/observation-category",
                "code": "laboratory"
              }
            ]
          }
        ],
        "code": {
          "coding": [
            {
              "code": "6768-6",
              "system": "http://loinc.org",
              "display": "Alkaline phosphatase [Enzymatic activity/volume] in Serum or Plasma"
            }
          ],
          "text": "Alkaline phosphatase [Enzymatic activity/volume] in Serum or Plasma"
        },
        "valueQuantity": {
          "system": "http://unitsofmeasure.org",
          "value": 48,
          "unit": "U/L",
          "code": "U/L"
        },
        "referenceRange": [
          {
            "low": {
              "value": 44,
              "code": "U/L",
              "system": "http://unitsofmeasure.org"
            }
          },
          {
            "high": {
              "value": 104,
              "code": "U/L",
              "system": "http://unitsofmeasure.org"
            }
          }
        ],
        "text": {
          "status": "generated",
          "div": "<div xmlns=\"http://www.w3.org/1999/xhtml\"><table class=\"hl7__eu__lab__report\"><tr><th>Test</th><th>31-Mar-2020</th><th>Reference&#xA0;Range</th><th>Unit</th></tr><tr><td>Alkaline phosphatase [Enzymatic activity/volume] in Serum or Plasma</td><td>48.0</td><td>44 - 104</td><td></td><td>U/L</td></tr></table></div>"
        },
        "status": "final",
        "subject": {
          "reference": "urn:uuid:9ae742b1-f687-4d86-8698-288cad4f3f3d",
          "display": "Eileen Taylor"
        },
        "effectiveDateTime": "2020-03-31T05:47:02Z",
        "specimen": {
          "reference": "urn:uuid:357d71e3-a3d7-4d12-acc7-639fde4cccde"
        }
      }
    },
    {
      "fullUrl": "urn:uuid:8aa33716-d0c0-45dd-be3a-d64d0e4d2400",
      "resource": {
        "resourceType": "Observation",
        "id": "8aa33716-d0c0-45dd-be3a-d64d0e4d2400",
        "meta": {
          "profile": [
            "http://hl7.eu/fhir/laboratory/StructureDefinition/Observation-resultslab-eu-lab"
          ]
        },
        "performer": [
          {
            "display": "The Central European Lab"
          }
        ],
        "category": [
          {
            "coding": [
              {
                "system": "http://terminology.hl7.org/CodeSystem/observation-category",
                "code": "laboratory"
              }
            ]
          }
        ],
        "code": {
          "coding": [
            {
              "code": "1742-6",
              "system": "http://loinc.org",
              "display": "Alanine aminotransferase [Enzymatic activity/volume] in Serum or Plasma"
            }
          ],
          "text": "Alanine aminotransferase [Enzymatic activity/volume] in Serum or Plasma"
        },
        "valueQuantity": {
          "system": "http://unitsofmeasure.org",
          "value": 25,
          "unit": "U/L",
          "code": "U/L"
        },
        "referenceRange": [
          {
            "low": {
              "value": 13,
              "code": "U/L",
              "system": "http://unitsofmeasure.org"
            }
          },
          {
            "high": {
              "value": 36,
              "code": "U/L",
              "system": "http://unitsofmeasure.org"
            }
          }
        ],
        "text": {
          "status": "generated",
          "div": "<div xmlns=\"http://www.w3.org/1999/xhtml\"><table class=\"hl7__eu__lab__report\"><tr><th>Test</th><th>31-Mar-2020</th><th>Reference&#xA0;Range</th><th>Unit</th></tr><tr><td>Alanine aminotransferase [Enzymatic activity/volume] in Serum or Plasma</td><td>25.0</td><td>13 - 36</td><td></td><td>U/L</td></tr></table></div>"
        },
        "status": "final",
        "subject": {
          "reference": "urn:uuid:9ae742b1-f687-4d86-8698-288cad4f3f3d",
          "display": "Eileen Taylor"
        },
        "effectiveDateTime": "2020-03-31T05:47:02Z",
        "specimen": {
          "reference": "urn:uuid:357d71e3-a3d7-4d12-acc7-639fde4cccde"
        }
      }
    },
    {
      "fullUrl": "urn:uuid:301c8f7d-6656-471c-84ef-26219a98b98d",
      "resource": {
        "resourceType": "Observation",
        "id": "301c8f7d-6656-471c-84ef-26219a98b98d",
        "meta": {
          "profile": [
            "http://hl7.eu/fhir/laboratory/StructureDefinition/Observation-resultslab-eu-lab"
          ]
        },
        "performer": [
          {
            "display": "The Central European Lab"
          }
        ],
        "category": [
          {
            "coding": [
              {
                "system": "http://terminology.hl7.org/CodeSystem/observation-category",
                "code": "laboratory"
              }
            ]
          }
        ],
        "code": {
          "coding": [
            {
              "code": "1920-8",
              "system": "http://loinc.org",
              "display": "Aspartate aminotransferase [Enzymatic activity/volume] in Serum or Plasma"
            }
          ],
          "text": "Aspartate aminotransferase [Enzymatic activity/volume] in Serum or Plasma"
        },
        "valueQuantity": {
          "system": "http://unitsofmeasure.org",
          "value": 28.5,
          "unit": "U/L",
          "code": "U/L"
        },
        "referenceRange": [
          {
            "low": {
              "value": 10,
              "code": "U/L",
              "system": "http://unitsofmeasure.org"
            }
          },
          {
            "high": {
              "value": 40,
              "code": "U/L",
              "system": "http://unitsofmeasure.org"
            }
          }
        ],
        "text": {
          "status": "generated",
          "div": "<div xmlns=\"http://www.w3.org/1999/xhtml\"><table class=\"hl7__eu__lab__report\"><tr><th>Test</th><th>31-Mar-2020</th><th>Reference&#xA0;Range</th><th>Unit</th></tr><tr><td>Aspartate aminotransferase [Enzymatic activity/volume] in Serum or Plasma</td><td>28.5</td><td>10 - 40</td><td></td><td>U/L</td></tr></table></div>"
        },
        "status": "final",
        "subject": {
          "reference": "urn:uuid:9ae742b1-f687-4d86-8698-288cad4f3f3d",
          "display": "Eileen Taylor"
        },
        "effectiveDateTime": "2020-03-31T05:47:02Z",
        "specimen": {
          "reference": "urn:uuid:357d71e3-a3d7-4d12-acc7-639fde4cccde"
        }
      }
    },
    {
      "fullUrl": "urn:uuid:2ddae45b-2e77-4db2-ae81-6f630f29c525",
      "resource": {
        "resourceType": "Observation",
        "id": "2ddae45b-2e77-4db2-ae81-6f630f29c525",
        "meta": {
          "profile": [
            "http://hl7.eu/fhir/laboratory/StructureDefinition/Observation-resultslab-eu-lab"
          ]
        },
        "performer": [
          {
            "display": "The Central European Lab"
          }
        ],
        "category": [
          {
            "coding": [
              {
                "system": "http://terminology.hl7.org/CodeSystem/observation-category",
                "code": "laboratory"
              }
            ]
          }
        ],
        "code": {
          "coding": [
            {
              "code": "2093-3",
              "system": "http://loinc.org",
              "display": "Cholesterol [Mass/volume] in Serum or Plasma"
            }
          ],
          "text": "Cholesterol [Mass/volume] in Serum or Plasma"
        },
        "valueQuantity": {
          "system": "http://unitsofmeasure.org",
          "value": 196.5,
          "unit": "mg/dL",
          "code": "mg/dL"
        },
        "referenceRange": [
          {
            "low": {
              "value": 130,
              "code": "mg/dL",
              "system": "http://unitsofmeasure.org"
            }
          },
          {
            "high": {
              "value": 200,
              "code": "mg/dL",
              "system": "http://unitsofmeasure.org"
            }
          }
        ],
        "text": {
          "status": "generated",
          "div": "<div xmlns=\"http://www.w3.org/1999/xhtml\"><table class=\"hl7__eu__lab__report\"><tr><th>Test</th><th>31-Mar-2020</th><th>Reference&#xA0;Range</th><th>Unit</th></tr><tr><td>Cholesterol [Mass/volume] in Serum or Plasma</td><td>196.5</td><td>130 - 200</td><td></td><td>mg/dL</td></tr></table></div>"
        },
        "status": "final",
        "subject": {
          "reference": "urn:uuid:9ae742b1-f687-4d86-8698-288cad4f3f3d",
          "display": "Eileen Taylor"
        },
        "effectiveDateTime": "2020-03-31T05:47:02Z",
        "specimen": {
          "reference": "urn:uuid:357d71e3-a3d7-4d12-acc7-639fde4cccde"
        }
      }
    },
    {
      "fullUrl": "urn:uuid:62e2e255-12a8-41f6-a611-13d9761fbfff",
      "resource": {
        "resourceType": "Observation",
        "id": "62e2e255-12a8-41f6-a611-13d9761fbfff",
        "meta": {
          "profile": [
            "http://hl7.eu/fhir/laboratory/StructureDefinition/Observation-resultslab-eu-lab"
          ]
        },
        "performer": [
          {
            "display": "The Central European Lab"
          }
        ],
        "category": [
          {
            "coding": [
              {
                "system": "http://terminology.hl7.org/CodeSystem/observation-category",
                "code": "laboratory"
              }
            ]
          }
        ],
        "code": {
          "coding": [
            {
              "code": "2571-8",
              "system": "http://loinc.org",
              "display": "Triglyceride [Mass/volume] in Serum or Plasma"
            }
          ],
          "text": "Triglyceride [Mass/volume] in Serum or Plasma"
        },
        "valueQuantity": {
          "system": "http://unitsofmeasure.org",
          "value": 190.6,
          "unit": "mg/dL",
          "code": "mg/dL"
        },
        "referenceRange": [
          {
            "low": {
              "value": 35,
              "code": "mg/dL",
              "system": "http://unitsofmeasure.org"
            }
          },
          {
            "high": {
              "value": 175,
              "code": "mg/dL",
              "system": "http://unitsofmeasure.org"
            }
          }
        ],
        "interpretation": [
          {
            "coding": [
              {
                "code": "H",
                "system": "http://terminology.hl7.org/CodeSystem/v3-ObservationInterpretation",
                "display": "High"
              }
            ]
          }
        ],
        "text": {
          "status": "generated",
          "div": "<div xmlns=\"http://www.w3.org/1999/xhtml\"><table class=\"hl7__eu__lab__report\"><tr><th>Test</th><th>31-Mar-2020</th><th>Reference&#xA0;Range</th><th>Unit</th></tr><tr><td>Triglyceride [Mass/volume] in Serum or Plasma</td><td>190.6</td><td>35 - 175</td><td>H</td><td>mg/dL</td></tr></table></div>"
        },
        "status": "final",
        "subject": {
          "reference": "urn:uuid:9ae742b1-f687-4d86-8698-288cad4f3f3d",
          "display": "Eileen Taylor"
        },
        "effectiveDateTime": "2020-03-31T05:47:02Z",
        "specimen": {
          "reference": "urn:uuid:357d71e3-a3d7-4d12-acc7-639fde4cccde"
        }
      }
    },
    {
      "fullUrl": "urn:uuid:7df177a8-0a56-41ad-a328-17bf2b2c6490",
      "resource": {
        "resourceType": "Observation",
        "id": "7df177a8-0a56-41ad-a328-17bf2b2c6490",
        "meta": {
          "profile": [
            "http://hl7.eu/fhir/laboratory/StructureDefinition/Observation-resultslab-eu-lab"
          ]
        },
        "performer": [
          {
            "display": "The Central European Lab"
          }
        ],
        "category": [
          {
            "coding": [
              {
                "system": "http://terminology.hl7.org/CodeSystem/observation-category",
                "code": "laboratory"
              }
            ]
          }
        ],
        "code": {
          "coding": [
            {
              "code": "18262-6",
              "system": "http://loinc.org",
              "display": "Cholesterol in LDL [Mass/volume] in Serum or Plasma by Direct assay"
            }
          ],
          "text": "Cholesterol in LDL [Mass/volume] in Serum or Plasma by Direct assay"
        },
        "valueQuantity": {
          "system": "http://unitsofmeasure.org",
          "value": 129,
          "unit": "mg/dL",
          "code": "mg/dL"
        },
        "referenceRange": [
          {
            "low": {
              "value": 0,
              "code": "mg/dL",
              "system": "http://unitsofmeasure.org"
            }
          },
          {
            "high": {
              "value": 190,
              "code": "mg/dL",
              "system": "http://unitsofmeasure.org"
            }
          }
        ],
        "text": {
          "status": "generated",
          "div": "<div xmlns=\"http://www.w3.org/1999/xhtml\"><table class=\"hl7__eu__lab__report\"><tr><th>Test</th><th>31-Mar-2020</th><th>Reference&#xA0;Range</th><th>Unit</th></tr><tr><td>Cholesterol in LDL [Mass/volume] in Serum or Plasma by Direct assay</td><td>129.0</td><td>0 - 190</td><td></td><td>mg/dL</td></tr></table></div>"
        },
        "status": "final",
        "subject": {
          "reference": "urn:uuid:9ae742b1-f687-4d86-8698-288cad4f3f3d",
          "display": "Eileen Taylor"
        },
        "effectiveDateTime": "2020-03-31T05:47:02Z",
        "specimen": {
          "reference": "urn:uuid:357d71e3-a3d7-4d12-acc7-639fde4cccde"
        }
      }
    },
    {
      "fullUrl": "urn:uuid:5b8edce1-f96f-4c98-9fa4-791683142575",
      "resource": {
        "resourceType": "Observation",
        "id": "5b8edce1-f96f-4c98-9fa4-791683142575",
        "meta": {
          "profile": [
            "http://hl7.eu/fhir/laboratory/StructureDefinition/Observation-resultslab-eu-lab"
          ]
        },
        "performer": [
          {
            "display": "The Central European Lab"
          }
        ],
        "category": [
          {
            "coding": [
              {
                "system": "http://terminology.hl7.org/CodeSystem/observation-category",
                "code": "laboratory"
              }
            ]
          }
        ],
        "code": {
          "coding": [
            {
              "code": "2085-9",
              "system": "http://loinc.org",
              "display": "Cholesterol in HDL [Mass/volume] in Serum or Plasma"
            }
          ],
          "text": "Cholesterol in HDL [Mass/volume] in Serum or Plasma"
        },
        "valueQuantity": {
          "system": "http://unitsofmeasure.org",
          "value": 66.4,
          "unit": "mg/dL",
          "code": "mg/dL"
        },
        "referenceRange": [
          {
            "low": {
              "value": 50,
              "code": "mg/dL",
              "system": "http://unitsofmeasure.org"
            }
          },
          {
            "high": {
              "value": 100,
              "code": "mg/dL",
              "system": "http://unitsofmeasure.org"
            }
          }
        ],
        "text": {
          "status": "generated",
          "div": "<div xmlns=\"http://www.w3.org/1999/xhtml\"><table class=\"hl7__eu__lab__report\"><tr><th>Test</th><th>31-Mar-2020</th><th>Reference&#xA0;Range</th><th>Unit</th></tr><tr><td>Cholesterol in HDL [Mass/volume] in Serum or Plasma</td><td>66.4</td><td>50 - 100</td><td></td><td>mg/dL</td></tr></table></div>"
        },
        "status": "final",
        "subject": {
          "reference": "urn:uuid:9ae742b1-f687-4d86-8698-288cad4f3f3d",
          "display": "Eileen Taylor"
        },
        "effectiveDateTime": "2020-03-31T05:47:02Z",
        "specimen": {
          "reference": "urn:uuid:357d71e3-a3d7-4d12-acc7-639fde4cccde"
        }
      }
    },
    {
      "fullUrl": "urn:uuid:2fcb8d6f-bcc2-4fcf-9c2c-12c47c0cf560",
      "resource": {
        "resourceType": "Device",
        "id": "2fcb8d6f-bcc2-4fcf-9c2c-12c47c0cf560",
        "deviceName": [
          {
            "name": "SYNDERAI Synthetic Generator",
            "type": "manufacturer-name"
          }
        ],
        "version": [
          {
            "value": "5.0"
          }
        ],
        "text": {
          "status": "generated",
          "div": "<div xmlns=\"http://www.w3.org/1999/xhtml\">SYNDERAI Synthetic Generator v5.0</div>"
        },
        "status": "active\"",
        "distinctIdentifier": "synderai-generator-50",
        "manufacturer": "SYNDERAI Project"
      }
    },
    {
      "fullUrl": "urn:uuid:962ba853-2c26-4f20-ab41-4ab4d672b05f",
      "resource": {
        "resourceType": "Provenance",
        "id": "962ba853-2c26-4f20-ab41-4ab4d672b05f",
        "target": [
          {
            "reference": "Patient/9ae742b1-f687-4d86-8698-288cad4f3f3d"
          },
          {
            "reference": "Bundle/e9f3f297-06ad-4ec6-b74e-5a79160385b3"
          },
          {
            "reference": "Composition/fb622359-ae2e-4ea8-a49c-b4a83290fc0e"
          },
          {
            "reference": "PractitionerRole/79c9f6ac-89c8-41cb-a89d-659fcb04d7be"
          },
          {
            "reference": "Practitioner/a8c3de07-df0a-4bdd-89d9-b46c23dcf139"
          },
          {
            "reference": "PractitionerRole/5ab10e1a-57c9-4c0a-ab90-cd8699b2884f"
          },
          {
            "reference": "Organization/61dbdf06-5b58-4c8a-9907-64eb1b845c8d"
          }
        ],
        "activity": {
          "text": "Synthetic Example Data Generation"
        },
        "policy": [
          "https://synderai.net/synderai-synthetic-data-policy"
        ],
        "agent": [
          {
            "type": {
              "text": "author"
            },
            "who": {
              "reference": "Device/2fcb8d6f-bcc2-4fcf-9c2c-12c47c0cf560"
            }
          }
        ],
        "reason": [
          {
            "text": "Interoperability Testing and Training (non-clinical use)"
          }
        ],
        "text": {
          "status": "generated",
          "div": "<div xmlns=\"http://www.w3.org/1999/xhtml\">Provenance for SYNDERAI Synthetic Example Data Resource</div>"
        },
        "recorded": "2020-03-31T07:47:02Z"
      }
    },
    {
      "fullUrl": "urn:uuid:79c9f6ac-89c8-41cb-a89d-659fcb04d7be",
      "resource": {
        "resourceType": "PractitionerRole",
        "id": "79c9f6ac-89c8-41cb-a89d-659fcb04d7be",
        "meta": {
          "profile": [
            "http://hl7.eu/fhir/base/StructureDefinition/practitionerRole-eu"
          ]
        },
        "text": {
          "status": "generated",
          "div": "<div xmlns=\"http://www.w3.org/1999/xhtml\">Laboratory Role Id: 79c9f6ac-89c8-41cb-a89d-659fcb04d7be</div>"
        },
        "practitioner": {
          "reference": "urn:uuid:a8c3de07-df0a-4bdd-89d9-b46c23dcf139"
        }
      }
    },
    {
      "fullUrl": "urn:uuid:a8c3de07-df0a-4bdd-89d9-b46c23dcf139",
      "resource": {
        "resourceType": "Practitioner",
        "id": "a8c3de07-df0a-4bdd-89d9-b46c23dcf139",
        "meta": {
          "profile": [
            "http://hl7.eu/fhir/base/StructureDefinition/practitioner-eu"
          ]
        },
        "identifier": [
          {
            "assigner": {
              "display": "HL7 Europe"
            },
            "system": "urn:oid:2.16.840.1.113883.2.51.999",
            "value": "884b1332-088b-43d9-a211-19e3582b6d70"
          }
        ],
        "name": [
          {
            "prefix": [
              "dr"
            ],
            "given": [
              "Ex"
            ],
            "family": "Ample"
          }
        ],
        "address": [
          {
            "line": [
              "Laboratoire Central Européenne",
              "Boulevard du Jardin Botanique 32"
            ],
            "postalCode": "1000",
            "city": "Brussels",
            "country": "Belgium"
          }
        ],
        "text": {
          "status": "generated",
          "div": "<div xmlns=\"http://www.w3.org/1999/xhtml\">Laboratory: Laboratoire Central Européenne, 1000 Brussels, Belgium</div>"
        }
      }
    }
  ],
  "type": "document",
  "timestamp": "2020-03-31T07:47:02Z"
}
