{
  "resourceType": "Bundle",
  "id": "8a74c3be-2123-4993-b493-7e37b78e4763",
  "meta": {
    "profile": [
      "http://hl7.eu/fhir/laboratory/StructureDefinition/Bundle-eu-lab"
    ]
  },
  "identifier": {
    "assigner": {
      "display": "HL7 Europe"
    },
    "system": "urn:oid:2.16.840.1.113883.2.51.999",
    "value": "d064656e-974f-41e5-bff9-eaad5cfd510a"
  },
  "entry": [
    {
      "fullUrl": "urn:uuid:ceca278f-ad9e-4faa-b428-54112ef347d9",
      "resource": {
        "resourceType": "Composition",
        "id": "ceca278f-ad9e-4faa-b428-54112ef347d9",
        "meta": {
          "profile": [
            "http://hl7.eu/fhir/laboratory/StructureDefinition/Composition-eu-lab"
          ]
        },
        "identifier": {
          "assigner": {
            "display": "HL7 Europe"
          },
          "system": "urn:oid:2.16.840.1.113883.2.51.999",
          "value": "b7101851-11a4-4767-a7d9-aaa0fffc7485"
        },
        "author": [
          {
            "reference": "urn:uuid:939020d3-61fa-4f8d-b716-c8a707774e09"
          }
        ],
        "category": [
          {
            "coding": [
              {
                "code": "26436-6",
                "system": "http://loinc.org",
                "display": "Laboratory studies (set)"
              }
            ]
          }
        ],
        "type": {
          "coding": [
            {
              "code": "11502-2",
              "system": "http://loinc.org",
              "display": "Laboratory report"
            }
          ],
          "text": "Laboratory Report"
        },
        "section": [
          {
            "code": {
              "coding": [
                {
                  "code": "26436-6",
                  "system": "http://loinc.org",
                  "display": "Laboratory studies (set)"
                }
              ],
              "text": "Laboratory studies"
            },
            "section": [
              {
                "code": {
                  "coding": [
                    {
                      "code": "$18719-5",
                      "system": "http://loinc.org",
                      "display": "Chemistry studies (set)"
                    }
                  ],
                  "text": "Chemistry"
                },
                "entry": [
                  {
                    "reference": "urn:uuid:8e5d3f4c-0c5e-4192-9761-b7b3d08ba305"
                  },
                  {
                    "reference": "urn:uuid:1adabf85-0d6a-497e-9114-9c593e647d52"
                  },
                  {
                    "reference": "urn:uuid:c40622f9-db0d-4c2f-80fc-db2bf53d1d33"
                  },
                  {
                    "reference": "urn:uuid:4762d6e4-1efc-4b91-a5ad-84de2f4d5955"
                  },
                  {
                    "reference": "urn:uuid:e66d2bc4-163c-47be-8f5a-02f3793f7cfd"
                  },
                  {
                    "reference": "urn:uuid:2e0e7376-9b66-4251-a435-1ea5315f349a"
                  },
                  {
                    "reference": "urn:uuid:401f492a-1ab3-47a0-a61c-fe7270346b78"
                  },
                  {
                    "reference": "urn:uuid:4ce14299-79b7-4c62-b6f8-59c2f29689da"
                  },
                  {
                    "reference": "urn:uuid:3208c16b-0eda-40e9-8461-1c877d1ca776"
                  },
                  {
                    "reference": "urn:uuid:272c9a3d-079d-44e0-adbf-6e7931739c9e"
                  },
                  {
                    "reference": "urn:uuid:c71f955a-15ed-47bf-8621-508c2a90e19c"
                  },
                  {
                    "reference": "urn:uuid:e04263e5-f90f-4738-80c9-28a3f4c6b601"
                  },
                  {
                    "reference": "urn:uuid:580b08d6-4a57-4c85-b552-e2f4267d2f7e"
                  },
                  {
                    "reference": "urn:uuid:5facf14e-5c82-4604-988f-3f7b9ba0a7d6"
                  },
                  {
                    "reference": "urn:uuid:1f9fb9cc-41ef-46f2-8e3c-271c3b049d0d"
                  },
                  {
                    "reference": "urn:uuid:dbb40119-f9cf-405e-be87-366f665dd53d"
                  },
                  {
                    "reference": "urn:uuid:90b24aa3-8e8a-43f9-8e03-20c47ff9349e"
                  },
                  {
                    "reference": "urn:uuid:e910dd8f-ae79-4b77-9e17-e493b72def0b"
                  },
                  {
                    "reference": "urn:uuid:3fa2716b-7899-4550-ab77-c6a8c4108f4e"
                  }
                ],
                "text": {
                  "status": "generated",
                  "div": "<div xmlns=\"http://www.w3.org/1999/xhtml\"><h3>Chemistry</h3><table class=\"hl7__eu__lab__report\"><thead><tr><th>Test</th><th>09-MAR-2016</th><th>Reference&#xA0;Range</th><th>Unit</th></tr></thead><tbody><tr><td>Glucose [Mass/volume] in Blood</td><td>74.0</td><td>70 - 140</td><td>mg/dL</td></tr><tr><td>Urea nitrogen [Mass/volume] in Blood</td><td>7.5</td><td>7 - 20</td><td>mg/dL</td></tr><tr><td>Creatinine [Mass/volume] in Blood</td><td><strong>3.4 H</strong></td><td>0.6 - 1.1</td><td>mg/dL</td></tr><tr><td>Calcium [Mass/volume] in Blood</td><td>9.4</td><td>8.5 - 10.4</td><td>mg/dL</td></tr><tr><td>Sodium [Moles/volume] in Blood</td><td>139.9</td><td>135 - 145</td><td>mmol/L</td></tr><tr><td>Potassium [Moles/volume] in Blood</td><td>4.7</td><td>3.5 - 5.1</td><td>mmol/L</td></tr><tr><td>Chloride [Moles/volume] in Blood</td><td><strong>109.0 H</strong></td><td>98 - 108</td><td>mmol/L</td></tr><tr><td>Carbon dioxide, total [Moles/volume] in Blood</td><td>24.9</td><td>22 - 29</td><td>mmol/L</td></tr><tr><td>Protein [Mass/volume] in Serum or Plasma</td><td>6.7</td><td>6 - 8.3</td><td>g/dL</td></tr><tr><td>Albumin [Mass/volume] in Serum or Plasma</td><td><strong>5.3 H</strong></td><td>3.4 - 5</td><td>g/dL</td></tr><tr><td>Globulin [Mass/volume] in Serum by calculation</td><td>2.5</td><td>2 - 3.5</td><td>g/L</td></tr><tr><td>Bilirubin.total [Mass/volume] in Serum or Plasma</td><td><strong>0.1 L</strong></td><td>0.2 - 1.2</td><td>mg/dL</td></tr><tr><td>Alkaline phosphatase [Enzymatic activity/volume] in Serum or Plasma</td><td><strong>128.3 H</strong></td><td>44 - 104</td><td>U/L</td></tr><tr><td>Alanine aminotransferase [Enzymatic activity/volume] in Serum or Plasma</td><td>27.0</td><td>13 - 36</td><td>U/L</td></tr><tr><td>Aspartate aminotransferase [Enzymatic activity/volume] in Serum or Plasma</td><td>23.4</td><td>10 - 40</td><td>U/L</td></tr><tr><td>Cholesterol [Mass/volume] in Serum or Plasma</td><td>193.3</td><td>130 - 200</td><td>mg/dL</td></tr><tr><td>Triglyceride [Mass/volume] in Serum or Plasma</td><td><strong>183.5 H</strong></td><td>35 - 175</td><td>mg/dL</td></tr><tr><td>Cholesterol in LDL [Mass/volume] in Serum or Plasma by Direct assay</td><td>101.6</td><td>0 - 190</td><td>mg/dL</td></tr><tr><td>Cholesterol in HDL [Mass/volume] in Serum or Plasma</td><td>56.8</td><td>50 - 100</td><td>mg/dL</td></tr></tbody></table></div>"
                },
                "title": "Chemistry"
              }
            ],
            "title": "Laboratory Report"
          },
          {
            "text": {
              "status": "generated",
              "div": "<div xmlns=\"http://www.w3.org/1999/xhtml\"><h3>Annotation</h3><table class=\"hl7__eu__lab__report\"><tr><th>Conclusion and Recommendations based on this report and previous findings known to us</th></tr><tr><td>The patient shows elevated creatinine, suggesting impaired renal function, and high alkaline phosphatase, which may indicate possible hepatobiliary or bone involvement. Albumin is slightly elevated, and chloride and triglycerides are mildly increased. Total bilirubin is low but not clinically significant. Other parameters are within normal limits. Recommend further evaluation of renal and liver function.</td></tr></table></div>"
            },
            "code": {
              "coding": [
                {
                  "system": "http://loinc.org",
                  "code": "48767-8",
                  "display": "Annotation comment"
                }
              ]
            },
            "title": "Annotation comment"
          }
        ],
        "status": "final",
        "subject": {
          "reference": "urn:uuid:a3252e7c-bb57-4c51-af0c-59c89c224605",
          "display": "Eileen Taylor"
        },
        "date": "2016-03-09T06:47:02Z",
        "title": "Laboratory Report",
        "confidentiality": "N"
      }
    },
    {
      "fullUrl": "urn:uuid:62acbfda-da4d-4fbe-a9fd-e9db024955cc",
      "resource": {
        "resourceType": "DiagnosticReport",
        "id": "62acbfda-da4d-4fbe-a9fd-e9db024955cc",
        "meta": {
          "profile": [
            "http://hl7.eu/fhir/laboratory/StructureDefinition/DiagnosticReport-eu-lab"
          ]
        },
        "identifier": [
          {
            "assigner": {
              "display": "HL7 Europe"
            },
            "system": "urn:oid:2.16.840.1.113883.2.51.999",
            "value": "a65e8807-6129-4216-b0f9-b9e83f618beb"
          }
        ],
        "extension": [
          {
            "url": "http://hl7.org/fhir/5.0/StructureDefinition/extension-DiagnosticReport.composition",
            "valueReference": {
              "reference": "urn:uuid:b7101851-11a4-4767-a7d9-aaa0fffc7485"
            }
          }
        ],
        "category": [
          {
            "coding": [
              {
                "code": "26436-6",
                "system": "http://loinc.org",
                "display": "Laboratory studies (set)"
              }
            ]
          }
        ],
        "specimen": [
          {
            "reference": "urn:uuid:97b677fd-cd3c-4c9e-9dac-f935913c54db"
          },
          {
            "reference": "urn:uuid:b56ef124-4664-4641-a787-94067fa21db6"
          },
          {
            "reference": "urn:uuid:f8c5630d-ed3b-4917-b4c0-b66847312378"
          }
        ],
        "result": [
          {
            "reference": "urn:uuid:8e5d3f4c-0c5e-4192-9761-b7b3d08ba305"
          },
          {
            "reference": "urn:uuid:1adabf85-0d6a-497e-9114-9c593e647d52"
          },
          {
            "reference": "urn:uuid:c40622f9-db0d-4c2f-80fc-db2bf53d1d33"
          },
          {
            "reference": "urn:uuid:4762d6e4-1efc-4b91-a5ad-84de2f4d5955"
          },
          {
            "reference": "urn:uuid:e66d2bc4-163c-47be-8f5a-02f3793f7cfd"
          },
          {
            "reference": "urn:uuid:2e0e7376-9b66-4251-a435-1ea5315f349a"
          },
          {
            "reference": "urn:uuid:401f492a-1ab3-47a0-a61c-fe7270346b78"
          },
          {
            "reference": "urn:uuid:4ce14299-79b7-4c62-b6f8-59c2f29689da"
          },
          {
            "reference": "urn:uuid:3208c16b-0eda-40e9-8461-1c877d1ca776"
          },
          {
            "reference": "urn:uuid:272c9a3d-079d-44e0-adbf-6e7931739c9e"
          },
          {
            "reference": "urn:uuid:c71f955a-15ed-47bf-8621-508c2a90e19c"
          },
          {
            "reference": "urn:uuid:e04263e5-f90f-4738-80c9-28a3f4c6b601"
          },
          {
            "reference": "urn:uuid:580b08d6-4a57-4c85-b552-e2f4267d2f7e"
          },
          {
            "reference": "urn:uuid:5facf14e-5c82-4604-988f-3f7b9ba0a7d6"
          },
          {
            "reference": "urn:uuid:1f9fb9cc-41ef-46f2-8e3c-271c3b049d0d"
          },
          {
            "reference": "urn:uuid:dbb40119-f9cf-405e-be87-366f665dd53d"
          },
          {
            "reference": "urn:uuid:90b24aa3-8e8a-43f9-8e03-20c47ff9349e"
          },
          {
            "reference": "urn:uuid:e910dd8f-ae79-4b77-9e17-e493b72def0b"
          },
          {
            "reference": "urn:uuid:3fa2716b-7899-4550-ab77-c6a8c4108f4e"
          }
        ],
        "status": "registered",
        "code": {
          "coding": [
            {
              "code": "11502-2",
              "system": "http://loinc.org",
              "display": "Laboratory report"
            }
          ]
        },
        "subject": {
          "reference": "urn:uuid:a3252e7c-bb57-4c51-af0c-59c89c224605",
          "display": "Eileen Taylor"
        }
      }
    },
    {
      "fullUrl": "urn:uuid:a3252e7c-bb57-4c51-af0c-59c89c224605",
      "resource": {
        "resourceType": "Patient",
        "id": "a3252e7c-bb57-4c51-af0c-59c89c224605",
        "meta": {
          "security": [
            {
              "system": "http://terminology.hl7.org/CodeSystem/v3-ActReason",
              "code": "HTEST"
            },
            {
              "system": "http://terminology.hl7.org/CodeSystem/v3-ActReason",
              "code": "TRAIN"
            }
          ],
          "tag": [
            {
              "system": "https://synderai.net/fhir/CodeSystem/tags",
              "code": "synthetic",
              "display": "SYNDERAI Synthetic data"
            }
          ],
          "profile": [
            "http://hl7.eu/fhir/base/StructureDefinition/patient-eu-core"
          ]
        },
        "identifier": [
          {
            "type": {
              "coding": [
                {
                  "code": "PT",
                  "system": "http://terminology.hl7.org/CodeSystem/v2-0203"
                }
              ]
            },
            "system": "http://ec.europa.eu/identifier/eci",
            "value": "6172-576075-7"
          },
          {
            "type": {
              "coding": [
                {
                  "code": "MR",
                  "system": "http://terminology.hl7.org/CodeSystem/v2-0203"
                }
              ]
            },
            "system": "http://local.setting.eu/identifier",
            "value": "f7f175da-cf0d-5686-8800-840d9ab7b47b"
          }
        ],
        "name": [
          {
            "family": "Taylor"
          },
          {
            "given": [
              "Eileen"
            ]
          },
          {
            "text": "Eileen Taylor"
          }
        ],
        "address": [
          {
            "line": [
              "39 Slater harbors"
            ],
            "use": "home",
            "type": "physical",
            "postalCode": "LE17",
            "city": "Smithtown",
            "country": "United Kingdom"
          }
        ],
        "telecom": [
          {
            "system": "phone",
            "value": "+44(0)1614960460"
          }
        ],
        "extension": [
          {
            "url": "http://hl7.org/fhir/StructureDefinition/patient-nationality",
            "valueCodeableConcept": {
              "coding": [
                {
                  "code": "GB",
                  "system": "http://hl7.org/fhir/ValueSet/country"
                }
              ]
            }
          }
        ],
        "text": {
          "status": "generated",
          "div": "<div xmlns=\"http://www.w3.org/1999/xhtml\"><table class=\"hl7__ips\"><tr><td>Eileen Taylor</td><td>female</td><td>11-Dec-1951</td></tr></table></div>"
        },
        "gender": "female",
        "birthDate": "1951-12-11"
      }
    },
    {
      "fullUrl": "urn:uuid:33b5b51b-fb77-4411-a3fe-bbb8e35f0390",
      "resource": {
        "resourceType": "ServiceRequest",
        "id": "33b5b51b-fb77-4411-a3fe-bbb8e35f0390",
        "meta": {
          "profile": [
            "http://hl7.eu/fhir/laboratory/StructureDefinition/ServiceRequest-eu-lab"
          ]
        },
        "identifier": [
          {
            "system": "http://example.org",
            "value": "80db3661-45a4-4776-b6fa-cdee4620a86b"
          }
        ],
        "specimen": [
          {
            "reference": "urn:uuid:97b677fd-cd3c-4c9e-9dac-f935913c54db"
          },
          {
            "reference": "urn:uuid:b56ef124-4664-4641-a787-94067fa21db6"
          },
          {
            "reference": "urn:uuid:f8c5630d-ed3b-4917-b4c0-b66847312378"
          }
        ],
        "reasonCode": [
          {
            "coding": [
              {
                "code": "203082005",
                "system": "http://snomed.info/sct",
                "display": "Fibromyalgia"
              }
            ]
          },
          {
            "coding": [
              {
                "code": "239873007",
                "system": "http://snomed.info/sct",
                "display": "Osteoarthritis of knee"
              }
            ]
          },
          {
            "coding": [
              {
                "code": "55822004",
                "system": "http://snomed.info/sct",
                "display": "Hyperlipidemia"
              }
            ]
          },
          {
            "coding": [
              {
                "code": "254837009",
                "system": "http://snomed.info/sct",
                "display": "Malignant neoplasm of breast"
              }
            ]
          },
          {
            "coding": [
              {
                "code": "197927001",
                "system": "http://snomed.info/sct",
                "display": "Recurrent urinary tract infection"
              }
            ]
          }
        ],
        "status": "active",
        "intent": "order",
        "code": {
          "coding": [
            {
              "code": "108252007",
              "system": "http://snomed.info/sct",
              "display": "Laboratory procedure"
            }
          ]
        },
        "subject": {
          "reference": "urn:uuid:a3252e7c-bb57-4c51-af0c-59c89c224605",
          "display": "Eileen Taylor"
        },
        "requester": {
          "reference": "urn:uuid:19b5c047-05f3-4815-afbe-6eff20403d86"
        }
      }
    },
    {
      "fullUrl": "urn:uuid:19b5c047-05f3-4815-afbe-6eff20403d86",
      "resource": {
        "resourceType": "PractitionerRole",
        "id": "19b5c047-05f3-4815-afbe-6eff20403d86",
        "meta": {
          "profile": [
            "http://hl7.eu/fhir/base/StructureDefinition/practitionerRole-eu"
          ]
        },
        "text": {
          "status": "generated",
          "div": "<div xmlns=\"http://www.w3.org/1999/xhtml\">Provider Role Id: 19b5c047-05f3-4815-afbe-6eff20403d86</div>"
        },
        "organization": {
          "reference": "urn:uuid:b0e93a62-4952-48a8-8573-20466c880847"
        }
      }
    },
    {
      "fullUrl": "urn:uuid:b0e93a62-4952-48a8-8573-20466c880847",
      "resource": {
        "resourceType": "Organization",
        "id": "b0e93a62-4952-48a8-8573-20466c880847",
        "meta": {
          "profile": [
            "http://hl7.eu/fhir/base/StructureDefinition/organization-eu"
          ]
        },
        "identifier": [
          {
            "assigner": {
              "display": "HL7 Europe"
            },
            "system": "urn:oid:2.16.840.1.113883.2.51.999",
            "value": "a8314cee-8135-4099-8ddd-d0432283e947"
          }
        ],
        "address": [
          {
            "city": "Leicester",
            "postalCode": "LE2 7",
            "country": "United Kingdom"
          }
        ],
        "text": {
          "status": "generated",
          "div": "<div xmlns=\"http://www.w3.org/1999/xhtml\">Provider Organization: Leicester Royal Infirmary</div>"
        },
        "name": "Leicester Royal Infirmary"
      }
    },
    {
      "fullUrl": "urn:uuid:97b677fd-cd3c-4c9e-9dac-f935913c54db",
      "resource": {
        "resourceType": "Specimen",
        "id": "97b677fd-cd3c-4c9e-9dac-f935913c54db",
        "meta": {
          "profile": [
            "http://hl7.eu/fhir/laboratory/StructureDefinition/Specimen-eu-lab"
          ]
        },
        "collection": {
          "collectedDateTime": "2016-03-09"
        },
        "text": {
          "status": "generated",
          "div": "<div xmlns=\"http://www.w3.org/1999/xhtml\"><table class=\"hl7__eu__lab__report\"><tr><th>Specimen</th><th>Collection Date</th></tr><tr><td>Whole blood specimen (specimen)</td><td><span class=\"nb\">09-Mar-2016</span></td></tr></table></div>"
        },
        "type": {
          "coding": [
            {
              "code": "258580003",
              "system": "http://snomed.info/sct",
              "display": "Whole blood specimen (specimen)"
            }
          ]
        }
      }
    },
    {
      "fullUrl": "urn:uuid:b56ef124-4664-4641-a787-94067fa21db6",
      "resource": {
        "resourceType": "Specimen",
        "id": "b56ef124-4664-4641-a787-94067fa21db6",
        "meta": {
          "profile": [
            "http://hl7.eu/fhir/laboratory/StructureDefinition/Specimen-eu-lab"
          ]
        },
        "collection": {
          "collectedDateTime": "2016-03-09"
        },
        "text": {
          "status": "generated",
          "div": "<div xmlns=\"http://www.w3.org/1999/xhtml\"><table class=\"hl7__eu__lab__report\"><tr><th>Specimen</th><th>Collection Date</th></tr><tr><td>Acellular blood (serum or plasma) specimen</td><td><span class=\"nb\">09-Mar-2016</span></td></tr></table></div>"
        },
        "type": {
          "coding": [
            {
              "code": "122592007",
              "system": "http://snomed.info/sct",
              "display": "Acellular blood (serum or plasma) specimen"
            }
          ]
        }
      }
    },
    {
      "fullUrl": "urn:uuid:f8c5630d-ed3b-4917-b4c0-b66847312378",
      "resource": {
        "resourceType": "Specimen",
        "id": "f8c5630d-ed3b-4917-b4c0-b66847312378",
        "meta": {
          "profile": [
            "http://hl7.eu/fhir/laboratory/StructureDefinition/Specimen-eu-lab"
          ]
        },
        "collection": {
          "collectedDateTime": "2016-03-09"
        },
        "text": {
          "status": "generated",
          "div": "<div xmlns=\"http://www.w3.org/1999/xhtml\"><table class=\"hl7__eu__lab__report\"><tr><th>Specimen</th><th>Collection Date</th></tr><tr><td>Serum specimen</td><td><span class=\"nb\">09-Mar-2016</span></td></tr></table></div>"
        },
        "type": {
          "coding": [
            {
              "code": "119364003",
              "system": "http://snomed.info/sct",
              "display": "Serum specimen"
            }
          ]
        }
      }
    },
    {
      "fullUrl": "urn:uuid:8e5d3f4c-0c5e-4192-9761-b7b3d08ba305",
      "resource": {
        "resourceType": "Observation",
        "id": "8e5d3f4c-0c5e-4192-9761-b7b3d08ba305",
        "meta": {
          "profile": [
            "http://hl7.eu/fhir/laboratory/StructureDefinition/Observation-resultslab-eu-lab"
          ]
        },
        "performer": [
          {
            "display": "The Central European Lab"
          }
        ],
        "category": [
          {
            "coding": [
              {
                "system": "http://terminology.hl7.org/CodeSystem/observation-category",
                "code": "laboratory"
              }
            ]
          }
        ],
        "code": {
          "coding": [
            {
              "code": "2339-0",
              "system": "http://loinc.org",
              "display": "Glucose [Mass/volume] in Blood"
            }
          ],
          "text": "Glucose [Mass/volume] in Blood"
        },
        "valueQuantity": {
          "system": "http://unitsofmeasure.org",
          "value": 74,
          "unit": "mg/dL",
          "code": "mg/dL"
        },
        "referenceRange": [
          {
            "low": {
              "value": 70,
              "code": "mg/dL",
              "system": "http://unitsofmeasure.org"
            }
          },
          {
            "high": {
              "value": 140,
              "code": "mg/dL",
              "system": "http://unitsofmeasure.org"
            }
          }
        ],
        "text": {
          "status": "generated",
          "div": "<div xmlns=\"http://www.w3.org/1999/xhtml\"><table class=\"hl7__eu__lab__report\"><tr><th>Test</th><th>09-Mar-2016</th><th>Reference&#xA0;Range</th><th>Unit</th></tr><tr><td>Glucose [Mass/volume] in Blood</td><td>74.0</td><td>70 - 140</td><td></td><td>mg/dL</td></tr></table></div>"
        },
        "status": "final",
        "subject": {
          "reference": "urn:uuid:a3252e7c-bb57-4c51-af0c-59c89c224605",
          "display": "Eileen Taylor"
        },
        "effectiveDateTime": "2016-03-09T05:47:02Z",
        "specimen": {
          "reference": "urn:uuid:97b677fd-cd3c-4c9e-9dac-f935913c54db"
        }
      }
    },
    {
      "fullUrl": "urn:uuid:1adabf85-0d6a-497e-9114-9c593e647d52",
      "resource": {
        "resourceType": "Observation",
        "id": "1adabf85-0d6a-497e-9114-9c593e647d52",
        "meta": {
          "profile": [
            "http://hl7.eu/fhir/laboratory/StructureDefinition/Observation-resultslab-eu-lab"
          ]
        },
        "performer": [
          {
            "display": "The Central European Lab"
          }
        ],
        "category": [
          {
            "coding": [
              {
                "system": "http://terminology.hl7.org/CodeSystem/observation-category",
                "code": "laboratory"
              }
            ]
          }
        ],
        "code": {
          "coding": [
            {
              "code": "6299-2",
              "system": "http://loinc.org",
              "display": "Urea nitrogen [Mass/volume] in Blood"
            }
          ],
          "text": "Urea nitrogen [Mass/volume] in Blood"
        },
        "valueQuantity": {
          "system": "http://unitsofmeasure.org",
          "value": 7.5,
          "unit": "mg/dL",
          "code": "mg/dL"
        },
        "referenceRange": [
          {
            "low": {
              "value": 7,
              "code": "mg/dL",
              "system": "http://unitsofmeasure.org"
            }
          },
          {
            "high": {
              "value": 20,
              "code": "mg/dL",
              "system": "http://unitsofmeasure.org"
            }
          }
        ],
        "text": {
          "status": "generated",
          "div": "<div xmlns=\"http://www.w3.org/1999/xhtml\"><table class=\"hl7__eu__lab__report\"><tr><th>Test</th><th>09-Mar-2016</th><th>Reference&#xA0;Range</th><th>Unit</th></tr><tr><td>Urea nitrogen [Mass/volume] in Blood</td><td>7.5</td><td>7 - 20</td><td></td><td>mg/dL</td></tr></table></div>"
        },
        "status": "final",
        "subject": {
          "reference": "urn:uuid:a3252e7c-bb57-4c51-af0c-59c89c224605",
          "display": "Eileen Taylor"
        },
        "effectiveDateTime": "2016-03-09T05:47:02Z",
        "specimen": {
          "reference": "urn:uuid:97b677fd-cd3c-4c9e-9dac-f935913c54db"
        }
      }
    },
    {
      "fullUrl": "urn:uuid:c40622f9-db0d-4c2f-80fc-db2bf53d1d33",
      "resource": {
        "resourceType": "Observation",
        "id": "c40622f9-db0d-4c2f-80fc-db2bf53d1d33",
        "meta": {
          "profile": [
            "http://hl7.eu/fhir/laboratory/StructureDefinition/Observation-resultslab-eu-lab"
          ]
        },
        "performer": [
          {
            "display": "The Central European Lab"
          }
        ],
        "category": [
          {
            "coding": [
              {
                "system": "http://terminology.hl7.org/CodeSystem/observation-category",
                "code": "laboratory"
              }
            ]
          }
        ],
        "code": {
          "coding": [
            {
              "code": "38483-4",
              "system": "http://loinc.org",
              "display": "Creatinine [Mass/volume] in Blood"
            }
          ],
          "text": "Creatinine [Mass/volume] in Blood"
        },
        "valueQuantity": {
          "system": "http://unitsofmeasure.org",
          "value": 3.4,
          "unit": "mg/dL",
          "code": "mg/dL"
        },
        "referenceRange": [
          {
            "low": {
              "value": 0.6,
              "code": "mg/dL",
              "system": "http://unitsofmeasure.org"
            }
          },
          {
            "high": {
              "value": 1.1,
              "code": "mg/dL",
              "system": "http://unitsofmeasure.org"
            }
          }
        ],
        "interpretation": [
          {
            "coding": [
              {
                "code": "H",
                "system": "http://terminology.hl7.org/CodeSystem/v3-ObservationInterpretation",
                "display": "High"
              }
            ]
          }
        ],
        "text": {
          "status": "generated",
          "div": "<div xmlns=\"http://www.w3.org/1999/xhtml\"><table class=\"hl7__eu__lab__report\"><tr><th>Test</th><th>09-Mar-2016</th><th>Reference&#xA0;Range</th><th>Unit</th></tr><tr><td>Creatinine [Mass/volume] in Blood</td><td>3.4</td><td>0.6 - 1.1</td><td>H</td><td>mg/dL</td></tr></table></div>"
        },
        "status": "final",
        "subject": {
          "reference": "urn:uuid:a3252e7c-bb57-4c51-af0c-59c89c224605",
          "display": "Eileen Taylor"
        },
        "effectiveDateTime": "2016-03-09T05:47:02Z",
        "specimen": {
          "reference": "urn:uuid:97b677fd-cd3c-4c9e-9dac-f935913c54db"
        }
      }
    },
    {
      "fullUrl": "urn:uuid:4762d6e4-1efc-4b91-a5ad-84de2f4d5955",
      "resource": {
        "resourceType": "Observation",
        "id": "4762d6e4-1efc-4b91-a5ad-84de2f4d5955",
        "meta": {
          "profile": [
            "http://hl7.eu/fhir/laboratory/StructureDefinition/Observation-resultslab-eu-lab"
          ]
        },
        "performer": [
          {
            "display": "The Central European Lab"
          }
        ],
        "category": [
          {
            "coding": [
              {
                "system": "http://terminology.hl7.org/CodeSystem/observation-category",
                "code": "laboratory"
              }
            ]
          }
        ],
        "code": {
          "coding": [
            {
              "code": "49765-1",
              "system": "http://loinc.org",
              "display": "Calcium [Mass/volume] in Blood"
            }
          ],
          "text": "Calcium [Mass/volume] in Blood"
        },
        "valueQuantity": {
          "system": "http://unitsofmeasure.org",
          "value": 9.4,
          "unit": "mg/dL",
          "code": "mg/dL"
        },
        "referenceRange": [
          {
            "low": {
              "value": 8.5,
              "code": "mg/dL",
              "system": "http://unitsofmeasure.org"
            }
          },
          {
            "high": {
              "value": 10.4,
              "code": "mg/dL",
              "system": "http://unitsofmeasure.org"
            }
          }
        ],
        "text": {
          "status": "generated",
          "div": "<div xmlns=\"http://www.w3.org/1999/xhtml\"><table class=\"hl7__eu__lab__report\"><tr><th>Test</th><th>09-Mar-2016</th><th>Reference&#xA0;Range</th><th>Unit</th></tr><tr><td>Calcium [Mass/volume] in Blood</td><td>9.4</td><td>8.5 - 10.4</td><td></td><td>mg/dL</td></tr></table></div>"
        },
        "status": "final",
        "subject": {
          "reference": "urn:uuid:a3252e7c-bb57-4c51-af0c-59c89c224605",
          "display": "Eileen Taylor"
        },
        "effectiveDateTime": "2016-03-09T05:47:02Z",
        "specimen": {
          "reference": "urn:uuid:97b677fd-cd3c-4c9e-9dac-f935913c54db"
        }
      }
    },
    {
      "fullUrl": "urn:uuid:e66d2bc4-163c-47be-8f5a-02f3793f7cfd",
      "resource": {
        "resourceType": "Observation",
        "id": "e66d2bc4-163c-47be-8f5a-02f3793f7cfd",
        "meta": {
          "profile": [
            "http://hl7.eu/fhir/laboratory/StructureDefinition/Observation-resultslab-eu-lab"
          ]
        },
        "performer": [
          {
            "display": "The Central European Lab"
          }
        ],
        "category": [
          {
            "coding": [
              {
                "system": "http://terminology.hl7.org/CodeSystem/observation-category",
                "code": "laboratory"
              }
            ]
          }
        ],
        "code": {
          "coding": [
            {
              "code": "2947-0",
              "system": "http://loinc.org",
              "display": "Sodium [Moles/volume] in Blood"
            }
          ],
          "text": "Sodium [Moles/volume] in Blood"
        },
        "valueQuantity": {
          "system": "http://unitsofmeasure.org",
          "value": 139.9,
          "unit": "mmol/L",
          "code": "mmol/L"
        },
        "referenceRange": [
          {
            "low": {
              "value": 135,
              "code": "mmol/L",
              "system": "http://unitsofmeasure.org"
            }
          },
          {
            "high": {
              "value": 145,
              "code": "mmol/L",
              "system": "http://unitsofmeasure.org"
            }
          }
        ],
        "text": {
          "status": "generated",
          "div": "<div xmlns=\"http://www.w3.org/1999/xhtml\"><table class=\"hl7__eu__lab__report\"><tr><th>Test</th><th>09-Mar-2016</th><th>Reference&#xA0;Range</th><th>Unit</th></tr><tr><td>Sodium [Moles/volume] in Blood</td><td>139.9</td><td>135 - 145</td><td></td><td>mmol/L</td></tr></table></div>"
        },
        "status": "final",
        "subject": {
          "reference": "urn:uuid:a3252e7c-bb57-4c51-af0c-59c89c224605",
          "display": "Eileen Taylor"
        },
        "effectiveDateTime": "2016-03-09T05:47:02Z",
        "specimen": {
          "reference": "urn:uuid:97b677fd-cd3c-4c9e-9dac-f935913c54db"
        }
      }
    },
    {
      "fullUrl": "urn:uuid:2e0e7376-9b66-4251-a435-1ea5315f349a",
      "resource": {
        "resourceType": "Observation",
        "id": "2e0e7376-9b66-4251-a435-1ea5315f349a",
        "meta": {
          "profile": [
            "http://hl7.eu/fhir/laboratory/StructureDefinition/Observation-resultslab-eu-lab"
          ]
        },
        "performer": [
          {
            "display": "The Central European Lab"
          }
        ],
        "category": [
          {
            "coding": [
              {
                "system": "http://terminology.hl7.org/CodeSystem/observation-category",
                "code": "laboratory"
              }
            ]
          }
        ],
        "code": {
          "coding": [
            {
              "code": "6298-4",
              "system": "http://loinc.org",
              "display": "Potassium [Moles/volume] in Blood"
            }
          ],
          "text": "Potassium [Moles/volume] in Blood"
        },
        "valueQuantity": {
          "system": "http://unitsofmeasure.org",
          "value": 4.7,
          "unit": "mmol/L",
          "code": "mmol/L"
        },
        "referenceRange": [
          {
            "low": {
              "value": 3.5,
              "code": "mmol/L",
              "system": "http://unitsofmeasure.org"
            }
          },
          {
            "high": {
              "value": 5.1,
              "code": "mmol/L",
              "system": "http://unitsofmeasure.org"
            }
          }
        ],
        "text": {
          "status": "generated",
          "div": "<div xmlns=\"http://www.w3.org/1999/xhtml\"><table class=\"hl7__eu__lab__report\"><tr><th>Test</th><th>09-Mar-2016</th><th>Reference&#xA0;Range</th><th>Unit</th></tr><tr><td>Potassium [Moles/volume] in Blood</td><td>4.7</td><td>3.5 - 5.1</td><td></td><td>mmol/L</td></tr></table></div>"
        },
        "status": "final",
        "subject": {
          "reference": "urn:uuid:a3252e7c-bb57-4c51-af0c-59c89c224605",
          "display": "Eileen Taylor"
        },
        "effectiveDateTime": "2016-03-09T05:47:02Z",
        "specimen": {
          "reference": "urn:uuid:97b677fd-cd3c-4c9e-9dac-f935913c54db"
        }
      }
    },
    {
      "fullUrl": "urn:uuid:401f492a-1ab3-47a0-a61c-fe7270346b78",
      "resource": {
        "resourceType": "Observation",
        "id": "401f492a-1ab3-47a0-a61c-fe7270346b78",
        "meta": {
          "profile": [
            "http://hl7.eu/fhir/laboratory/StructureDefinition/Observation-resultslab-eu-lab"
          ]
        },
        "performer": [
          {
            "display": "The Central European Lab"
          }
        ],
        "category": [
          {
            "coding": [
              {
                "system": "http://terminology.hl7.org/CodeSystem/observation-category",
                "code": "laboratory"
              }
            ]
          }
        ],
        "code": {
          "coding": [
            {
              "code": "2069-3",
              "system": "http://loinc.org",
              "display": "Chloride [Moles/volume] in Blood"
            }
          ],
          "text": "Chloride [Moles/volume] in Blood"
        },
        "valueQuantity": {
          "system": "http://unitsofmeasure.org",
          "value": 109,
          "unit": "mmol/L",
          "code": "mmol/L"
        },
        "referenceRange": [
          {
            "low": {
              "value": 98,
              "code": "mmol/L",
              "system": "http://unitsofmeasure.org"
            }
          },
          {
            "high": {
              "value": 108,
              "code": "mmol/L",
              "system": "http://unitsofmeasure.org"
            }
          }
        ],
        "interpretation": [
          {
            "coding": [
              {
                "code": "H",
                "system": "http://terminology.hl7.org/CodeSystem/v3-ObservationInterpretation",
                "display": "High"
              }
            ]
          }
        ],
        "text": {
          "status": "generated",
          "div": "<div xmlns=\"http://www.w3.org/1999/xhtml\"><table class=\"hl7__eu__lab__report\"><tr><th>Test</th><th>09-Mar-2016</th><th>Reference&#xA0;Range</th><th>Unit</th></tr><tr><td>Chloride [Moles/volume] in Blood</td><td>109.0</td><td>98 - 108</td><td>H</td><td>mmol/L</td></tr></table></div>"
        },
        "status": "final",
        "subject": {
          "reference": "urn:uuid:a3252e7c-bb57-4c51-af0c-59c89c224605",
          "display": "Eileen Taylor"
        },
        "effectiveDateTime": "2016-03-09T05:47:02Z",
        "specimen": {
          "reference": "urn:uuid:97b677fd-cd3c-4c9e-9dac-f935913c54db"
        }
      }
    },
    {
      "fullUrl": "urn:uuid:4ce14299-79b7-4c62-b6f8-59c2f29689da",
      "resource": {
        "resourceType": "Observation",
        "id": "4ce14299-79b7-4c62-b6f8-59c2f29689da",
        "meta": {
          "profile": [
            "http://hl7.eu/fhir/laboratory/StructureDefinition/Observation-resultslab-eu-lab"
          ]
        },
        "performer": [
          {
            "display": "The Central European Lab"
          }
        ],
        "category": [
          {
            "coding": [
              {
                "system": "http://terminology.hl7.org/CodeSystem/observation-category",
                "code": "laboratory"
              }
            ]
          }
        ],
        "code": {
          "coding": [
            {
              "code": "20565-8",
              "system": "http://loinc.org",
              "display": "Carbon dioxide, total [Moles/volume] in Blood"
            }
          ],
          "text": "Carbon dioxide, total [Moles/volume] in Blood"
        },
        "valueQuantity": {
          "system": "http://unitsofmeasure.org",
          "value": 24.9,
          "unit": "mmol/L",
          "code": "mmol/L"
        },
        "referenceRange": [
          {
            "low": {
              "value": 22,
              "code": "mmol/L",
              "system": "http://unitsofmeasure.org"
            }
          },
          {
            "high": {
              "value": 29,
              "code": "mmol/L",
              "system": "http://unitsofmeasure.org"
            }
          }
        ],
        "text": {
          "status": "generated",
          "div": "<div xmlns=\"http://www.w3.org/1999/xhtml\"><table class=\"hl7__eu__lab__report\"><tr><th>Test</th><th>09-Mar-2016</th><th>Reference&#xA0;Range</th><th>Unit</th></tr><tr><td>Carbon dioxide, total [Moles/volume] in Blood</td><td>24.9</td><td>22 - 29</td><td></td><td>mmol/L</td></tr></table></div>"
        },
        "status": "final",
        "subject": {
          "reference": "urn:uuid:a3252e7c-bb57-4c51-af0c-59c89c224605",
          "display": "Eileen Taylor"
        },
        "effectiveDateTime": "2016-03-09T05:47:02Z",
        "specimen": {
          "reference": "urn:uuid:97b677fd-cd3c-4c9e-9dac-f935913c54db"
        }
      }
    },
    {
      "fullUrl": "urn:uuid:3208c16b-0eda-40e9-8461-1c877d1ca776",
      "resource": {
        "resourceType": "Observation",
        "id": "3208c16b-0eda-40e9-8461-1c877d1ca776",
        "meta": {
          "profile": [
            "http://hl7.eu/fhir/laboratory/StructureDefinition/Observation-resultslab-eu-lab"
          ]
        },
        "performer": [
          {
            "display": "The Central European Lab"
          }
        ],
        "category": [
          {
            "coding": [
              {
                "system": "http://terminology.hl7.org/CodeSystem/observation-category",
                "code": "laboratory"
              }
            ]
          }
        ],
        "code": {
          "coding": [
            {
              "code": "2885-2",
              "system": "http://loinc.org",
              "display": "Protein [Mass/volume] in Serum or Plasma"
            }
          ],
          "text": "Protein [Mass/volume] in Serum or Plasma"
        },
        "valueQuantity": {
          "system": "http://unitsofmeasure.org",
          "value": 6.7,
          "unit": "g/dL",
          "code": "g/dL"
        },
        "referenceRange": [
          {
            "low": {
              "value": 6,
              "code": "g/dL",
              "system": "http://unitsofmeasure.org"
            }
          },
          {
            "high": {
              "value": 8.3,
              "code": "g/dL",
              "system": "http://unitsofmeasure.org"
            }
          }
        ],
        "text": {
          "status": "generated",
          "div": "<div xmlns=\"http://www.w3.org/1999/xhtml\"><table class=\"hl7__eu__lab__report\"><tr><th>Test</th><th>09-Mar-2016</th><th>Reference&#xA0;Range</th><th>Unit</th></tr><tr><td>Protein [Mass/volume] in Serum or Plasma</td><td>6.7</td><td>6 - 8.3</td><td></td><td>g/dL</td></tr></table></div>"
        },
        "status": "final",
        "subject": {
          "reference": "urn:uuid:a3252e7c-bb57-4c51-af0c-59c89c224605",
          "display": "Eileen Taylor"
        },
        "effectiveDateTime": "2016-03-09T05:47:02Z",
        "specimen": {
          "reference": "urn:uuid:b56ef124-4664-4641-a787-94067fa21db6"
        }
      }
    },
    {
      "fullUrl": "urn:uuid:272c9a3d-079d-44e0-adbf-6e7931739c9e",
      "resource": {
        "resourceType": "Observation",
        "id": "272c9a3d-079d-44e0-adbf-6e7931739c9e",
        "meta": {
          "profile": [
            "http://hl7.eu/fhir/laboratory/StructureDefinition/Observation-resultslab-eu-lab"
          ]
        },
        "performer": [
          {
            "display": "The Central European Lab"
          }
        ],
        "category": [
          {
            "coding": [
              {
                "system": "http://terminology.hl7.org/CodeSystem/observation-category",
                "code": "laboratory"
              }
            ]
          }
        ],
        "code": {
          "coding": [
            {
              "code": "1751-7",
              "system": "http://loinc.org",
              "display": "Albumin [Mass/volume] in Serum or Plasma"
            }
          ],
          "text": "Albumin [Mass/volume] in Serum or Plasma"
        },
        "valueQuantity": {
          "system": "http://unitsofmeasure.org",
          "value": 5.3,
          "unit": "g/dL",
          "code": "g/dL"
        },
        "referenceRange": [
          {
            "low": {
              "value": 3.4,
              "code": "g/dL",
              "system": "http://unitsofmeasure.org"
            }
          },
          {
            "high": {
              "value": 5,
              "code": "g/dL",
              "system": "http://unitsofmeasure.org"
            }
          }
        ],
        "interpretation": [
          {
            "coding": [
              {
                "code": "H",
                "system": "http://terminology.hl7.org/CodeSystem/v3-ObservationInterpretation",
                "display": "High"
              }
            ]
          }
        ],
        "text": {
          "status": "generated",
          "div": "<div xmlns=\"http://www.w3.org/1999/xhtml\"><table class=\"hl7__eu__lab__report\"><tr><th>Test</th><th>09-Mar-2016</th><th>Reference&#xA0;Range</th><th>Unit</th></tr><tr><td>Albumin [Mass/volume] in Serum or Plasma</td><td>5.3</td><td>3.4 - 5</td><td>H</td><td>g/dL</td></tr></table></div>"
        },
        "status": "final",
        "subject": {
          "reference": "urn:uuid:a3252e7c-bb57-4c51-af0c-59c89c224605",
          "display": "Eileen Taylor"
        },
        "effectiveDateTime": "2016-03-09T05:47:02Z",
        "specimen": {
          "reference": "urn:uuid:b56ef124-4664-4641-a787-94067fa21db6"
        }
      }
    },
    {
      "fullUrl": "urn:uuid:c71f955a-15ed-47bf-8621-508c2a90e19c",
      "resource": {
        "resourceType": "Observation",
        "id": "c71f955a-15ed-47bf-8621-508c2a90e19c",
        "meta": {
          "profile": [
            "http://hl7.eu/fhir/laboratory/StructureDefinition/Observation-resultslab-eu-lab"
          ]
        },
        "performer": [
          {
            "display": "The Central European Lab"
          }
        ],
        "category": [
          {
            "coding": [
              {
                "system": "http://terminology.hl7.org/CodeSystem/observation-category",
                "code": "laboratory"
              }
            ]
          }
        ],
        "code": {
          "coding": [
            {
              "code": "10834-0",
              "system": "http://loinc.org",
              "display": "Globulin [Mass/volume] in Serum by calculation"
            }
          ],
          "text": "Globulin [Mass/volume] in Serum by calculation"
        },
        "valueQuantity": {
          "system": "http://unitsofmeasure.org",
          "value": 2.5,
          "unit": "g/L",
          "code": "g/L"
        },
        "referenceRange": [
          {
            "low": {
              "value": 2,
              "code": "g/L",
              "system": "http://unitsofmeasure.org"
            }
          },
          {
            "high": {
              "value": 3.5,
              "code": "g/L",
              "system": "http://unitsofmeasure.org"
            }
          }
        ],
        "text": {
          "status": "generated",
          "div": "<div xmlns=\"http://www.w3.org/1999/xhtml\"><table class=\"hl7__eu__lab__report\"><tr><th>Test</th><th>09-Mar-2016</th><th>Reference&#xA0;Range</th><th>Unit</th></tr><tr><td>Globulin [Mass/volume] in Serum by calculation</td><td>2.5</td><td>2 - 3.5</td><td></td><td>g/L</td></tr></table></div>"
        },
        "status": "final",
        "subject": {
          "reference": "urn:uuid:a3252e7c-bb57-4c51-af0c-59c89c224605",
          "display": "Eileen Taylor"
        },
        "effectiveDateTime": "2016-03-09T05:47:02Z",
        "specimen": {
          "reference": "urn:uuid:f8c5630d-ed3b-4917-b4c0-b66847312378"
        }
      }
    },
    {
      "fullUrl": "urn:uuid:e04263e5-f90f-4738-80c9-28a3f4c6b601",
      "resource": {
        "resourceType": "Observation",
        "id": "e04263e5-f90f-4738-80c9-28a3f4c6b601",
        "meta": {
          "profile": [
            "http://hl7.eu/fhir/laboratory/StructureDefinition/Observation-resultslab-eu-lab"
          ]
        },
        "performer": [
          {
            "display": "The Central European Lab"
          }
        ],
        "category": [
          {
            "coding": [
              {
                "system": "http://terminology.hl7.org/CodeSystem/observation-category",
                "code": "laboratory"
              }
            ]
          }
        ],
        "code": {
          "coding": [
            {
              "code": "1975-2",
              "system": "http://loinc.org",
              "display": "Bilirubin.total [Mass/volume] in Serum or Plasma"
            }
          ],
          "text": "Bilirubin.total [Mass/volume] in Serum or Plasma"
        },
        "valueQuantity": {
          "system": "http://unitsofmeasure.org",
          "value": 0.1,
          "unit": "mg/dL",
          "code": "mg/dL"
        },
        "referenceRange": [
          {
            "low": {
              "value": 0.2,
              "code": "mg/dL",
              "system": "http://unitsofmeasure.org"
            }
          },
          {
            "high": {
              "value": 1.2,
              "code": "mg/dL",
              "system": "http://unitsofmeasure.org"
            }
          }
        ],
        "interpretation": [
          {
            "coding": [
              {
                "code": "L",
                "system": "http://terminology.hl7.org/CodeSystem/v3-ObservationInterpretation",
                "display": "Low"
              }
            ]
          }
        ],
        "text": {
          "status": "generated",
          "div": "<div xmlns=\"http://www.w3.org/1999/xhtml\"><table class=\"hl7__eu__lab__report\"><tr><th>Test</th><th>09-Mar-2016</th><th>Reference&#xA0;Range</th><th>Unit</th></tr><tr><td>Bilirubin.total [Mass/volume] in Serum or Plasma</td><td>0.1</td><td>0.2 - 1.2</td><td>L</td><td>mg/dL</td></tr></table></div>"
        },
        "status": "final",
        "subject": {
          "reference": "urn:uuid:a3252e7c-bb57-4c51-af0c-59c89c224605",
          "display": "Eileen Taylor"
        },
        "effectiveDateTime": "2016-03-09T05:47:02Z",
        "specimen": {
          "reference": "urn:uuid:b56ef124-4664-4641-a787-94067fa21db6"
        }
      }
    },
    {
      "fullUrl": "urn:uuid:580b08d6-4a57-4c85-b552-e2f4267d2f7e",
      "resource": {
        "resourceType": "Observation",
        "id": "580b08d6-4a57-4c85-b552-e2f4267d2f7e",
        "meta": {
          "profile": [
            "http://hl7.eu/fhir/laboratory/StructureDefinition/Observation-resultslab-eu-lab"
          ]
        },
        "performer": [
          {
            "display": "The Central European Lab"
          }
        ],
        "category": [
          {
            "coding": [
              {
                "system": "http://terminology.hl7.org/CodeSystem/observation-category",
                "code": "laboratory"
              }
            ]
          }
        ],
        "code": {
          "coding": [
            {
              "code": "6768-6",
              "system": "http://loinc.org",
              "display": "Alkaline phosphatase [Enzymatic activity/volume] in Serum or Plasma"
            }
          ],
          "text": "Alkaline phosphatase [Enzymatic activity/volume] in Serum or Plasma"
        },
        "valueQuantity": {
          "system": "http://unitsofmeasure.org",
          "value": 128.3,
          "unit": "U/L",
          "code": "U/L"
        },
        "referenceRange": [
          {
            "low": {
              "value": 44,
              "code": "U/L",
              "system": "http://unitsofmeasure.org"
            }
          },
          {
            "high": {
              "value": 104,
              "code": "U/L",
              "system": "http://unitsofmeasure.org"
            }
          }
        ],
        "interpretation": [
          {
            "coding": [
              {
                "code": "H",
                "system": "http://terminology.hl7.org/CodeSystem/v3-ObservationInterpretation",
                "display": "High"
              }
            ]
          }
        ],
        "text": {
          "status": "generated",
          "div": "<div xmlns=\"http://www.w3.org/1999/xhtml\"><table class=\"hl7__eu__lab__report\"><tr><th>Test</th><th>09-Mar-2016</th><th>Reference&#xA0;Range</th><th>Unit</th></tr><tr><td>Alkaline phosphatase [Enzymatic activity/volume] in Serum or Plasma</td><td>128.3</td><td>44 - 104</td><td>H</td><td>U/L</td></tr></table></div>"
        },
        "status": "final",
        "subject": {
          "reference": "urn:uuid:a3252e7c-bb57-4c51-af0c-59c89c224605",
          "display": "Eileen Taylor"
        },
        "effectiveDateTime": "2016-03-09T05:47:02Z",
        "specimen": {
          "reference": "urn:uuid:b56ef124-4664-4641-a787-94067fa21db6"
        }
      }
    },
    {
      "fullUrl": "urn:uuid:5facf14e-5c82-4604-988f-3f7b9ba0a7d6",
      "resource": {
        "resourceType": "Observation",
        "id": "5facf14e-5c82-4604-988f-3f7b9ba0a7d6",
        "meta": {
          "profile": [
            "http://hl7.eu/fhir/laboratory/StructureDefinition/Observation-resultslab-eu-lab"
          ]
        },
        "performer": [
          {
            "display": "The Central European Lab"
          }
        ],
        "category": [
          {
            "coding": [
              {
                "system": "http://terminology.hl7.org/CodeSystem/observation-category",
                "code": "laboratory"
              }
            ]
          }
        ],
        "code": {
          "coding": [
            {
              "code": "1742-6",
              "system": "http://loinc.org",
              "display": "Alanine aminotransferase [Enzymatic activity/volume] in Serum or Plasma"
            }
          ],
          "text": "Alanine aminotransferase [Enzymatic activity/volume] in Serum or Plasma"
        },
        "valueQuantity": {
          "system": "http://unitsofmeasure.org",
          "value": 27,
          "unit": "U/L",
          "code": "U/L"
        },
        "referenceRange": [
          {
            "low": {
              "value": 13,
              "code": "U/L",
              "system": "http://unitsofmeasure.org"
            }
          },
          {
            "high": {
              "value": 36,
              "code": "U/L",
              "system": "http://unitsofmeasure.org"
            }
          }
        ],
        "text": {
          "status": "generated",
          "div": "<div xmlns=\"http://www.w3.org/1999/xhtml\"><table class=\"hl7__eu__lab__report\"><tr><th>Test</th><th>09-Mar-2016</th><th>Reference&#xA0;Range</th><th>Unit</th></tr><tr><td>Alanine aminotransferase [Enzymatic activity/volume] in Serum or Plasma</td><td>27.0</td><td>13 - 36</td><td></td><td>U/L</td></tr></table></div>"
        },
        "status": "final",
        "subject": {
          "reference": "urn:uuid:a3252e7c-bb57-4c51-af0c-59c89c224605",
          "display": "Eileen Taylor"
        },
        "effectiveDateTime": "2016-03-09T05:47:02Z",
        "specimen": {
          "reference": "urn:uuid:b56ef124-4664-4641-a787-94067fa21db6"
        }
      }
    },
    {
      "fullUrl": "urn:uuid:1f9fb9cc-41ef-46f2-8e3c-271c3b049d0d",
      "resource": {
        "resourceType": "Observation",
        "id": "1f9fb9cc-41ef-46f2-8e3c-271c3b049d0d",
        "meta": {
          "profile": [
            "http://hl7.eu/fhir/laboratory/StructureDefinition/Observation-resultslab-eu-lab"
          ]
        },
        "performer": [
          {
            "display": "The Central European Lab"
          }
        ],
        "category": [
          {
            "coding": [
              {
                "system": "http://terminology.hl7.org/CodeSystem/observation-category",
                "code": "laboratory"
              }
            ]
          }
        ],
        "code": {
          "coding": [
            {
              "code": "1920-8",
              "system": "http://loinc.org",
              "display": "Aspartate aminotransferase [Enzymatic activity/volume] in Serum or Plasma"
            }
          ],
          "text": "Aspartate aminotransferase [Enzymatic activity/volume] in Serum or Plasma"
        },
        "valueQuantity": {
          "system": "http://unitsofmeasure.org",
          "value": 23.4,
          "unit": "U/L",
          "code": "U/L"
        },
        "referenceRange": [
          {
            "low": {
              "value": 10,
              "code": "U/L",
              "system": "http://unitsofmeasure.org"
            }
          },
          {
            "high": {
              "value": 40,
              "code": "U/L",
              "system": "http://unitsofmeasure.org"
            }
          }
        ],
        "text": {
          "status": "generated",
          "div": "<div xmlns=\"http://www.w3.org/1999/xhtml\"><table class=\"hl7__eu__lab__report\"><tr><th>Test</th><th>09-Mar-2016</th><th>Reference&#xA0;Range</th><th>Unit</th></tr><tr><td>Aspartate aminotransferase [Enzymatic activity/volume] in Serum or Plasma</td><td>23.4</td><td>10 - 40</td><td></td><td>U/L</td></tr></table></div>"
        },
        "status": "final",
        "subject": {
          "reference": "urn:uuid:a3252e7c-bb57-4c51-af0c-59c89c224605",
          "display": "Eileen Taylor"
        },
        "effectiveDateTime": "2016-03-09T05:47:02Z",
        "specimen": {
          "reference": "urn:uuid:b56ef124-4664-4641-a787-94067fa21db6"
        }
      }
    },
    {
      "fullUrl": "urn:uuid:dbb40119-f9cf-405e-be87-366f665dd53d",
      "resource": {
        "resourceType": "Observation",
        "id": "dbb40119-f9cf-405e-be87-366f665dd53d",
        "meta": {
          "profile": [
            "http://hl7.eu/fhir/laboratory/StructureDefinition/Observation-resultslab-eu-lab"
          ]
        },
        "performer": [
          {
            "display": "The Central European Lab"
          }
        ],
        "category": [
          {
            "coding": [
              {
                "system": "http://terminology.hl7.org/CodeSystem/observation-category",
                "code": "laboratory"
              }
            ]
          }
        ],
        "code": {
          "coding": [
            {
              "code": "2093-3",
              "system": "http://loinc.org",
              "display": "Cholesterol [Mass/volume] in Serum or Plasma"
            }
          ],
          "text": "Cholesterol [Mass/volume] in Serum or Plasma"
        },
        "valueQuantity": {
          "system": "http://unitsofmeasure.org",
          "value": 193.3,
          "unit": "mg/dL",
          "code": "mg/dL"
        },
        "referenceRange": [
          {
            "low": {
              "value": 130,
              "code": "mg/dL",
              "system": "http://unitsofmeasure.org"
            }
          },
          {
            "high": {
              "value": 200,
              "code": "mg/dL",
              "system": "http://unitsofmeasure.org"
            }
          }
        ],
        "text": {
          "status": "generated",
          "div": "<div xmlns=\"http://www.w3.org/1999/xhtml\"><table class=\"hl7__eu__lab__report\"><tr><th>Test</th><th>09-Mar-2016</th><th>Reference&#xA0;Range</th><th>Unit</th></tr><tr><td>Cholesterol [Mass/volume] in Serum or Plasma</td><td>193.3</td><td>130 - 200</td><td></td><td>mg/dL</td></tr></table></div>"
        },
        "status": "final",
        "subject": {
          "reference": "urn:uuid:a3252e7c-bb57-4c51-af0c-59c89c224605",
          "display": "Eileen Taylor"
        },
        "effectiveDateTime": "2016-03-09T05:47:02Z",
        "specimen": {
          "reference": "urn:uuid:b56ef124-4664-4641-a787-94067fa21db6"
        }
      }
    },
    {
      "fullUrl": "urn:uuid:90b24aa3-8e8a-43f9-8e03-20c47ff9349e",
      "resource": {
        "resourceType": "Observation",
        "id": "90b24aa3-8e8a-43f9-8e03-20c47ff9349e",
        "meta": {
          "profile": [
            "http://hl7.eu/fhir/laboratory/StructureDefinition/Observation-resultslab-eu-lab"
          ]
        },
        "performer": [
          {
            "display": "The Central European Lab"
          }
        ],
        "category": [
          {
            "coding": [
              {
                "system": "http://terminology.hl7.org/CodeSystem/observation-category",
                "code": "laboratory"
              }
            ]
          }
        ],
        "code": {
          "coding": [
            {
              "code": "2571-8",
              "system": "http://loinc.org",
              "display": "Triglyceride [Mass/volume] in Serum or Plasma"
            }
          ],
          "text": "Triglyceride [Mass/volume] in Serum or Plasma"
        },
        "valueQuantity": {
          "system": "http://unitsofmeasure.org",
          "value": 183.5,
          "unit": "mg/dL",
          "code": "mg/dL"
        },
        "referenceRange": [
          {
            "low": {
              "value": 35,
              "code": "mg/dL",
              "system": "http://unitsofmeasure.org"
            }
          },
          {
            "high": {
              "value": 175,
              "code": "mg/dL",
              "system": "http://unitsofmeasure.org"
            }
          }
        ],
        "interpretation": [
          {
            "coding": [
              {
                "code": "H",
                "system": "http://terminology.hl7.org/CodeSystem/v3-ObservationInterpretation",
                "display": "High"
              }
            ]
          }
        ],
        "text": {
          "status": "generated",
          "div": "<div xmlns=\"http://www.w3.org/1999/xhtml\"><table class=\"hl7__eu__lab__report\"><tr><th>Test</th><th>09-Mar-2016</th><th>Reference&#xA0;Range</th><th>Unit</th></tr><tr><td>Triglyceride [Mass/volume] in Serum or Plasma</td><td>183.5</td><td>35 - 175</td><td>H</td><td>mg/dL</td></tr></table></div>"
        },
        "status": "final",
        "subject": {
          "reference": "urn:uuid:a3252e7c-bb57-4c51-af0c-59c89c224605",
          "display": "Eileen Taylor"
        },
        "effectiveDateTime": "2016-03-09T05:47:02Z",
        "specimen": {
          "reference": "urn:uuid:b56ef124-4664-4641-a787-94067fa21db6"
        }
      }
    },
    {
      "fullUrl": "urn:uuid:e910dd8f-ae79-4b77-9e17-e493b72def0b",
      "resource": {
        "resourceType": "Observation",
        "id": "e910dd8f-ae79-4b77-9e17-e493b72def0b",
        "meta": {
          "profile": [
            "http://hl7.eu/fhir/laboratory/StructureDefinition/Observation-resultslab-eu-lab"
          ]
        },
        "performer": [
          {
            "display": "The Central European Lab"
          }
        ],
        "category": [
          {
            "coding": [
              {
                "system": "http://terminology.hl7.org/CodeSystem/observation-category",
                "code": "laboratory"
              }
            ]
          }
        ],
        "code": {
          "coding": [
            {
              "code": "18262-6",
              "system": "http://loinc.org",
              "display": "Cholesterol in LDL [Mass/volume] in Serum or Plasma by Direct assay"
            }
          ],
          "text": "Cholesterol in LDL [Mass/volume] in Serum or Plasma by Direct assay"
        },
        "valueQuantity": {
          "system": "http://unitsofmeasure.org",
          "value": 101.6,
          "unit": "mg/dL",
          "code": "mg/dL"
        },
        "referenceRange": [
          {
            "low": {
              "value": 0,
              "code": "mg/dL",
              "system": "http://unitsofmeasure.org"
            }
          },
          {
            "high": {
              "value": 190,
              "code": "mg/dL",
              "system": "http://unitsofmeasure.org"
            }
          }
        ],
        "text": {
          "status": "generated",
          "div": "<div xmlns=\"http://www.w3.org/1999/xhtml\"><table class=\"hl7__eu__lab__report\"><tr><th>Test</th><th>09-Mar-2016</th><th>Reference&#xA0;Range</th><th>Unit</th></tr><tr><td>Cholesterol in LDL [Mass/volume] in Serum or Plasma by Direct assay</td><td>101.6</td><td>0 - 190</td><td></td><td>mg/dL</td></tr></table></div>"
        },
        "status": "final",
        "subject": {
          "reference": "urn:uuid:a3252e7c-bb57-4c51-af0c-59c89c224605",
          "display": "Eileen Taylor"
        },
        "effectiveDateTime": "2016-03-09T05:47:02Z",
        "specimen": {
          "reference": "urn:uuid:b56ef124-4664-4641-a787-94067fa21db6"
        }
      }
    },
    {
      "fullUrl": "urn:uuid:3fa2716b-7899-4550-ab77-c6a8c4108f4e",
      "resource": {
        "resourceType": "Observation",
        "id": "3fa2716b-7899-4550-ab77-c6a8c4108f4e",
        "meta": {
          "profile": [
            "http://hl7.eu/fhir/laboratory/StructureDefinition/Observation-resultslab-eu-lab"
          ]
        },
        "performer": [
          {
            "display": "The Central European Lab"
          }
        ],
        "category": [
          {
            "coding": [
              {
                "system": "http://terminology.hl7.org/CodeSystem/observation-category",
                "code": "laboratory"
              }
            ]
          }
        ],
        "code": {
          "coding": [
            {
              "code": "2085-9",
              "system": "http://loinc.org",
              "display": "Cholesterol in HDL [Mass/volume] in Serum or Plasma"
            }
          ],
          "text": "Cholesterol in HDL [Mass/volume] in Serum or Plasma"
        },
        "valueQuantity": {
          "system": "http://unitsofmeasure.org",
          "value": 56.8,
          "unit": "mg/dL",
          "code": "mg/dL"
        },
        "referenceRange": [
          {
            "low": {
              "value": 50,
              "code": "mg/dL",
              "system": "http://unitsofmeasure.org"
            }
          },
          {
            "high": {
              "value": 100,
              "code": "mg/dL",
              "system": "http://unitsofmeasure.org"
            }
          }
        ],
        "text": {
          "status": "generated",
          "div": "<div xmlns=\"http://www.w3.org/1999/xhtml\"><table class=\"hl7__eu__lab__report\"><tr><th>Test</th><th>09-Mar-2016</th><th>Reference&#xA0;Range</th><th>Unit</th></tr><tr><td>Cholesterol in HDL [Mass/volume] in Serum or Plasma</td><td>56.8</td><td>50 - 100</td><td></td><td>mg/dL</td></tr></table></div>"
        },
        "status": "final",
        "subject": {
          "reference": "urn:uuid:a3252e7c-bb57-4c51-af0c-59c89c224605",
          "display": "Eileen Taylor"
        },
        "effectiveDateTime": "2016-03-09T05:47:02Z",
        "specimen": {
          "reference": "urn:uuid:b56ef124-4664-4641-a787-94067fa21db6"
        }
      }
    },
    {
      "fullUrl": "urn:uuid:59dfb6eb-54bd-4d7c-b8c0-031e82624719",
      "resource": {
        "resourceType": "Device",
        "id": "59dfb6eb-54bd-4d7c-b8c0-031e82624719",
        "deviceName": [
          {
            "name": "SYNDERAI Synthetic Generator",
            "type": "manufacturer-name"
          }
        ],
        "version": [
          {
            "value": "5.0"
          }
        ],
        "text": {
          "status": "generated",
          "div": "<div xmlns=\"http://www.w3.org/1999/xhtml\">SYNDERAI Synthetic Generator v5.0</div>"
        },
        "status": "active\"",
        "distinctIdentifier": "synderai-generator-50",
        "manufacturer": "SYNDERAI Project"
      }
    },
    {
      "fullUrl": "urn:uuid:1b9bd57f-85f3-486e-867b-663653ce0916",
      "resource": {
        "resourceType": "Provenance",
        "id": "1b9bd57f-85f3-486e-867b-663653ce0916",
        "target": [
          {
            "reference": "Patient/a3252e7c-bb57-4c51-af0c-59c89c224605"
          },
          {
            "reference": "Bundle/8a74c3be-2123-4993-b493-7e37b78e4763"
          },
          {
            "reference": "Composition/ceca278f-ad9e-4faa-b428-54112ef347d9"
          },
          {
            "reference": "PractitionerRole/939020d3-61fa-4f8d-b716-c8a707774e09"
          },
          {
            "reference": "Practitioner/92d6ff16-f312-42d4-b15d-ee6c2d6142c3"
          },
          {
            "reference": "PractitionerRole/19b5c047-05f3-4815-afbe-6eff20403d86"
          },
          {
            "reference": "Organization/b0e93a62-4952-48a8-8573-20466c880847"
          }
        ],
        "activity": {
          "text": "Synthetic Example Data Generation"
        },
        "policy": [
          "https://synderai.net/synderai-synthetic-data-policy"
        ],
        "agent": [
          {
            "type": {
              "text": "author"
            },
            "who": {
              "reference": "Device/59dfb6eb-54bd-4d7c-b8c0-031e82624719"
            }
          }
        ],
        "reason": [
          {
            "text": "Interoperability Testing and Training (non-clinical use)"
          }
        ],
        "text": {
          "status": "generated",
          "div": "<div xmlns=\"http://www.w3.org/1999/xhtml\">Provenance for SYNDERAI Synthetic Example Data Resource</div>"
        },
        "recorded": "2016-03-09T06:47:02Z"
      }
    },
    {
      "fullUrl": "urn:uuid:939020d3-61fa-4f8d-b716-c8a707774e09",
      "resource": {
        "resourceType": "PractitionerRole",
        "id": "939020d3-61fa-4f8d-b716-c8a707774e09",
        "meta": {
          "profile": [
            "http://hl7.eu/fhir/base/StructureDefinition/practitionerRole-eu"
          ]
        },
        "text": {
          "status": "generated",
          "div": "<div xmlns=\"http://www.w3.org/1999/xhtml\">Laboratory Role Id: 939020d3-61fa-4f8d-b716-c8a707774e09</div>"
        },
        "practitioner": {
          "reference": "urn:uuid:92d6ff16-f312-42d4-b15d-ee6c2d6142c3"
        }
      }
    },
    {
      "fullUrl": "urn:uuid:92d6ff16-f312-42d4-b15d-ee6c2d6142c3",
      "resource": {
        "resourceType": "Practitioner",
        "id": "92d6ff16-f312-42d4-b15d-ee6c2d6142c3",
        "meta": {
          "profile": [
            "http://hl7.eu/fhir/base/StructureDefinition/practitioner-eu"
          ]
        },
        "identifier": [
          {
            "assigner": {
              "display": "HL7 Europe"
            },
            "system": "urn:oid:2.16.840.1.113883.2.51.999",
            "value": "cf81b896-258f-409f-b2fb-0624b726e453"
          }
        ],
        "name": [
          {
            "prefix": [
              "dr"
            ],
            "given": [
              "Ex"
            ],
            "family": "Ample"
          }
        ],
        "address": [
          {
            "line": [
              "Laboratoire Central Européenne",
              "Boulevard du Jardin Botanique 32"
            ],
            "postalCode": "1000",
            "city": "Brussels",
            "country": "Belgium"
          }
        ],
        "text": {
          "status": "generated",
          "div": "<div xmlns=\"http://www.w3.org/1999/xhtml\">Laboratory: Laboratoire Central Européenne, 1000 Brussels, Belgium</div>"
        }
      }
    }
  ],
  "type": "document",
  "timestamp": "2016-03-09T06:47:02Z"
}
