{
  "resourceType": "Bundle",
  "id": "30892554-0a67-462a-bfca-71513a47cffe",
  "meta": {
    "profile": [
      "http://hl7.eu/fhir/laboratory/StructureDefinition/Bundle-eu-lab"
    ]
  },
  "identifier": {
    "assigner": {
      "display": "HL7 Europe"
    },
    "system": "urn:oid:2.16.840.1.113883.2.51.999",
    "value": "3e2b0ab8-98f7-4047-b20c-e45efa3e2e62"
  },
  "entry": [
    {
      "fullUrl": "urn:uuid:416bb11d-39f1-41f2-a18f-56ba932ed646",
      "resource": {
        "resourceType": "Composition",
        "id": "416bb11d-39f1-41f2-a18f-56ba932ed646",
        "meta": {
          "profile": [
            "http://hl7.eu/fhir/laboratory/StructureDefinition/Composition-eu-lab"
          ]
        },
        "identifier": {
          "assigner": {
            "display": "HL7 Europe"
          },
          "system": "urn:oid:2.16.840.1.113883.2.51.999",
          "value": "5316df62-26a1-43e5-b089-9668dd3cfc08"
        },
        "author": [
          {
            "reference": "urn:uuid:e59fd437-5f70-4c4f-90ba-b4d1c797fa96"
          }
        ],
        "category": [
          {
            "coding": [
              {
                "code": "26436-6",
                "system": "http://loinc.org",
                "display": "Laboratory studies (set)"
              }
            ]
          }
        ],
        "type": {
          "coding": [
            {
              "code": "11502-2",
              "system": "http://loinc.org",
              "display": "Laboratory report"
            }
          ],
          "text": "Laboratory Report"
        },
        "section": [
          {
            "code": {
              "coding": [
                {
                  "code": "26436-6",
                  "system": "http://loinc.org",
                  "display": "Laboratory studies (set)"
                }
              ],
              "text": "Laboratory studies"
            },
            "section": [
              {
                "code": {
                  "coding": [
                    {
                      "code": "$18719-5",
                      "system": "http://loinc.org",
                      "display": "Chemistry studies (set)"
                    }
                  ],
                  "text": "Chemistry"
                },
                "entry": [
                  {
                    "reference": "urn:uuid:13e96480-5909-4bd4-9c15-c42a2b055b0f"
                  },
                  {
                    "reference": "urn:uuid:448ad914-d6bd-485b-9643-d318f195ca30"
                  },
                  {
                    "reference": "urn:uuid:ae342d1a-d69f-4e9f-9ce6-900ddaf8d88c"
                  },
                  {
                    "reference": "urn:uuid:4cb1db64-f759-4af6-afae-3e49d1c13ea2"
                  },
                  {
                    "reference": "urn:uuid:cf97f301-b890-40be-9d06-701ad0188c5e"
                  },
                  {
                    "reference": "urn:uuid:bb12b874-40f2-4916-b6c5-b8b35fce3dc8"
                  },
                  {
                    "reference": "urn:uuid:1fcf24bb-c3d5-4c8c-bcac-89e9288fbb88"
                  },
                  {
                    "reference": "urn:uuid:37e2ead7-3ba5-47b3-8ce3-a23a34b61736"
                  },
                  {
                    "reference": "urn:uuid:7e938ba5-b0eb-4040-a424-82884bbb5b37"
                  },
                  {
                    "reference": "urn:uuid:39e9ac2e-7f11-43fc-b11e-5ead22e20dbe"
                  },
                  {
                    "reference": "urn:uuid:d09f897c-19bb-4492-a509-1d5c5a73de07"
                  },
                  {
                    "reference": "urn:uuid:b89761ba-81ca-4813-80c0-db4869b9994d"
                  },
                  {
                    "reference": "urn:uuid:b5c2a8e7-efe7-421e-9bdc-aebbf2b7459e"
                  },
                  {
                    "reference": "urn:uuid:7cd4dc16-bcaa-4440-b0e7-68e28ca52bdd"
                  },
                  {
                    "reference": "urn:uuid:a6acc5de-5887-4756-8073-408a08757ac2"
                  },
                  {
                    "reference": "urn:uuid:fe826f5c-a721-4553-8246-53b3ffa8198e"
                  },
                  {
                    "reference": "urn:uuid:2a496232-2949-48b0-b949-7c412f71398f"
                  },
                  {
                    "reference": "urn:uuid:6e085b49-637a-481b-b85d-869d6386bc6c"
                  }
                ],
                "text": {
                  "status": "generated",
                  "div": "<div xmlns=\"http://www.w3.org/1999/xhtml\"><h3>Chemistry</h3><table class=\"hl7__eu__lab__report\"><thead><tr><th>Test</th><th>22-NOV-2023</th><th>Reference&#xA0;Range</th><th>Unit</th></tr></thead><tbody><tr><td>Glucose [Mass/volume] in Serum or Plasma</td><td>73.3</td><td>70 - 140</td><td>mg/dL</td></tr><tr><td>Urea nitrogen [Mass/volume] in Serum or Plasma</td><td>18.6</td><td>7 - 20</td><td>mg/dL</td></tr><tr><td>Creatinine [Mass/volume] in Serum or Plasma</td><td><strong>1.9 H</strong></td><td>0.9 - 1.3</td><td>mg/dL</td></tr><tr><td>Calcium [Mass/volume] in Serum or Plasma</td><td>9.9</td><td>8.5 - 10.5</td><td>mg/dL</td></tr><tr><td>Sodium [Moles/volume] in Serum or Plasma</td><td>143.9</td><td>135 - 145</td><td>mmol/L</td></tr><tr><td>Potassium [Moles/volume] in Serum or Plasma</td><td>3.9</td><td>3.5 - 5</td><td>mmol/L</td></tr><tr><td>Chloride [Moles/volume] in Serum or Plasma</td><td>106.8</td><td>98 - 108</td><td>mmol/L</td></tr><tr><td>Carbon dioxide, total [Moles/volume] in Serum or Plasma</td><td>22.3</td><td>22 - 29</td><td>mmol/L</td></tr><tr><td>Ketones [Presence] in Urine by Test strip</td><td>Urine ketone test = ++</td><td></td><td></td></tr><tr><td>Hemoglobin A1c/Hemoglobin.total in Blood</td><td><strong>3.3 L</strong></td><td>4.3 - 6.4</td><td>%</td></tr><tr><td>Glucose [Mass/volume] in Blood</td><td>73.3</td><td>70 - 140</td><td>mg/dL</td></tr><tr><td>Urea nitrogen [Mass/volume] in Blood</td><td>18.6</td><td>7 - 20</td><td>mg/dL</td></tr><tr><td>Creatinine [Mass/volume] in Blood</td><td><strong>5.5 H</strong></td><td>0.6 - 1.3</td><td>mg/dL</td></tr><tr><td>Calcium [Mass/volume] in Blood</td><td>9.9</td><td>8.5 - 10.5</td><td>mg/dL</td></tr><tr><td>Sodium [Moles/volume] in Blood</td><td>143.9</td><td>135 - 145</td><td>mmol/L</td></tr><tr><td>Potassium [Moles/volume] in Blood</td><td>3.9</td><td>3.5 - 5.3</td><td>mmol/L</td></tr><tr><td>Chloride [Moles/volume] in Blood</td><td>106.8</td><td>98 - 110</td><td>mmol/L</td></tr><tr><td>Carbon dioxide, total [Moles/volume] in Blood</td><td>22.3</td><td>22 - 29</td><td>mmol/L</td></tr></tbody></table></div>"
                },
                "title": "Chemistry"
              },
              {
                "code": {
                  "coding": [
                    {
                      "code": "$18729-4",
                      "system": "http://loinc.org",
                      "display": "Urinalysis studies (set)"
                    }
                  ],
                  "text": "Urinalysis"
                },
                "entry": [
                  {
                    "reference": "urn:uuid:099c7a83-bc8e-4288-9dda-6d3a6f9336dd"
                  },
                  {
                    "reference": "urn:uuid:55df3417-5ee9-4f3e-9a3e-8fe292ef897e"
                  },
                  {
                    "reference": "urn:uuid:92daf30c-c0eb-400e-b893-b2ceda8b2d4d"
                  },
                  {
                    "reference": "urn:uuid:9b3243cb-1eb9-4cfa-9a0b-eff3aede0df8"
                  },
                  {
                    "reference": "urn:uuid:9eb88c30-f345-44d3-ad98-29b8e8eda113"
                  },
                  {
                    "reference": "urn:uuid:98089059-6534-415d-8fd1-8bd75cc81ba4"
                  },
                  {
                    "reference": "urn:uuid:96118414-5cbd-4cc3-a453-1eee40f7e523"
                  },
                  {
                    "reference": "urn:uuid:3b9eb648-9c13-4d43-a92c-81591dbedf20"
                  },
                  {
                    "reference": "urn:uuid:1bc0a8f9-04fd-4afb-9e89-ca1a5ebc9f22"
                  },
                  {
                    "reference": "urn:uuid:a465cbdc-33cf-4e2a-8190-0fc905339798"
                  },
                  {
                    "reference": "urn:uuid:aada90a7-5e2d-4f7d-afca-72f8c27b7911"
                  },
                  {
                    "reference": "urn:uuid:649a6e05-619b-4ff3-bded-fbc81d7858cd"
                  }
                ],
                "text": {
                  "status": "generated",
                  "div": "<div xmlns=\"http://www.w3.org/1999/xhtml\"><h3>Urinalysis</h3><table class=\"hl7__eu__lab__report\"><thead><tr><th>Test</th><th>22-NOV-2023</th><th>Reference&#xA0;Range</th><th>Unit</th></tr></thead><tbody><tr><td>Glucose [Mass/volume] in Urine by Test strip</td><td>0.6</td><td>0 - 0.8</td><td>mg/dL</td></tr><tr><td>Glucose [Presence] in Urine by Test strip</td><td>++</td><td></td><td></td></tr><tr><td>Bilirubin.total [Mass/volume] in Urine by Test strip</td><td>0.2</td><td>0.2 - 1</td><td>mg/dL</td></tr><tr><td>Bilirubin.total [Presence] in Urine by Test strip</td><td>Finding of bilirubin in urine</td><td></td><td></td></tr><tr><td>Ketones [Mass/volume] in Urine by Test strip</td><td><strong>15.9 H</strong></td><td>0 - 5</td><td>mg/dL</td></tr><tr><td>Specific gravity of Urine by Test strip</td><td><strong>1.0 L</strong></td><td>1.005 - 1.03</td><td>{nominal}</td></tr><tr><td>pH of Urine by Test strip</td><td>6.6</td><td>4.6 - 7</td><td>pH</td></tr><tr><td>Protein [Mass/volume] in Urine by Test strip</td><td><strong>327.2 H</strong></td><td>0 - 150</td><td>mg/dL</td></tr><tr><td>Protein [Presence] in Urine by Test strip</td><td>Urine protein test = ++</td><td></td><td></td></tr><tr><td>Nitrite [Presence] in Urine by Test strip</td><td>Urine nitrite negative</td><td></td><td></td></tr><tr><td>Hemoglobin [Presence] in Urine by Test strip</td><td>Urine blood test = negative</td><td></td><td></td></tr><tr><td>Leukocyte esterase [Presence] in Urine by Test strip</td><td>Urine leukocyte test negative</td><td></td><td></td></tr></tbody></table></div>"
                },
                "title": "Urinalysis"
              },
              {
                "code": {
                  "coding": [
                    {
                      "code": "$LP7846-1",
                      "system": "http://loinc.org",
                      "display": "Specimen information"
                    }
                  ],
                  "text": "Specimen information"
                },
                "entry": [
                  {
                    "reference": "urn:uuid:e0269f70-71a5-47df-b482-3a4c205e737c"
                  },
                  {
                    "reference": "urn:uuid:42b75c04-6c72-4d42-838a-a0a9ce4a5b0b"
                  },
                  {
                    "reference": "urn:uuid:b1dc42e2-314f-4dac-acd6-cb8d6e5961e4"
                  },
                  {
                    "reference": "urn:uuid:0c428870-0cf5-4d73-962a-d630505a0050"
                  }
                ],
                "text": {
                  "status": "generated",
                  "div": "<div xmlns=\"http://www.w3.org/1999/xhtml\"><h3>Specimen information</h3><table class=\"hl7__eu__lab__report\"><thead><tr><th>Test</th><th>22-NOV-2023</th><th>Specimen</th><th></th></tr></thead><tbody><tr><td>Appearance of Urine</td><td>Cloudy urine</td><td>Urine</td><td></td></tr><tr><td>Odor of Urine</td><td>Urine smell ammoniacal</td><td>Urine</td><td></td></tr><tr><td>Clarity of Urine</td><td>Translucent</td><td>Urine</td><td></td></tr><tr><td>Color of Urine</td><td>Brown color</td><td>Urine</td><td></td></tr></tbody></table></div>"
                },
                "title": "Specimen information"
              }
            ],
            "title": "Laboratory Report"
          },
          {
            "text": {
              "status": "generated",
              "div": "<div xmlns=\"http://www.w3.org/1999/xhtml\"><h3>Annotation</h3><table class=\"hl7__eu__lab__report\"><tr><th>Conclusion and Recommendations based on this report and previous findings known to us</th></tr><tr><td>The patient shows significantly elevated creatinine, proteinuria, and ketonuria, with low urine specific gravity and abnormal urine appearance, suggesting possible acute or chronic kidney dysfunction with protein loss and ketone production. HbA1c is low, making chronic hyperglycemia unlikely. No evidence of urinary tract infection. Recommend urgent nephrology evaluation for renal impairment and further assessment of underlying etiology.</td></tr></table></div>"
            },
            "code": {
              "coding": [
                {
                  "system": "http://loinc.org",
                  "code": "48767-8",
                  "display": "Annotation comment"
                }
              ]
            },
            "title": "Annotation comment"
          }
        ],
        "status": "final",
        "subject": {
          "reference": "urn:uuid:ceb845bc-b180-4340-b1ea-dc0255b74ebd",
          "display": "Θεμιστοκλής Λιναρδάκη"
        },
        "date": "2023-11-22T07:16:00Z",
        "title": "Laboratory Report",
        "confidentiality": "N"
      }
    },
    {
      "fullUrl": "urn:uuid:e2bfb32d-e8de-4454-898a-6aa6cf0c9808",
      "resource": {
        "resourceType": "DiagnosticReport",
        "id": "e2bfb32d-e8de-4454-898a-6aa6cf0c9808",
        "meta": {
          "profile": [
            "http://hl7.eu/fhir/laboratory/StructureDefinition/DiagnosticReport-eu-lab"
          ]
        },
        "identifier": [
          {
            "assigner": {
              "display": "HL7 Europe"
            },
            "system": "urn:oid:2.16.840.1.113883.2.51.999",
            "value": "80c14035-708e-4426-baed-dfc6d8339849"
          }
        ],
        "extension": [
          {
            "url": "http://hl7.org/fhir/5.0/StructureDefinition/extension-DiagnosticReport.composition",
            "valueReference": {
              "reference": "urn:uuid:5316df62-26a1-43e5-b089-9668dd3cfc08"
            }
          }
        ],
        "category": [
          {
            "coding": [
              {
                "code": "26436-6",
                "system": "http://loinc.org",
                "display": "Laboratory studies (set)"
              }
            ]
          }
        ],
        "specimen": [
          {
            "reference": "urn:uuid:05c11ed3-9164-4868-b7b7-3dd361fc4300"
          },
          {
            "reference": "urn:uuid:04a88cd6-26d2-427f-b764-ad0971c04edd"
          },
          {
            "reference": "urn:uuid:1c19451f-65fe-4be6-9e74-1f85bdad2725"
          }
        ],
        "result": [
          {
            "reference": "urn:uuid:13e96480-5909-4bd4-9c15-c42a2b055b0f"
          },
          {
            "reference": "urn:uuid:448ad914-d6bd-485b-9643-d318f195ca30"
          },
          {
            "reference": "urn:uuid:ae342d1a-d69f-4e9f-9ce6-900ddaf8d88c"
          },
          {
            "reference": "urn:uuid:4cb1db64-f759-4af6-afae-3e49d1c13ea2"
          },
          {
            "reference": "urn:uuid:cf97f301-b890-40be-9d06-701ad0188c5e"
          },
          {
            "reference": "urn:uuid:bb12b874-40f2-4916-b6c5-b8b35fce3dc8"
          },
          {
            "reference": "urn:uuid:1fcf24bb-c3d5-4c8c-bcac-89e9288fbb88"
          },
          {
            "reference": "urn:uuid:37e2ead7-3ba5-47b3-8ce3-a23a34b61736"
          },
          {
            "reference": "urn:uuid:e0269f70-71a5-47df-b482-3a4c205e737c"
          },
          {
            "reference": "urn:uuid:42b75c04-6c72-4d42-838a-a0a9ce4a5b0b"
          },
          {
            "reference": "urn:uuid:b1dc42e2-314f-4dac-acd6-cb8d6e5961e4"
          },
          {
            "reference": "urn:uuid:0c428870-0cf5-4d73-962a-d630505a0050"
          },
          {
            "reference": "urn:uuid:099c7a83-bc8e-4288-9dda-6d3a6f9336dd"
          },
          {
            "reference": "urn:uuid:55df3417-5ee9-4f3e-9a3e-8fe292ef897e"
          },
          {
            "reference": "urn:uuid:92daf30c-c0eb-400e-b893-b2ceda8b2d4d"
          },
          {
            "reference": "urn:uuid:9b3243cb-1eb9-4cfa-9a0b-eff3aede0df8"
          },
          {
            "reference": "urn:uuid:9eb88c30-f345-44d3-ad98-29b8e8eda113"
          },
          {
            "reference": "urn:uuid:7e938ba5-b0eb-4040-a424-82884bbb5b37"
          },
          {
            "reference": "urn:uuid:98089059-6534-415d-8fd1-8bd75cc81ba4"
          },
          {
            "reference": "urn:uuid:96118414-5cbd-4cc3-a453-1eee40f7e523"
          },
          {
            "reference": "urn:uuid:3b9eb648-9c13-4d43-a92c-81591dbedf20"
          },
          {
            "reference": "urn:uuid:1bc0a8f9-04fd-4afb-9e89-ca1a5ebc9f22"
          },
          {
            "reference": "urn:uuid:a465cbdc-33cf-4e2a-8190-0fc905339798"
          },
          {
            "reference": "urn:uuid:aada90a7-5e2d-4f7d-afca-72f8c27b7911"
          },
          {
            "reference": "urn:uuid:649a6e05-619b-4ff3-bded-fbc81d7858cd"
          },
          {
            "reference": "urn:uuid:39e9ac2e-7f11-43fc-b11e-5ead22e20dbe"
          },
          {
            "reference": "urn:uuid:d09f897c-19bb-4492-a509-1d5c5a73de07"
          },
          {
            "reference": "urn:uuid:b89761ba-81ca-4813-80c0-db4869b9994d"
          },
          {
            "reference": "urn:uuid:b5c2a8e7-efe7-421e-9bdc-aebbf2b7459e"
          },
          {
            "reference": "urn:uuid:7cd4dc16-bcaa-4440-b0e7-68e28ca52bdd"
          },
          {
            "reference": "urn:uuid:a6acc5de-5887-4756-8073-408a08757ac2"
          },
          {
            "reference": "urn:uuid:fe826f5c-a721-4553-8246-53b3ffa8198e"
          },
          {
            "reference": "urn:uuid:2a496232-2949-48b0-b949-7c412f71398f"
          },
          {
            "reference": "urn:uuid:6e085b49-637a-481b-b85d-869d6386bc6c"
          }
        ],
        "status": "registered",
        "code": {
          "coding": [
            {
              "code": "11502-2",
              "system": "http://loinc.org",
              "display": "Laboratory report"
            }
          ]
        },
        "subject": {
          "reference": "urn:uuid:ceb845bc-b180-4340-b1ea-dc0255b74ebd",
          "display": "Θεμιστοκλής Λιναρδάκη"
        }
      }
    },
    {
      "fullUrl": "urn:uuid:ceb845bc-b180-4340-b1ea-dc0255b74ebd",
      "resource": {
        "resourceType": "Patient",
        "id": "ceb845bc-b180-4340-b1ea-dc0255b74ebd",
        "meta": {
          "security": [
            {
              "system": "http://terminology.hl7.org/CodeSystem/v3-ActReason",
              "code": "HTEST"
            },
            {
              "system": "http://terminology.hl7.org/CodeSystem/v3-ActReason",
              "code": "TRAIN"
            }
          ],
          "tag": [
            {
              "system": "https://synderai.net/fhir/CodeSystem/tags",
              "code": "synthetic",
              "display": "SYNDERAI Synthetic data"
            }
          ],
          "profile": [
            "http://hl7.eu/fhir/base/StructureDefinition/patient-eu-core"
          ]
        },
        "identifier": [
          {
            "type": {
              "coding": [
                {
                  "code": "PT",
                  "system": "http://terminology.hl7.org/CodeSystem/v2-0203"
                }
              ]
            },
            "system": "http://ec.europa.eu/identifier/eci",
            "value": "5962-476889-7"
          },
          {
            "type": {
              "coding": [
                {
                  "code": "MR",
                  "system": "http://terminology.hl7.org/CodeSystem/v2-0203"
                }
              ]
            },
            "system": "http://local.setting.eu/identifier",
            "value": "925e2603-2ef9-6bdf-1330-2ebf526636c4"
          }
        ],
        "name": [
          {
            "family": "Λιναρδάκη"
          },
          {
            "given": [
              "Θεμιστοκλής"
            ]
          },
          {
            "text": "Θεμιστοκλής Λιναρδάκη"
          }
        ],
        "address": [
          {
            "line": [
              "Αμαρύνθου 54-58"
            ],
            "use": "home",
            "type": "physical",
            "postalCode": "262 21",
            "city": "Πάτρα",
            "country": "Greece"
          }
        ],
        "telecom": [
          {
            "system": "phone",
            "value": "+302226364480"
          }
        ],
        "extension": [
          {
            "url": "http://hl7.org/fhir/StructureDefinition/patient-nationality",
            "valueCodeableConcept": {
              "coding": [
                {
                  "code": "GR",
                  "system": "http://hl7.org/fhir/ValueSet/country"
                }
              ]
            }
          }
        ],
        "text": {
          "status": "generated",
          "div": "<div xmlns=\"http://www.w3.org/1999/xhtml\"><table class=\"hl7__ips\"><tr><td>Θεμιστοκλής Λιναρδάκη</td><td>male</td><td>21-Jan-1974</td></tr></table></div>"
        },
        "gender": "male",
        "birthDate": "1974-01-21"
      }
    },
    {
      "fullUrl": "urn:uuid:fdc6f058-16a1-4c47-bafd-367e7a824a56",
      "resource": {
        "resourceType": "ServiceRequest",
        "id": "fdc6f058-16a1-4c47-bafd-367e7a824a56",
        "meta": {
          "profile": [
            "http://hl7.eu/fhir/laboratory/StructureDefinition/ServiceRequest-eu-lab"
          ]
        },
        "identifier": [
          {
            "system": "http://example.org",
            "value": "1b01c53a-4e18-4769-95d2-dd79b7f981a6"
          }
        ],
        "specimen": [
          {
            "reference": "urn:uuid:05c11ed3-9164-4868-b7b7-3dd361fc4300"
          },
          {
            "reference": "urn:uuid:04a88cd6-26d2-427f-b764-ad0971c04edd"
          },
          {
            "reference": "urn:uuid:1c19451f-65fe-4be6-9e74-1f85bdad2725"
          }
        ],
        "reasonCode": [
          {
            "coding": [
              {
                "code": "237602007",
                "system": "http://snomed.info/sct",
                "display": "Metabolic syndrome X"
              }
            ]
          },
          {
            "coding": [
              {
                "code": "433144002",
                "system": "http://snomed.info/sct",
                "display": "Chronic kidney disease stage 3"
              }
            ]
          },
          {
            "coding": [
              {
                "code": "157141000119108",
                "system": "http://snomed.info/sct",
                "display": "Proteinuria due to type 2 diabetes mellitus"
              }
            ]
          },
          {
            "coding": [
              {
                "code": "431856006",
                "system": "http://snomed.info/sct",
                "display": "Chronic kidney disease stage 2"
              }
            ]
          },
          {
            "coding": [
              {
                "code": "90781000119102",
                "system": "http://snomed.info/sct",
                "display": "Microalbuminuria due to type 2 diabetes mellitus"
              }
            ]
          },
          {
            "coding": [
              {
                "code": "127013003",
                "system": "http://snomed.info/sct",
                "display": "Disorder of kidney due to diabetes mellitus"
              }
            ]
          },
          {
            "coding": [
              {
                "code": "431855005",
                "system": "http://snomed.info/sct",
                "display": "Chronic kidney disease stage 1"
              }
            ]
          },
          {
            "coding": [
              {
                "code": "59621000",
                "system": "http://snomed.info/sct",
                "display": "Essential hypertension"
              }
            ]
          },
          {
            "coding": [
              {
                "code": "15777000",
                "system": "http://snomed.info/sct",
                "display": "Prediabetes"
              }
            ]
          },
          {
            "coding": [
              {
                "code": "271737000",
                "system": "http://snomed.info/sct",
                "display": "Anemia"
              }
            ]
          }
        ],
        "status": "active",
        "intent": "order",
        "code": {
          "coding": [
            {
              "code": "108252007",
              "system": "http://snomed.info/sct",
              "display": "Laboratory procedure"
            }
          ]
        },
        "subject": {
          "reference": "urn:uuid:ceb845bc-b180-4340-b1ea-dc0255b74ebd",
          "display": "Θεμιστοκλής Λιναρδάκη"
        },
        "requester": {
          "reference": "urn:uuid:3ce20ba5-369b-4d99-a49a-8647968bd59a"
        }
      }
    },
    {
      "fullUrl": "urn:uuid:3ce20ba5-369b-4d99-a49a-8647968bd59a",
      "resource": {
        "resourceType": "PractitionerRole",
        "id": "3ce20ba5-369b-4d99-a49a-8647968bd59a",
        "meta": {
          "profile": [
            "http://hl7.eu/fhir/base/StructureDefinition/practitionerRole-eu"
          ]
        },
        "text": {
          "status": "generated",
          "div": "<div xmlns=\"http://www.w3.org/1999/xhtml\">Provider Role Id: 3ce20ba5-369b-4d99-a49a-8647968bd59a</div>"
        },
        "organization": {
          "reference": "urn:uuid:40d73aba-e5a1-469d-816f-71572aba6e73"
        }
      }
    },
    {
      "fullUrl": "urn:uuid:40d73aba-e5a1-469d-816f-71572aba6e73",
      "resource": {
        "resourceType": "Organization",
        "id": "40d73aba-e5a1-469d-816f-71572aba6e73",
        "meta": {
          "profile": [
            "http://hl7.eu/fhir/base/StructureDefinition/organization-eu"
          ]
        },
        "identifier": [
          {
            "assigner": {
              "display": "HL7 Europe"
            },
            "system": "urn:oid:2.16.840.1.113883.2.51.999",
            "value": "16c8f5e0-0bde-4653-be36-89da8ea861ec"
          }
        ],
        "address": [
          {
            "line": [
              "211 Odós Filellinon"
            ],
            "city": "Patras",
            "postalCode": "262 21",
            "country": "Greece"
          }
        ],
        "text": {
          "status": "generated",
          "div": "<div xmlns=\"http://www.w3.org/1999/xhtml\">Provider Organization: Dr. Dimitris Economou</div>"
        },
        "name": "Dr. Dimitris Economou"
      }
    },
    {
      "fullUrl": "urn:uuid:05c11ed3-9164-4868-b7b7-3dd361fc4300",
      "resource": {
        "resourceType": "Specimen",
        "id": "05c11ed3-9164-4868-b7b7-3dd361fc4300",
        "meta": {
          "profile": [
            "http://hl7.eu/fhir/laboratory/StructureDefinition/Specimen-eu-lab"
          ]
        },
        "collection": {
          "collectedDateTime": "2023-11-22"
        },
        "text": {
          "status": "generated",
          "div": "<div xmlns=\"http://www.w3.org/1999/xhtml\"><table class=\"hl7__eu__lab__report\"><tr><th>Specimen</th><th>Collection Date</th></tr><tr><td>Acellular blood (serum or plasma) specimen</td><td><span class=\"nb\">22-Nov-2023</span></td></tr></table></div>"
        },
        "type": {
          "coding": [
            {
              "code": "122592007",
              "system": "http://snomed.info/sct",
              "display": "Acellular blood (serum or plasma) specimen"
            }
          ]
        }
      }
    },
    {
      "fullUrl": "urn:uuid:04a88cd6-26d2-427f-b764-ad0971c04edd",
      "resource": {
        "resourceType": "Specimen",
        "id": "04a88cd6-26d2-427f-b764-ad0971c04edd",
        "meta": {
          "profile": [
            "http://hl7.eu/fhir/laboratory/StructureDefinition/Specimen-eu-lab"
          ]
        },
        "collection": {
          "collectedDateTime": "2023-11-22"
        },
        "text": {
          "status": "generated",
          "div": "<div xmlns=\"http://www.w3.org/1999/xhtml\"><table class=\"hl7__eu__lab__report\"><tr><th>Specimen</th><th>Collection Date</th></tr><tr><td>Urine specimen</td><td><span class=\"nb\">22-Nov-2023</span></td></tr></table></div>"
        },
        "type": {
          "coding": [
            {
              "code": "122575003",
              "system": "http://snomed.info/sct",
              "display": "Urine specimen"
            }
          ]
        }
      }
    },
    {
      "fullUrl": "urn:uuid:1c19451f-65fe-4be6-9e74-1f85bdad2725",
      "resource": {
        "resourceType": "Specimen",
        "id": "1c19451f-65fe-4be6-9e74-1f85bdad2725",
        "meta": {
          "profile": [
            "http://hl7.eu/fhir/laboratory/StructureDefinition/Specimen-eu-lab"
          ]
        },
        "collection": {
          "collectedDateTime": "2023-11-22"
        },
        "text": {
          "status": "generated",
          "div": "<div xmlns=\"http://www.w3.org/1999/xhtml\"><table class=\"hl7__eu__lab__report\"><tr><th>Specimen</th><th>Collection Date</th></tr><tr><td>Whole blood specimen (specimen)</td><td><span class=\"nb\">22-Nov-2023</span></td></tr></table></div>"
        },
        "type": {
          "coding": [
            {
              "code": "258580003",
              "system": "http://snomed.info/sct",
              "display": "Whole blood specimen (specimen)"
            }
          ]
        }
      }
    },
    {
      "fullUrl": "urn:uuid:13e96480-5909-4bd4-9c15-c42a2b055b0f",
      "resource": {
        "resourceType": "Observation",
        "id": "13e96480-5909-4bd4-9c15-c42a2b055b0f",
        "meta": {
          "profile": [
            "http://hl7.eu/fhir/laboratory/StructureDefinition/Observation-resultslab-eu-lab"
          ]
        },
        "performer": [
          {
            "display": "The Central European Lab"
          }
        ],
        "category": [
          {
            "coding": [
              {
                "system": "http://terminology.hl7.org/CodeSystem/observation-category",
                "code": "laboratory"
              }
            ]
          }
        ],
        "code": {
          "coding": [
            {
              "code": "2345-7",
              "system": "http://loinc.org",
              "display": "Glucose [Mass/volume] in Serum or Plasma"
            }
          ],
          "text": "Glucose [Mass/volume] in Serum or Plasma"
        },
        "valueQuantity": {
          "system": "http://unitsofmeasure.org",
          "value": 73.3,
          "unit": "mg/dL",
          "code": "mg/dL"
        },
        "referenceRange": [
          {
            "low": {
              "value": 70,
              "code": "mg/dL",
              "system": "http://unitsofmeasure.org"
            }
          },
          {
            "high": {
              "value": 140,
              "code": "mg/dL",
              "system": "http://unitsofmeasure.org"
            }
          }
        ],
        "text": {
          "status": "generated",
          "div": "<div xmlns=\"http://www.w3.org/1999/xhtml\"><table class=\"hl7__eu__lab__report\"><tr><th>Test</th><th>22-Nov-2023</th><th>Reference&#xA0;Range</th><th>Unit</th></tr><tr><td>Glucose [Mass/volume] in Serum or Plasma</td><td>73.3</td><td>70 - 140</td><td></td><td>mg/dL</td></tr></table></div>"
        },
        "status": "final",
        "subject": {
          "reference": "urn:uuid:ceb845bc-b180-4340-b1ea-dc0255b74ebd",
          "display": "Θεμιστοκλής Λιναρδάκη"
        },
        "effectiveDateTime": "2023-11-22T06:16:00Z",
        "specimen": {
          "reference": "urn:uuid:05c11ed3-9164-4868-b7b7-3dd361fc4300"
        }
      }
    },
    {
      "fullUrl": "urn:uuid:448ad914-d6bd-485b-9643-d318f195ca30",
      "resource": {
        "resourceType": "Observation",
        "id": "448ad914-d6bd-485b-9643-d318f195ca30",
        "meta": {
          "profile": [
            "http://hl7.eu/fhir/laboratory/StructureDefinition/Observation-resultslab-eu-lab"
          ]
        },
        "performer": [
          {
            "display": "The Central European Lab"
          }
        ],
        "category": [
          {
            "coding": [
              {
                "system": "http://terminology.hl7.org/CodeSystem/observation-category",
                "code": "laboratory"
              }
            ]
          }
        ],
        "code": {
          "coding": [
            {
              "code": "3094-0",
              "system": "http://loinc.org",
              "display": "Urea nitrogen [Mass/volume] in Serum or Plasma"
            }
          ],
          "text": "Urea nitrogen [Mass/volume] in Serum or Plasma"
        },
        "valueQuantity": {
          "system": "http://unitsofmeasure.org",
          "value": 18.6,
          "unit": "mg/dL",
          "code": "mg/dL"
        },
        "referenceRange": [
          {
            "low": {
              "value": 7,
              "code": "mg/dL",
              "system": "http://unitsofmeasure.org"
            }
          },
          {
            "high": {
              "value": 20,
              "code": "mg/dL",
              "system": "http://unitsofmeasure.org"
            }
          }
        ],
        "text": {
          "status": "generated",
          "div": "<div xmlns=\"http://www.w3.org/1999/xhtml\"><table class=\"hl7__eu__lab__report\"><tr><th>Test</th><th>22-Nov-2023</th><th>Reference&#xA0;Range</th><th>Unit</th></tr><tr><td>Urea nitrogen [Mass/volume] in Serum or Plasma</td><td>18.6</td><td>7 - 20</td><td></td><td>mg/dL</td></tr></table></div>"
        },
        "status": "final",
        "subject": {
          "reference": "urn:uuid:ceb845bc-b180-4340-b1ea-dc0255b74ebd",
          "display": "Θεμιστοκλής Λιναρδάκη"
        },
        "effectiveDateTime": "2023-11-22T06:16:00Z",
        "specimen": {
          "reference": "urn:uuid:05c11ed3-9164-4868-b7b7-3dd361fc4300"
        }
      }
    },
    {
      "fullUrl": "urn:uuid:ae342d1a-d69f-4e9f-9ce6-900ddaf8d88c",
      "resource": {
        "resourceType": "Observation",
        "id": "ae342d1a-d69f-4e9f-9ce6-900ddaf8d88c",
        "meta": {
          "profile": [
            "http://hl7.eu/fhir/laboratory/StructureDefinition/Observation-resultslab-eu-lab"
          ]
        },
        "performer": [
          {
            "display": "The Central European Lab"
          }
        ],
        "category": [
          {
            "coding": [
              {
                "system": "http://terminology.hl7.org/CodeSystem/observation-category",
                "code": "laboratory"
              }
            ]
          }
        ],
        "code": {
          "coding": [
            {
              "code": "2160-0",
              "system": "http://loinc.org",
              "display": "Creatinine [Mass/volume] in Serum or Plasma"
            }
          ],
          "text": "Creatinine [Mass/volume] in Serum or Plasma"
        },
        "valueQuantity": {
          "system": "http://unitsofmeasure.org",
          "value": 1.9,
          "unit": "mg/dL",
          "code": "mg/dL"
        },
        "referenceRange": [
          {
            "low": {
              "value": 0.9,
              "code": "mg/dL",
              "system": "http://unitsofmeasure.org"
            }
          },
          {
            "high": {
              "value": 1.3,
              "code": "mg/dL",
              "system": "http://unitsofmeasure.org"
            }
          }
        ],
        "interpretation": [
          {
            "coding": [
              {
                "code": "H",
                "system": "http://terminology.hl7.org/CodeSystem/v3-ObservationInterpretation",
                "display": "High"
              }
            ]
          }
        ],
        "text": {
          "status": "generated",
          "div": "<div xmlns=\"http://www.w3.org/1999/xhtml\"><table class=\"hl7__eu__lab__report\"><tr><th>Test</th><th>22-Nov-2023</th><th>Reference&#xA0;Range</th><th>Unit</th></tr><tr><td>Creatinine [Mass/volume] in Serum or Plasma</td><td>1.9</td><td>0.9 - 1.3</td><td>H</td><td>mg/dL</td></tr></table></div>"
        },
        "status": "final",
        "subject": {
          "reference": "urn:uuid:ceb845bc-b180-4340-b1ea-dc0255b74ebd",
          "display": "Θεμιστοκλής Λιναρδάκη"
        },
        "effectiveDateTime": "2023-11-22T06:16:00Z",
        "specimen": {
          "reference": "urn:uuid:05c11ed3-9164-4868-b7b7-3dd361fc4300"
        }
      }
    },
    {
      "fullUrl": "urn:uuid:4cb1db64-f759-4af6-afae-3e49d1c13ea2",
      "resource": {
        "resourceType": "Observation",
        "id": "4cb1db64-f759-4af6-afae-3e49d1c13ea2",
        "meta": {
          "profile": [
            "http://hl7.eu/fhir/laboratory/StructureDefinition/Observation-resultslab-eu-lab"
          ]
        },
        "performer": [
          {
            "display": "The Central European Lab"
          }
        ],
        "category": [
          {
            "coding": [
              {
                "system": "http://terminology.hl7.org/CodeSystem/observation-category",
                "code": "laboratory"
              }
            ]
          }
        ],
        "code": {
          "coding": [
            {
              "code": "17861-6",
              "system": "http://loinc.org",
              "display": "Calcium [Mass/volume] in Serum or Plasma"
            }
          ],
          "text": "Calcium [Mass/volume] in Serum or Plasma"
        },
        "valueQuantity": {
          "system": "http://unitsofmeasure.org",
          "value": 9.9,
          "unit": "mg/dL",
          "code": "mg/dL"
        },
        "referenceRange": [
          {
            "low": {
              "value": 8.5,
              "code": "mg/dL",
              "system": "http://unitsofmeasure.org"
            }
          },
          {
            "high": {
              "value": 10.5,
              "code": "mg/dL",
              "system": "http://unitsofmeasure.org"
            }
          }
        ],
        "text": {
          "status": "generated",
          "div": "<div xmlns=\"http://www.w3.org/1999/xhtml\"><table class=\"hl7__eu__lab__report\"><tr><th>Test</th><th>22-Nov-2023</th><th>Reference&#xA0;Range</th><th>Unit</th></tr><tr><td>Calcium [Mass/volume] in Serum or Plasma</td><td>9.9</td><td>8.5 - 10.5</td><td></td><td>mg/dL</td></tr></table></div>"
        },
        "status": "final",
        "subject": {
          "reference": "urn:uuid:ceb845bc-b180-4340-b1ea-dc0255b74ebd",
          "display": "Θεμιστοκλής Λιναρδάκη"
        },
        "effectiveDateTime": "2023-11-22T06:16:00Z",
        "specimen": {
          "reference": "urn:uuid:05c11ed3-9164-4868-b7b7-3dd361fc4300"
        }
      }
    },
    {
      "fullUrl": "urn:uuid:cf97f301-b890-40be-9d06-701ad0188c5e",
      "resource": {
        "resourceType": "Observation",
        "id": "cf97f301-b890-40be-9d06-701ad0188c5e",
        "meta": {
          "profile": [
            "http://hl7.eu/fhir/laboratory/StructureDefinition/Observation-resultslab-eu-lab"
          ]
        },
        "performer": [
          {
            "display": "The Central European Lab"
          }
        ],
        "category": [
          {
            "coding": [
              {
                "system": "http://terminology.hl7.org/CodeSystem/observation-category",
                "code": "laboratory"
              }
            ]
          }
        ],
        "code": {
          "coding": [
            {
              "code": "2951-2",
              "system": "http://loinc.org",
              "display": "Sodium [Moles/volume] in Serum or Plasma"
            }
          ],
          "text": "Sodium [Moles/volume] in Serum or Plasma"
        },
        "valueQuantity": {
          "system": "http://unitsofmeasure.org",
          "value": 143.9,
          "unit": "mmol/L",
          "code": "mmol/L"
        },
        "referenceRange": [
          {
            "low": {
              "value": 135,
              "code": "mmol/L",
              "system": "http://unitsofmeasure.org"
            }
          },
          {
            "high": {
              "value": 145,
              "code": "mmol/L",
              "system": "http://unitsofmeasure.org"
            }
          }
        ],
        "text": {
          "status": "generated",
          "div": "<div xmlns=\"http://www.w3.org/1999/xhtml\"><table class=\"hl7__eu__lab__report\"><tr><th>Test</th><th>22-Nov-2023</th><th>Reference&#xA0;Range</th><th>Unit</th></tr><tr><td>Sodium [Moles/volume] in Serum or Plasma</td><td>143.9</td><td>135 - 145</td><td></td><td>mmol/L</td></tr></table></div>"
        },
        "status": "final",
        "subject": {
          "reference": "urn:uuid:ceb845bc-b180-4340-b1ea-dc0255b74ebd",
          "display": "Θεμιστοκλής Λιναρδάκη"
        },
        "effectiveDateTime": "2023-11-22T06:16:00Z",
        "specimen": {
          "reference": "urn:uuid:05c11ed3-9164-4868-b7b7-3dd361fc4300"
        }
      }
    },
    {
      "fullUrl": "urn:uuid:bb12b874-40f2-4916-b6c5-b8b35fce3dc8",
      "resource": {
        "resourceType": "Observation",
        "id": "bb12b874-40f2-4916-b6c5-b8b35fce3dc8",
        "meta": {
          "profile": [
            "http://hl7.eu/fhir/laboratory/StructureDefinition/Observation-resultslab-eu-lab"
          ]
        },
        "performer": [
          {
            "display": "The Central European Lab"
          }
        ],
        "category": [
          {
            "coding": [
              {
                "system": "http://terminology.hl7.org/CodeSystem/observation-category",
                "code": "laboratory"
              }
            ]
          }
        ],
        "code": {
          "coding": [
            {
              "code": "2823-3",
              "system": "http://loinc.org",
              "display": "Potassium [Moles/volume] in Serum or Plasma"
            }
          ],
          "text": "Potassium [Moles/volume] in Serum or Plasma"
        },
        "valueQuantity": {
          "system": "http://unitsofmeasure.org",
          "value": 3.9,
          "unit": "mmol/L",
          "code": "mmol/L"
        },
        "referenceRange": [
          {
            "low": {
              "value": 3.5,
              "code": "mmol/L",
              "system": "http://unitsofmeasure.org"
            }
          },
          {
            "high": {
              "value": 5,
              "code": "mmol/L",
              "system": "http://unitsofmeasure.org"
            }
          }
        ],
        "text": {
          "status": "generated",
          "div": "<div xmlns=\"http://www.w3.org/1999/xhtml\"><table class=\"hl7__eu__lab__report\"><tr><th>Test</th><th>22-Nov-2023</th><th>Reference&#xA0;Range</th><th>Unit</th></tr><tr><td>Potassium [Moles/volume] in Serum or Plasma</td><td>3.9</td><td>3.5 - 5</td><td></td><td>mmol/L</td></tr></table></div>"
        },
        "status": "final",
        "subject": {
          "reference": "urn:uuid:ceb845bc-b180-4340-b1ea-dc0255b74ebd",
          "display": "Θεμιστοκλής Λιναρδάκη"
        },
        "effectiveDateTime": "2023-11-22T06:16:00Z",
        "specimen": {
          "reference": "urn:uuid:05c11ed3-9164-4868-b7b7-3dd361fc4300"
        }
      }
    },
    {
      "fullUrl": "urn:uuid:1fcf24bb-c3d5-4c8c-bcac-89e9288fbb88",
      "resource": {
        "resourceType": "Observation",
        "id": "1fcf24bb-c3d5-4c8c-bcac-89e9288fbb88",
        "meta": {
          "profile": [
            "http://hl7.eu/fhir/laboratory/StructureDefinition/Observation-resultslab-eu-lab"
          ]
        },
        "performer": [
          {
            "display": "The Central European Lab"
          }
        ],
        "category": [
          {
            "coding": [
              {
                "system": "http://terminology.hl7.org/CodeSystem/observation-category",
                "code": "laboratory"
              }
            ]
          }
        ],
        "code": {
          "coding": [
            {
              "code": "2075-0",
              "system": "http://loinc.org",
              "display": "Chloride [Moles/volume] in Serum or Plasma"
            }
          ],
          "text": "Chloride [Moles/volume] in Serum or Plasma"
        },
        "valueQuantity": {
          "system": "http://unitsofmeasure.org",
          "value": 106.8,
          "unit": "mmol/L",
          "code": "mmol/L"
        },
        "referenceRange": [
          {
            "low": {
              "value": 98,
              "code": "mmol/L",
              "system": "http://unitsofmeasure.org"
            }
          },
          {
            "high": {
              "value": 108,
              "code": "mmol/L",
              "system": "http://unitsofmeasure.org"
            }
          }
        ],
        "text": {
          "status": "generated",
          "div": "<div xmlns=\"http://www.w3.org/1999/xhtml\"><table class=\"hl7__eu__lab__report\"><tr><th>Test</th><th>22-Nov-2023</th><th>Reference&#xA0;Range</th><th>Unit</th></tr><tr><td>Chloride [Moles/volume] in Serum or Plasma</td><td>106.8</td><td>98 - 108</td><td></td><td>mmol/L</td></tr></table></div>"
        },
        "status": "final",
        "subject": {
          "reference": "urn:uuid:ceb845bc-b180-4340-b1ea-dc0255b74ebd",
          "display": "Θεμιστοκλής Λιναρδάκη"
        },
        "effectiveDateTime": "2023-11-22T06:16:00Z",
        "specimen": {
          "reference": "urn:uuid:05c11ed3-9164-4868-b7b7-3dd361fc4300"
        }
      }
    },
    {
      "fullUrl": "urn:uuid:37e2ead7-3ba5-47b3-8ce3-a23a34b61736",
      "resource": {
        "resourceType": "Observation",
        "id": "37e2ead7-3ba5-47b3-8ce3-a23a34b61736",
        "meta": {
          "profile": [
            "http://hl7.eu/fhir/laboratory/StructureDefinition/Observation-resultslab-eu-lab"
          ]
        },
        "performer": [
          {
            "display": "The Central European Lab"
          }
        ],
        "category": [
          {
            "coding": [
              {
                "system": "http://terminology.hl7.org/CodeSystem/observation-category",
                "code": "laboratory"
              }
            ]
          }
        ],
        "code": {
          "coding": [
            {
              "code": "2028-9",
              "system": "http://loinc.org",
              "display": "Carbon dioxide, total [Moles/volume] in Serum or Plasma"
            }
          ],
          "text": "Carbon dioxide, total [Moles/volume] in Serum or Plasma"
        },
        "valueQuantity": {
          "system": "http://unitsofmeasure.org",
          "value": 22.3,
          "unit": "mmol/L",
          "code": "mmol/L"
        },
        "referenceRange": [
          {
            "low": {
              "value": 22,
              "code": "mmol/L",
              "system": "http://unitsofmeasure.org"
            }
          },
          {
            "high": {
              "value": 29,
              "code": "mmol/L",
              "system": "http://unitsofmeasure.org"
            }
          }
        ],
        "text": {
          "status": "generated",
          "div": "<div xmlns=\"http://www.w3.org/1999/xhtml\"><table class=\"hl7__eu__lab__report\"><tr><th>Test</th><th>22-Nov-2023</th><th>Reference&#xA0;Range</th><th>Unit</th></tr><tr><td>Carbon dioxide, total [Moles/volume] in Serum or Plasma</td><td>22.3</td><td>22 - 29</td><td></td><td>mmol/L</td></tr></table></div>"
        },
        "status": "final",
        "subject": {
          "reference": "urn:uuid:ceb845bc-b180-4340-b1ea-dc0255b74ebd",
          "display": "Θεμιστοκλής Λιναρδάκη"
        },
        "effectiveDateTime": "2023-11-22T06:16:00Z",
        "specimen": {
          "reference": "urn:uuid:05c11ed3-9164-4868-b7b7-3dd361fc4300"
        }
      }
    },
    {
      "fullUrl": "urn:uuid:e0269f70-71a5-47df-b482-3a4c205e737c",
      "resource": {
        "resourceType": "Observation",
        "id": "e0269f70-71a5-47df-b482-3a4c205e737c",
        "meta": {
          "profile": [
            "http://hl7.eu/fhir/laboratory/StructureDefinition/Observation-resultslab-eu-lab"
          ]
        },
        "performer": [
          {
            "display": "The Central European Lab"
          }
        ],
        "category": [
          {
            "coding": [
              {
                "system": "http://terminology.hl7.org/CodeSystem/observation-category",
                "code": "laboratory"
              }
            ]
          }
        ],
        "code": {
          "coding": [
            {
              "code": "5767-9",
              "system": "http://loinc.org",
              "display": "Appearance of Urine"
            }
          ],
          "text": "Appearance of Urine"
        },
        "text": {
          "status": "generated",
          "div": "<div xmlns=\"http://www.w3.org/1999/xhtml\"><table class=\"hl7__eu__lab__report\"><tr><th>Test</th><th>22-Nov-2023</th><th>Reference&#xA0;Range</th><th>Unit</th></tr><tr><td>Appearance of Urine</td></tr></table></div>"
        },
        "status": "final",
        "subject": {
          "reference": "urn:uuid:ceb845bc-b180-4340-b1ea-dc0255b74ebd",
          "display": "Θεμιστοκλής Λιναρδάκη"
        },
        "effectiveDateTime": "2023-11-22T06:16:00Z",
        "specimen": {
          "reference": "urn:uuid:04a88cd6-26d2-427f-b764-ad0971c04edd"
        }
      }
    },
    {
      "fullUrl": "urn:uuid:42b75c04-6c72-4d42-838a-a0a9ce4a5b0b",
      "resource": {
        "resourceType": "Observation",
        "id": "42b75c04-6c72-4d42-838a-a0a9ce4a5b0b",
        "meta": {
          "profile": [
            "http://hl7.eu/fhir/laboratory/StructureDefinition/Observation-resultslab-eu-lab"
          ]
        },
        "performer": [
          {
            "display": "The Central European Lab"
          }
        ],
        "category": [
          {
            "coding": [
              {
                "system": "http://terminology.hl7.org/CodeSystem/observation-category",
                "code": "laboratory"
              }
            ]
          }
        ],
        "code": {
          "coding": [
            {
              "code": "34533-0",
              "system": "http://loinc.org",
              "display": "Odor of Urine"
            }
          ],
          "text": "Odor of Urine"
        },
        "text": {
          "status": "generated",
          "div": "<div xmlns=\"http://www.w3.org/1999/xhtml\"><table class=\"hl7__eu__lab__report\"><tr><th>Test</th><th>22-Nov-2023</th><th>Reference&#xA0;Range</th><th>Unit</th></tr><tr><td>Odor of Urine</td></tr></table></div>"
        },
        "status": "final",
        "subject": {
          "reference": "urn:uuid:ceb845bc-b180-4340-b1ea-dc0255b74ebd",
          "display": "Θεμιστοκλής Λιναρδάκη"
        },
        "effectiveDateTime": "2023-11-22T06:16:00Z",
        "specimen": {
          "reference": "urn:uuid:04a88cd6-26d2-427f-b764-ad0971c04edd"
        }
      }
    },
    {
      "fullUrl": "urn:uuid:b1dc42e2-314f-4dac-acd6-cb8d6e5961e4",
      "resource": {
        "resourceType": "Observation",
        "id": "b1dc42e2-314f-4dac-acd6-cb8d6e5961e4",
        "meta": {
          "profile": [
            "http://hl7.eu/fhir/laboratory/StructureDefinition/Observation-resultslab-eu-lab"
          ]
        },
        "performer": [
          {
            "display": "The Central European Lab"
          }
        ],
        "category": [
          {
            "coding": [
              {
                "system": "http://terminology.hl7.org/CodeSystem/observation-category",
                "code": "laboratory"
              }
            ]
          }
        ],
        "code": {
          "coding": [
            {
              "code": "32167-9",
              "system": "http://loinc.org",
              "display": "Clarity of Urine"
            }
          ],
          "text": "Clarity of Urine"
        },
        "text": {
          "status": "generated",
          "div": "<div xmlns=\"http://www.w3.org/1999/xhtml\"><table class=\"hl7__eu__lab__report\"><tr><th>Test</th><th>22-Nov-2023</th><th>Reference&#xA0;Range</th><th>Unit</th></tr><tr><td>Clarity of Urine</td></tr></table></div>"
        },
        "status": "final",
        "subject": {
          "reference": "urn:uuid:ceb845bc-b180-4340-b1ea-dc0255b74ebd",
          "display": "Θεμιστοκλής Λιναρδάκη"
        },
        "effectiveDateTime": "2023-11-22T06:16:00Z",
        "specimen": {
          "reference": "urn:uuid:04a88cd6-26d2-427f-b764-ad0971c04edd"
        }
      }
    },
    {
      "fullUrl": "urn:uuid:0c428870-0cf5-4d73-962a-d630505a0050",
      "resource": {
        "resourceType": "Observation",
        "id": "0c428870-0cf5-4d73-962a-d630505a0050",
        "meta": {
          "profile": [
            "http://hl7.eu/fhir/laboratory/StructureDefinition/Observation-resultslab-eu-lab"
          ]
        },
        "performer": [
          {
            "display": "The Central European Lab"
          }
        ],
        "category": [
          {
            "coding": [
              {
                "system": "http://terminology.hl7.org/CodeSystem/observation-category",
                "code": "laboratory"
              }
            ]
          }
        ],
        "code": {
          "coding": [
            {
              "code": "5778-6",
              "system": "http://loinc.org",
              "display": "Color of Urine"
            }
          ],
          "text": "Color of Urine"
        },
        "text": {
          "status": "generated",
          "div": "<div xmlns=\"http://www.w3.org/1999/xhtml\"><table class=\"hl7__eu__lab__report\"><tr><th>Test</th><th>22-Nov-2023</th><th>Reference&#xA0;Range</th><th>Unit</th></tr><tr><td>Color of Urine</td></tr></table></div>"
        },
        "status": "final",
        "subject": {
          "reference": "urn:uuid:ceb845bc-b180-4340-b1ea-dc0255b74ebd",
          "display": "Θεμιστοκλής Λιναρδάκη"
        },
        "effectiveDateTime": "2023-11-22T06:16:00Z",
        "specimen": {
          "reference": "urn:uuid:04a88cd6-26d2-427f-b764-ad0971c04edd"
        }
      }
    },
    {
      "fullUrl": "urn:uuid:099c7a83-bc8e-4288-9dda-6d3a6f9336dd",
      "resource": {
        "resourceType": "Observation",
        "id": "099c7a83-bc8e-4288-9dda-6d3a6f9336dd",
        "meta": {
          "profile": [
            "http://hl7.eu/fhir/laboratory/StructureDefinition/Observation-resultslab-eu-lab"
          ]
        },
        "performer": [
          {
            "display": "The Central European Lab"
          }
        ],
        "category": [
          {
            "coding": [
              {
                "system": "http://terminology.hl7.org/CodeSystem/observation-category",
                "code": "laboratory"
              }
            ]
          }
        ],
        "code": {
          "coding": [
            {
              "code": "5792-7",
              "system": "http://loinc.org",
              "display": "Glucose [Mass/volume] in Urine by Test strip"
            }
          ],
          "text": "Glucose [Mass/volume] in Urine by Test strip"
        },
        "valueQuantity": {
          "system": "http://unitsofmeasure.org",
          "value": 0.6,
          "unit": "mg/dL",
          "code": "mg/dL"
        },
        "referenceRange": [
          {
            "low": {
              "value": 0,
              "code": "mg/dL",
              "system": "http://unitsofmeasure.org"
            }
          },
          {
            "high": {
              "value": 0.8,
              "code": "mg/dL",
              "system": "http://unitsofmeasure.org"
            }
          }
        ],
        "text": {
          "status": "generated",
          "div": "<div xmlns=\"http://www.w3.org/1999/xhtml\"><table class=\"hl7__eu__lab__report\"><tr><th>Test</th><th>22-Nov-2023</th><th>Reference&#xA0;Range</th><th>Unit</th></tr><tr><td>Glucose [Mass/volume] in Urine by Test strip</td><td>0.6</td><td>0 - 0.8</td><td></td><td>mg/dL</td></tr></table></div>"
        },
        "status": "final",
        "subject": {
          "reference": "urn:uuid:ceb845bc-b180-4340-b1ea-dc0255b74ebd",
          "display": "Θεμιστοκλής Λιναρδάκη"
        },
        "effectiveDateTime": "2023-11-22T06:16:00Z",
        "specimen": {
          "reference": "urn:uuid:04a88cd6-26d2-427f-b764-ad0971c04edd"
        }
      }
    },
    {
      "fullUrl": "urn:uuid:55df3417-5ee9-4f3e-9a3e-8fe292ef897e",
      "resource": {
        "resourceType": "Observation",
        "id": "55df3417-5ee9-4f3e-9a3e-8fe292ef897e",
        "meta": {
          "profile": [
            "http://hl7.eu/fhir/laboratory/StructureDefinition/Observation-resultslab-eu-lab"
          ]
        },
        "performer": [
          {
            "display": "The Central European Lab"
          }
        ],
        "category": [
          {
            "coding": [
              {
                "system": "http://terminology.hl7.org/CodeSystem/observation-category",
                "code": "laboratory"
              }
            ]
          }
        ],
        "code": {
          "coding": [
            {
              "code": "25428-4",
              "system": "http://loinc.org",
              "display": "Glucose [Presence] in Urine by Test strip"
            }
          ],
          "text": "Glucose [Presence] in Urine by Test strip"
        },
        "text": {
          "status": "generated",
          "div": "<div xmlns=\"http://www.w3.org/1999/xhtml\"><table class=\"hl7__eu__lab__report\"><tr><th>Test</th><th>22-Nov-2023</th><th>Reference&#xA0;Range</th><th>Unit</th></tr><tr><td>Glucose [Presence] in Urine by Test strip</td></tr></table></div>"
        },
        "status": "final",
        "subject": {
          "reference": "urn:uuid:ceb845bc-b180-4340-b1ea-dc0255b74ebd",
          "display": "Θεμιστοκλής Λιναρδάκη"
        },
        "effectiveDateTime": "2023-11-22T06:16:00Z",
        "specimen": {
          "reference": "urn:uuid:04a88cd6-26d2-427f-b764-ad0971c04edd"
        }
      }
    },
    {
      "fullUrl": "urn:uuid:92daf30c-c0eb-400e-b893-b2ceda8b2d4d",
      "resource": {
        "resourceType": "Observation",
        "id": "92daf30c-c0eb-400e-b893-b2ceda8b2d4d",
        "meta": {
          "profile": [
            "http://hl7.eu/fhir/laboratory/StructureDefinition/Observation-resultslab-eu-lab"
          ]
        },
        "performer": [
          {
            "display": "The Central European Lab"
          }
        ],
        "category": [
          {
            "coding": [
              {
                "system": "http://terminology.hl7.org/CodeSystem/observation-category",
                "code": "laboratory"
              }
            ]
          }
        ],
        "code": {
          "coding": [
            {
              "code": "20505-4",
              "system": "http://loinc.org",
              "display": "Bilirubin.total [Mass/volume] in Urine by Test strip"
            }
          ],
          "text": "Bilirubin.total [Mass/volume] in Urine by Test strip"
        },
        "valueQuantity": {
          "system": "http://unitsofmeasure.org",
          "value": 0.2,
          "unit": "mg/dL",
          "code": "mg/dL"
        },
        "referenceRange": [
          {
            "low": {
              "value": 0.2,
              "code": "mg/dL",
              "system": "http://unitsofmeasure.org"
            }
          },
          {
            "high": {
              "value": 1,
              "code": "mg/dL",
              "system": "http://unitsofmeasure.org"
            }
          }
        ],
        "text": {
          "status": "generated",
          "div": "<div xmlns=\"http://www.w3.org/1999/xhtml\"><table class=\"hl7__eu__lab__report\"><tr><th>Test</th><th>22-Nov-2023</th><th>Reference&#xA0;Range</th><th>Unit</th></tr><tr><td>Bilirubin.total [Mass/volume] in Urine by Test strip</td><td>0.2</td><td>0.2 - 1</td><td></td><td>mg/dL</td></tr></table></div>"
        },
        "status": "final",
        "subject": {
          "reference": "urn:uuid:ceb845bc-b180-4340-b1ea-dc0255b74ebd",
          "display": "Θεμιστοκλής Λιναρδάκη"
        },
        "effectiveDateTime": "2023-11-22T06:16:00Z",
        "specimen": {
          "reference": "urn:uuid:04a88cd6-26d2-427f-b764-ad0971c04edd"
        }
      }
    },
    {
      "fullUrl": "urn:uuid:9b3243cb-1eb9-4cfa-9a0b-eff3aede0df8",
      "resource": {
        "resourceType": "Observation",
        "id": "9b3243cb-1eb9-4cfa-9a0b-eff3aede0df8",
        "meta": {
          "profile": [
            "http://hl7.eu/fhir/laboratory/StructureDefinition/Observation-resultslab-eu-lab"
          ]
        },
        "performer": [
          {
            "display": "The Central European Lab"
          }
        ],
        "category": [
          {
            "coding": [
              {
                "system": "http://terminology.hl7.org/CodeSystem/observation-category",
                "code": "laboratory"
              }
            ]
          }
        ],
        "code": {
          "coding": [
            {
              "code": "5770-3",
              "system": "http://loinc.org",
              "display": "Bilirubin.total [Presence] in Urine by Test strip"
            }
          ],
          "text": "Bilirubin.total [Presence] in Urine by Test strip"
        },
        "text": {
          "status": "generated",
          "div": "<div xmlns=\"http://www.w3.org/1999/xhtml\"><table class=\"hl7__eu__lab__report\"><tr><th>Test</th><th>22-Nov-2023</th><th>Reference&#xA0;Range</th><th>Unit</th></tr><tr><td>Bilirubin.total [Presence] in Urine by Test strip</td></tr></table></div>"
        },
        "status": "final",
        "subject": {
          "reference": "urn:uuid:ceb845bc-b180-4340-b1ea-dc0255b74ebd",
          "display": "Θεμιστοκλής Λιναρδάκη"
        },
        "effectiveDateTime": "2023-11-22T06:16:00Z",
        "specimen": {
          "reference": "urn:uuid:04a88cd6-26d2-427f-b764-ad0971c04edd"
        }
      }
    },
    {
      "fullUrl": "urn:uuid:9eb88c30-f345-44d3-ad98-29b8e8eda113",
      "resource": {
        "resourceType": "Observation",
        "id": "9eb88c30-f345-44d3-ad98-29b8e8eda113",
        "meta": {
          "profile": [
            "http://hl7.eu/fhir/laboratory/StructureDefinition/Observation-resultslab-eu-lab"
          ]
        },
        "performer": [
          {
            "display": "The Central European Lab"
          }
        ],
        "category": [
          {
            "coding": [
              {
                "system": "http://terminology.hl7.org/CodeSystem/observation-category",
                "code": "laboratory"
              }
            ]
          }
        ],
        "code": {
          "coding": [
            {
              "code": "5797-6",
              "system": "http://loinc.org",
              "display": "Ketones [Mass/volume] in Urine by Test strip"
            }
          ],
          "text": "Ketones [Mass/volume] in Urine by Test strip"
        },
        "valueQuantity": {
          "system": "http://unitsofmeasure.org",
          "value": 15.9,
          "unit": "mg/dL",
          "code": "mg/dL"
        },
        "referenceRange": [
          {
            "low": {
              "value": 0,
              "code": "mg/dL",
              "system": "http://unitsofmeasure.org"
            }
          },
          {
            "high": {
              "value": 5,
              "code": "mg/dL",
              "system": "http://unitsofmeasure.org"
            }
          }
        ],
        "interpretation": [
          {
            "coding": [
              {
                "code": "H",
                "system": "http://terminology.hl7.org/CodeSystem/v3-ObservationInterpretation",
                "display": "High"
              }
            ]
          }
        ],
        "text": {
          "status": "generated",
          "div": "<div xmlns=\"http://www.w3.org/1999/xhtml\"><table class=\"hl7__eu__lab__report\"><tr><th>Test</th><th>22-Nov-2023</th><th>Reference&#xA0;Range</th><th>Unit</th></tr><tr><td>Ketones [Mass/volume] in Urine by Test strip</td><td>15.9</td><td>0 - 5</td><td>H</td><td>mg/dL</td></tr></table></div>"
        },
        "status": "final",
        "subject": {
          "reference": "urn:uuid:ceb845bc-b180-4340-b1ea-dc0255b74ebd",
          "display": "Θεμιστοκλής Λιναρδάκη"
        },
        "effectiveDateTime": "2023-11-22T06:16:00Z",
        "specimen": {
          "reference": "urn:uuid:04a88cd6-26d2-427f-b764-ad0971c04edd"
        }
      }
    },
    {
      "fullUrl": "urn:uuid:7e938ba5-b0eb-4040-a424-82884bbb5b37",
      "resource": {
        "resourceType": "Observation",
        "id": "7e938ba5-b0eb-4040-a424-82884bbb5b37",
        "meta": {
          "profile": [
            "http://hl7.eu/fhir/laboratory/StructureDefinition/Observation-resultslab-eu-lab"
          ]
        },
        "performer": [
          {
            "display": "The Central European Lab"
          }
        ],
        "category": [
          {
            "coding": [
              {
                "system": "http://terminology.hl7.org/CodeSystem/observation-category",
                "code": "laboratory"
              }
            ]
          }
        ],
        "code": {
          "coding": [
            {
              "code": "2514-8",
              "system": "http://loinc.org",
              "display": "Ketones [Presence] in Urine by Test strip"
            }
          ],
          "text": "Ketones [Presence] in Urine by Test strip"
        },
        "text": {
          "status": "generated",
          "div": "<div xmlns=\"http://www.w3.org/1999/xhtml\"><table class=\"hl7__eu__lab__report\"><tr><th>Test</th><th>22-Nov-2023</th><th>Reference&#xA0;Range</th><th>Unit</th></tr><tr><td>Ketones [Presence] in Urine by Test strip</td></tr></table></div>"
        },
        "status": "final",
        "subject": {
          "reference": "urn:uuid:ceb845bc-b180-4340-b1ea-dc0255b74ebd",
          "display": "Θεμιστοκλής Λιναρδάκη"
        },
        "effectiveDateTime": "2023-11-22T06:16:00Z",
        "specimen": {
          "reference": "urn:uuid:04a88cd6-26d2-427f-b764-ad0971c04edd"
        }
      }
    },
    {
      "fullUrl": "urn:uuid:98089059-6534-415d-8fd1-8bd75cc81ba4",
      "resource": {
        "resourceType": "Observation",
        "id": "98089059-6534-415d-8fd1-8bd75cc81ba4",
        "meta": {
          "profile": [
            "http://hl7.eu/fhir/laboratory/StructureDefinition/Observation-resultslab-eu-lab"
          ]
        },
        "performer": [
          {
            "display": "The Central European Lab"
          }
        ],
        "category": [
          {
            "coding": [
              {
                "system": "http://terminology.hl7.org/CodeSystem/observation-category",
                "code": "laboratory"
              }
            ]
          }
        ],
        "code": {
          "coding": [
            {
              "code": "5811-5",
              "system": "http://loinc.org",
              "display": "Specific gravity of Urine by Test strip"
            }
          ],
          "text": "Specific gravity of Urine by Test strip"
        },
        "valueQuantity": {
          "system": "http://unitsofmeasure.org",
          "value": 1,
          "unit": "{nominal}",
          "code": "{nominal}"
        },
        "referenceRange": [
          {
            "low": {
              "value": 1.005,
              "code": "g/mL",
              "system": "http://unitsofmeasure.org"
            }
          },
          {
            "high": {
              "value": 1.03,
              "code": "g/mL",
              "system": "http://unitsofmeasure.org"
            }
          }
        ],
        "interpretation": [
          {
            "coding": [
              {
                "code": "L",
                "system": "http://terminology.hl7.org/CodeSystem/v3-ObservationInterpretation",
                "display": "Low"
              }
            ]
          }
        ],
        "text": {
          "status": "generated",
          "div": "<div xmlns=\"http://www.w3.org/1999/xhtml\"><table class=\"hl7__eu__lab__report\"><tr><th>Test</th><th>22-Nov-2023</th><th>Reference&#xA0;Range</th><th>Unit</th></tr><tr><td>Specific gravity of Urine by Test strip</td><td>1.0</td><td>1.005 - 1.03</td><td>L</td><td>{nominal}</td></tr></table></div>"
        },
        "status": "final",
        "subject": {
          "reference": "urn:uuid:ceb845bc-b180-4340-b1ea-dc0255b74ebd",
          "display": "Θεμιστοκλής Λιναρδάκη"
        },
        "effectiveDateTime": "2023-11-22T06:16:00Z",
        "specimen": {
          "reference": "urn:uuid:04a88cd6-26d2-427f-b764-ad0971c04edd"
        }
      }
    },
    {
      "fullUrl": "urn:uuid:96118414-5cbd-4cc3-a453-1eee40f7e523",
      "resource": {
        "resourceType": "Observation",
        "id": "96118414-5cbd-4cc3-a453-1eee40f7e523",
        "meta": {
          "profile": [
            "http://hl7.eu/fhir/laboratory/StructureDefinition/Observation-resultslab-eu-lab"
          ]
        },
        "performer": [
          {
            "display": "The Central European Lab"
          }
        ],
        "category": [
          {
            "coding": [
              {
                "system": "http://terminology.hl7.org/CodeSystem/observation-category",
                "code": "laboratory"
              }
            ]
          }
        ],
        "code": {
          "coding": [
            {
              "code": "5803-2",
              "system": "http://loinc.org",
              "display": "pH of Urine by Test strip"
            }
          ],
          "text": "pH of Urine by Test strip"
        },
        "valueQuantity": {
          "system": "http://unitsofmeasure.org",
          "value": 6.6,
          "unit": "pH",
          "code": "pH"
        },
        "referenceRange": [
          {
            "low": {
              "value": 4.6,
              "code": "pH",
              "system": "http://unitsofmeasure.org"
            }
          },
          {
            "high": {
              "value": 7,
              "code": "pH",
              "system": "http://unitsofmeasure.org"
            }
          }
        ],
        "text": {
          "status": "generated",
          "div": "<div xmlns=\"http://www.w3.org/1999/xhtml\"><table class=\"hl7__eu__lab__report\"><tr><th>Test</th><th>22-Nov-2023</th><th>Reference&#xA0;Range</th><th>Unit</th></tr><tr><td>pH of Urine by Test strip</td><td>6.6</td><td>4.6 - 7</td><td></td><td>pH</td></tr></table></div>"
        },
        "status": "final",
        "subject": {
          "reference": "urn:uuid:ceb845bc-b180-4340-b1ea-dc0255b74ebd",
          "display": "Θεμιστοκλής Λιναρδάκη"
        },
        "effectiveDateTime": "2023-11-22T06:16:00Z",
        "specimen": {
          "reference": "urn:uuid:04a88cd6-26d2-427f-b764-ad0971c04edd"
        }
      }
    },
    {
      "fullUrl": "urn:uuid:3b9eb648-9c13-4d43-a92c-81591dbedf20",
      "resource": {
        "resourceType": "Observation",
        "id": "3b9eb648-9c13-4d43-a92c-81591dbedf20",
        "meta": {
          "profile": [
            "http://hl7.eu/fhir/laboratory/StructureDefinition/Observation-resultslab-eu-lab"
          ]
        },
        "performer": [
          {
            "display": "The Central European Lab"
          }
        ],
        "category": [
          {
            "coding": [
              {
                "system": "http://terminology.hl7.org/CodeSystem/observation-category",
                "code": "laboratory"
              }
            ]
          }
        ],
        "code": {
          "coding": [
            {
              "code": "5804-0",
              "system": "http://loinc.org",
              "display": "Protein [Mass/volume] in Urine by Test strip"
            }
          ],
          "text": "Protein [Mass/volume] in Urine by Test strip"
        },
        "valueQuantity": {
          "system": "http://unitsofmeasure.org",
          "value": 327.2,
          "unit": "mg/dL",
          "code": "mg/dL"
        },
        "referenceRange": [
          {
            "low": {
              "value": 0,
              "code": "mg/dL",
              "system": "http://unitsofmeasure.org"
            }
          },
          {
            "high": {
              "value": 150,
              "code": "mg/dL",
              "system": "http://unitsofmeasure.org"
            }
          }
        ],
        "interpretation": [
          {
            "coding": [
              {
                "code": "H",
                "system": "http://terminology.hl7.org/CodeSystem/v3-ObservationInterpretation",
                "display": "High"
              }
            ]
          }
        ],
        "text": {
          "status": "generated",
          "div": "<div xmlns=\"http://www.w3.org/1999/xhtml\"><table class=\"hl7__eu__lab__report\"><tr><th>Test</th><th>22-Nov-2023</th><th>Reference&#xA0;Range</th><th>Unit</th></tr><tr><td>Protein [Mass/volume] in Urine by Test strip</td><td>327.2</td><td>0 - 150</td><td>H</td><td>mg/dL</td></tr></table></div>"
        },
        "status": "final",
        "subject": {
          "reference": "urn:uuid:ceb845bc-b180-4340-b1ea-dc0255b74ebd",
          "display": "Θεμιστοκλής Λιναρδάκη"
        },
        "effectiveDateTime": "2023-11-22T06:16:00Z",
        "specimen": {
          "reference": "urn:uuid:04a88cd6-26d2-427f-b764-ad0971c04edd"
        }
      }
    },
    {
      "fullUrl": "urn:uuid:1bc0a8f9-04fd-4afb-9e89-ca1a5ebc9f22",
      "resource": {
        "resourceType": "Observation",
        "id": "1bc0a8f9-04fd-4afb-9e89-ca1a5ebc9f22",
        "meta": {
          "profile": [
            "http://hl7.eu/fhir/laboratory/StructureDefinition/Observation-resultslab-eu-lab"
          ]
        },
        "performer": [
          {
            "display": "The Central European Lab"
          }
        ],
        "category": [
          {
            "coding": [
              {
                "system": "http://terminology.hl7.org/CodeSystem/observation-category",
                "code": "laboratory"
              }
            ]
          }
        ],
        "code": {
          "coding": [
            {
              "code": "20454-5",
              "system": "http://loinc.org",
              "display": "Protein [Presence] in Urine by Test strip"
            }
          ],
          "text": "Protein [Presence] in Urine by Test strip"
        },
        "text": {
          "status": "generated",
          "div": "<div xmlns=\"http://www.w3.org/1999/xhtml\"><table class=\"hl7__eu__lab__report\"><tr><th>Test</th><th>22-Nov-2023</th><th>Reference&#xA0;Range</th><th>Unit</th></tr><tr><td>Protein [Presence] in Urine by Test strip</td></tr></table></div>"
        },
        "status": "final",
        "subject": {
          "reference": "urn:uuid:ceb845bc-b180-4340-b1ea-dc0255b74ebd",
          "display": "Θεμιστοκλής Λιναρδάκη"
        },
        "effectiveDateTime": "2023-11-22T06:16:00Z",
        "specimen": {
          "reference": "urn:uuid:04a88cd6-26d2-427f-b764-ad0971c04edd"
        }
      }
    },
    {
      "fullUrl": "urn:uuid:a465cbdc-33cf-4e2a-8190-0fc905339798",
      "resource": {
        "resourceType": "Observation",
        "id": "a465cbdc-33cf-4e2a-8190-0fc905339798",
        "meta": {
          "profile": [
            "http://hl7.eu/fhir/laboratory/StructureDefinition/Observation-resultslab-eu-lab"
          ]
        },
        "performer": [
          {
            "display": "The Central European Lab"
          }
        ],
        "category": [
          {
            "coding": [
              {
                "system": "http://terminology.hl7.org/CodeSystem/observation-category",
                "code": "laboratory"
              }
            ]
          }
        ],
        "code": {
          "coding": [
            {
              "code": "5802-4",
              "system": "http://loinc.org",
              "display": "Nitrite [Presence] in Urine by Test strip"
            }
          ],
          "text": "Nitrite [Presence] in Urine by Test strip"
        },
        "text": {
          "status": "generated",
          "div": "<div xmlns=\"http://www.w3.org/1999/xhtml\"><table class=\"hl7__eu__lab__report\"><tr><th>Test</th><th>22-Nov-2023</th><th>Reference&#xA0;Range</th><th>Unit</th></tr><tr><td>Nitrite [Presence] in Urine by Test strip</td></tr></table></div>"
        },
        "status": "final",
        "subject": {
          "reference": "urn:uuid:ceb845bc-b180-4340-b1ea-dc0255b74ebd",
          "display": "Θεμιστοκλής Λιναρδάκη"
        },
        "effectiveDateTime": "2023-11-22T06:16:00Z",
        "specimen": {
          "reference": "urn:uuid:04a88cd6-26d2-427f-b764-ad0971c04edd"
        }
      }
    },
    {
      "fullUrl": "urn:uuid:aada90a7-5e2d-4f7d-afca-72f8c27b7911",
      "resource": {
        "resourceType": "Observation",
        "id": "aada90a7-5e2d-4f7d-afca-72f8c27b7911",
        "meta": {
          "profile": [
            "http://hl7.eu/fhir/laboratory/StructureDefinition/Observation-resultslab-eu-lab"
          ]
        },
        "performer": [
          {
            "display": "The Central European Lab"
          }
        ],
        "category": [
          {
            "coding": [
              {
                "system": "http://terminology.hl7.org/CodeSystem/observation-category",
                "code": "laboratory"
              }
            ]
          }
        ],
        "code": {
          "coding": [
            {
              "code": "5794-3",
              "system": "http://loinc.org",
              "display": "Hemoglobin [Presence] in Urine by Test strip"
            }
          ],
          "text": "Hemoglobin [Presence] in Urine by Test strip"
        },
        "text": {
          "status": "generated",
          "div": "<div xmlns=\"http://www.w3.org/1999/xhtml\"><table class=\"hl7__eu__lab__report\"><tr><th>Test</th><th>22-Nov-2023</th><th>Reference&#xA0;Range</th><th>Unit</th></tr><tr><td>Hemoglobin [Presence] in Urine by Test strip</td></tr></table></div>"
        },
        "status": "final",
        "subject": {
          "reference": "urn:uuid:ceb845bc-b180-4340-b1ea-dc0255b74ebd",
          "display": "Θεμιστοκλής Λιναρδάκη"
        },
        "effectiveDateTime": "2023-11-22T06:16:00Z",
        "specimen": {
          "reference": "urn:uuid:04a88cd6-26d2-427f-b764-ad0971c04edd"
        }
      }
    },
    {
      "fullUrl": "urn:uuid:649a6e05-619b-4ff3-bded-fbc81d7858cd",
      "resource": {
        "resourceType": "Observation",
        "id": "649a6e05-619b-4ff3-bded-fbc81d7858cd",
        "meta": {
          "profile": [
            "http://hl7.eu/fhir/laboratory/StructureDefinition/Observation-resultslab-eu-lab"
          ]
        },
        "performer": [
          {
            "display": "The Central European Lab"
          }
        ],
        "category": [
          {
            "coding": [
              {
                "system": "http://terminology.hl7.org/CodeSystem/observation-category",
                "code": "laboratory"
              }
            ]
          }
        ],
        "code": {
          "coding": [
            {
              "code": "5799-2",
              "system": "http://loinc.org",
              "display": "Leukocyte esterase [Presence] in Urine by Test strip"
            }
          ],
          "text": "Leukocyte esterase [Presence] in Urine by Test strip"
        },
        "text": {
          "status": "generated",
          "div": "<div xmlns=\"http://www.w3.org/1999/xhtml\"><table class=\"hl7__eu__lab__report\"><tr><th>Test</th><th>22-Nov-2023</th><th>Reference&#xA0;Range</th><th>Unit</th></tr><tr><td>Leukocyte esterase [Presence] in Urine by Test strip</td></tr></table></div>"
        },
        "status": "final",
        "subject": {
          "reference": "urn:uuid:ceb845bc-b180-4340-b1ea-dc0255b74ebd",
          "display": "Θεμιστοκλής Λιναρδάκη"
        },
        "effectiveDateTime": "2023-11-22T06:16:00Z",
        "specimen": {
          "reference": "urn:uuid:04a88cd6-26d2-427f-b764-ad0971c04edd"
        }
      }
    },
    {
      "fullUrl": "urn:uuid:39e9ac2e-7f11-43fc-b11e-5ead22e20dbe",
      "resource": {
        "resourceType": "Observation",
        "id": "39e9ac2e-7f11-43fc-b11e-5ead22e20dbe",
        "meta": {
          "profile": [
            "http://hl7.eu/fhir/laboratory/StructureDefinition/Observation-resultslab-eu-lab"
          ]
        },
        "performer": [
          {
            "display": "The Central European Lab"
          }
        ],
        "category": [
          {
            "coding": [
              {
                "system": "http://terminology.hl7.org/CodeSystem/observation-category",
                "code": "laboratory"
              }
            ]
          }
        ],
        "code": {
          "coding": [
            {
              "code": "4548-4",
              "system": "http://loinc.org",
              "display": "Hemoglobin A1c/Hemoglobin.total in Blood"
            }
          ],
          "text": "Hemoglobin A1c/Hemoglobin.total in Blood"
        },
        "valueQuantity": {
          "system": "http://unitsofmeasure.org",
          "value": 3.3,
          "unit": "%",
          "code": "%"
        },
        "referenceRange": [
          {
            "low": {
              "value": 4.3,
              "code": "%",
              "system": "http://unitsofmeasure.org"
            }
          },
          {
            "high": {
              "value": 6.4,
              "code": "%",
              "system": "http://unitsofmeasure.org"
            }
          }
        ],
        "interpretation": [
          {
            "coding": [
              {
                "code": "L",
                "system": "http://terminology.hl7.org/CodeSystem/v3-ObservationInterpretation",
                "display": "Low"
              }
            ]
          }
        ],
        "text": {
          "status": "generated",
          "div": "<div xmlns=\"http://www.w3.org/1999/xhtml\"><table class=\"hl7__eu__lab__report\"><tr><th>Test</th><th>22-Nov-2023</th><th>Reference&#xA0;Range</th><th>Unit</th></tr><tr><td>Hemoglobin A1c/Hemoglobin.total in Blood</td><td>3.3</td><td>4.3 - 6.4</td><td>L</td><td>%</td></tr></table></div>"
        },
        "status": "final",
        "subject": {
          "reference": "urn:uuid:ceb845bc-b180-4340-b1ea-dc0255b74ebd",
          "display": "Θεμιστοκλής Λιναρδάκη"
        },
        "effectiveDateTime": "2023-11-22T06:16:00Z",
        "specimen": {
          "reference": "urn:uuid:1c19451f-65fe-4be6-9e74-1f85bdad2725"
        }
      }
    },
    {
      "fullUrl": "urn:uuid:d09f897c-19bb-4492-a509-1d5c5a73de07",
      "resource": {
        "resourceType": "Observation",
        "id": "d09f897c-19bb-4492-a509-1d5c5a73de07",
        "meta": {
          "profile": [
            "http://hl7.eu/fhir/laboratory/StructureDefinition/Observation-resultslab-eu-lab"
          ]
        },
        "performer": [
          {
            "display": "The Central European Lab"
          }
        ],
        "category": [
          {
            "coding": [
              {
                "system": "http://terminology.hl7.org/CodeSystem/observation-category",
                "code": "laboratory"
              }
            ]
          }
        ],
        "code": {
          "coding": [
            {
              "code": "2339-0",
              "system": "http://loinc.org",
              "display": "Glucose [Mass/volume] in Blood"
            }
          ],
          "text": "Glucose [Mass/volume] in Blood"
        },
        "valueQuantity": {
          "system": "http://unitsofmeasure.org",
          "value": 73.3,
          "unit": "mg/dL",
          "code": "mg/dL"
        },
        "referenceRange": [
          {
            "low": {
              "value": 70,
              "code": "mg/dL",
              "system": "http://unitsofmeasure.org"
            }
          },
          {
            "high": {
              "value": 140,
              "code": "mg/dL",
              "system": "http://unitsofmeasure.org"
            }
          }
        ],
        "text": {
          "status": "generated",
          "div": "<div xmlns=\"http://www.w3.org/1999/xhtml\"><table class=\"hl7__eu__lab__report\"><tr><th>Test</th><th>22-Nov-2023</th><th>Reference&#xA0;Range</th><th>Unit</th></tr><tr><td>Glucose [Mass/volume] in Blood</td><td>73.3</td><td>70 - 140</td><td></td><td>mg/dL</td></tr></table></div>"
        },
        "status": "final",
        "subject": {
          "reference": "urn:uuid:ceb845bc-b180-4340-b1ea-dc0255b74ebd",
          "display": "Θεμιστοκλής Λιναρδάκη"
        },
        "effectiveDateTime": "2023-11-22T06:16:00Z",
        "specimen": {
          "reference": "urn:uuid:1c19451f-65fe-4be6-9e74-1f85bdad2725"
        }
      }
    },
    {
      "fullUrl": "urn:uuid:b89761ba-81ca-4813-80c0-db4869b9994d",
      "resource": {
        "resourceType": "Observation",
        "id": "b89761ba-81ca-4813-80c0-db4869b9994d",
        "meta": {
          "profile": [
            "http://hl7.eu/fhir/laboratory/StructureDefinition/Observation-resultslab-eu-lab"
          ]
        },
        "performer": [
          {
            "display": "The Central European Lab"
          }
        ],
        "category": [
          {
            "coding": [
              {
                "system": "http://terminology.hl7.org/CodeSystem/observation-category",
                "code": "laboratory"
              }
            ]
          }
        ],
        "code": {
          "coding": [
            {
              "code": "6299-2",
              "system": "http://loinc.org",
              "display": "Urea nitrogen [Mass/volume] in Blood"
            }
          ],
          "text": "Urea nitrogen [Mass/volume] in Blood"
        },
        "valueQuantity": {
          "system": "http://unitsofmeasure.org",
          "value": 18.6,
          "unit": "mg/dL",
          "code": "mg/dL"
        },
        "referenceRange": [
          {
            "low": {
              "value": 7,
              "code": "mg/dL",
              "system": "http://unitsofmeasure.org"
            }
          },
          {
            "high": {
              "value": 20,
              "code": "mg/dL",
              "system": "http://unitsofmeasure.org"
            }
          }
        ],
        "text": {
          "status": "generated",
          "div": "<div xmlns=\"http://www.w3.org/1999/xhtml\"><table class=\"hl7__eu__lab__report\"><tr><th>Test</th><th>22-Nov-2023</th><th>Reference&#xA0;Range</th><th>Unit</th></tr><tr><td>Urea nitrogen [Mass/volume] in Blood</td><td>18.6</td><td>7 - 20</td><td></td><td>mg/dL</td></tr></table></div>"
        },
        "status": "final",
        "subject": {
          "reference": "urn:uuid:ceb845bc-b180-4340-b1ea-dc0255b74ebd",
          "display": "Θεμιστοκλής Λιναρδάκη"
        },
        "effectiveDateTime": "2023-11-22T06:16:00Z",
        "specimen": {
          "reference": "urn:uuid:1c19451f-65fe-4be6-9e74-1f85bdad2725"
        }
      }
    },
    {
      "fullUrl": "urn:uuid:b5c2a8e7-efe7-421e-9bdc-aebbf2b7459e",
      "resource": {
        "resourceType": "Observation",
        "id": "b5c2a8e7-efe7-421e-9bdc-aebbf2b7459e",
        "meta": {
          "profile": [
            "http://hl7.eu/fhir/laboratory/StructureDefinition/Observation-resultslab-eu-lab"
          ]
        },
        "performer": [
          {
            "display": "The Central European Lab"
          }
        ],
        "category": [
          {
            "coding": [
              {
                "system": "http://terminology.hl7.org/CodeSystem/observation-category",
                "code": "laboratory"
              }
            ]
          }
        ],
        "code": {
          "coding": [
            {
              "code": "38483-4",
              "system": "http://loinc.org",
              "display": "Creatinine [Mass/volume] in Blood"
            }
          ],
          "text": "Creatinine [Mass/volume] in Blood"
        },
        "valueQuantity": {
          "system": "http://unitsofmeasure.org",
          "value": 5.5,
          "unit": "mg/dL",
          "code": "mg/dL"
        },
        "referenceRange": [
          {
            "low": {
              "value": 0.6,
              "code": "mg/dL",
              "system": "http://unitsofmeasure.org"
            }
          },
          {
            "high": {
              "value": 1.3,
              "code": "mg/dL",
              "system": "http://unitsofmeasure.org"
            }
          }
        ],
        "interpretation": [
          {
            "coding": [
              {
                "code": "H",
                "system": "http://terminology.hl7.org/CodeSystem/v3-ObservationInterpretation",
                "display": "High"
              }
            ]
          }
        ],
        "text": {
          "status": "generated",
          "div": "<div xmlns=\"http://www.w3.org/1999/xhtml\"><table class=\"hl7__eu__lab__report\"><tr><th>Test</th><th>22-Nov-2023</th><th>Reference&#xA0;Range</th><th>Unit</th></tr><tr><td>Creatinine [Mass/volume] in Blood</td><td>5.5</td><td>0.6 - 1.3</td><td>H</td><td>mg/dL</td></tr></table></div>"
        },
        "status": "final",
        "subject": {
          "reference": "urn:uuid:ceb845bc-b180-4340-b1ea-dc0255b74ebd",
          "display": "Θεμιστοκλής Λιναρδάκη"
        },
        "effectiveDateTime": "2023-11-22T06:16:00Z",
        "specimen": {
          "reference": "urn:uuid:1c19451f-65fe-4be6-9e74-1f85bdad2725"
        }
      }
    },
    {
      "fullUrl": "urn:uuid:7cd4dc16-bcaa-4440-b0e7-68e28ca52bdd",
      "resource": {
        "resourceType": "Observation",
        "id": "7cd4dc16-bcaa-4440-b0e7-68e28ca52bdd",
        "meta": {
          "profile": [
            "http://hl7.eu/fhir/laboratory/StructureDefinition/Observation-resultslab-eu-lab"
          ]
        },
        "performer": [
          {
            "display": "The Central European Lab"
          }
        ],
        "category": [
          {
            "coding": [
              {
                "system": "http://terminology.hl7.org/CodeSystem/observation-category",
                "code": "laboratory"
              }
            ]
          }
        ],
        "code": {
          "coding": [
            {
              "code": "49765-1",
              "system": "http://loinc.org",
              "display": "Calcium [Mass/volume] in Blood"
            }
          ],
          "text": "Calcium [Mass/volume] in Blood"
        },
        "valueQuantity": {
          "system": "http://unitsofmeasure.org",
          "value": 9.9,
          "unit": "mg/dL",
          "code": "mg/dL"
        },
        "referenceRange": [
          {
            "low": {
              "value": 8.5,
              "code": "mg/dL",
              "system": "http://unitsofmeasure.org"
            }
          },
          {
            "high": {
              "value": 10.5,
              "code": "mg/dL",
              "system": "http://unitsofmeasure.org"
            }
          }
        ],
        "text": {
          "status": "generated",
          "div": "<div xmlns=\"http://www.w3.org/1999/xhtml\"><table class=\"hl7__eu__lab__report\"><tr><th>Test</th><th>22-Nov-2023</th><th>Reference&#xA0;Range</th><th>Unit</th></tr><tr><td>Calcium [Mass/volume] in Blood</td><td>9.9</td><td>8.5 - 10.5</td><td></td><td>mg/dL</td></tr></table></div>"
        },
        "status": "final",
        "subject": {
          "reference": "urn:uuid:ceb845bc-b180-4340-b1ea-dc0255b74ebd",
          "display": "Θεμιστοκλής Λιναρδάκη"
        },
        "effectiveDateTime": "2023-11-22T06:16:00Z",
        "specimen": {
          "reference": "urn:uuid:1c19451f-65fe-4be6-9e74-1f85bdad2725"
        }
      }
    },
    {
      "fullUrl": "urn:uuid:a6acc5de-5887-4756-8073-408a08757ac2",
      "resource": {
        "resourceType": "Observation",
        "id": "a6acc5de-5887-4756-8073-408a08757ac2",
        "meta": {
          "profile": [
            "http://hl7.eu/fhir/laboratory/StructureDefinition/Observation-resultslab-eu-lab"
          ]
        },
        "performer": [
          {
            "display": "The Central European Lab"
          }
        ],
        "category": [
          {
            "coding": [
              {
                "system": "http://terminology.hl7.org/CodeSystem/observation-category",
                "code": "laboratory"
              }
            ]
          }
        ],
        "code": {
          "coding": [
            {
              "code": "2947-0",
              "system": "http://loinc.org",
              "display": "Sodium [Moles/volume] in Blood"
            }
          ],
          "text": "Sodium [Moles/volume] in Blood"
        },
        "valueQuantity": {
          "system": "http://unitsofmeasure.org",
          "value": 143.9,
          "unit": "mmol/L",
          "code": "mmol/L"
        },
        "referenceRange": [
          {
            "low": {
              "value": 135,
              "code": "mmol/L",
              "system": "http://unitsofmeasure.org"
            }
          },
          {
            "high": {
              "value": 145,
              "code": "mmol/L",
              "system": "http://unitsofmeasure.org"
            }
          }
        ],
        "text": {
          "status": "generated",
          "div": "<div xmlns=\"http://www.w3.org/1999/xhtml\"><table class=\"hl7__eu__lab__report\"><tr><th>Test</th><th>22-Nov-2023</th><th>Reference&#xA0;Range</th><th>Unit</th></tr><tr><td>Sodium [Moles/volume] in Blood</td><td>143.9</td><td>135 - 145</td><td></td><td>mmol/L</td></tr></table></div>"
        },
        "status": "final",
        "subject": {
          "reference": "urn:uuid:ceb845bc-b180-4340-b1ea-dc0255b74ebd",
          "display": "Θεμιστοκλής Λιναρδάκη"
        },
        "effectiveDateTime": "2023-11-22T06:16:00Z",
        "specimen": {
          "reference": "urn:uuid:1c19451f-65fe-4be6-9e74-1f85bdad2725"
        }
      }
    },
    {
      "fullUrl": "urn:uuid:fe826f5c-a721-4553-8246-53b3ffa8198e",
      "resource": {
        "resourceType": "Observation",
        "id": "fe826f5c-a721-4553-8246-53b3ffa8198e",
        "meta": {
          "profile": [
            "http://hl7.eu/fhir/laboratory/StructureDefinition/Observation-resultslab-eu-lab"
          ]
        },
        "performer": [
          {
            "display": "The Central European Lab"
          }
        ],
        "category": [
          {
            "coding": [
              {
                "system": "http://terminology.hl7.org/CodeSystem/observation-category",
                "code": "laboratory"
              }
            ]
          }
        ],
        "code": {
          "coding": [
            {
              "code": "6298-4",
              "system": "http://loinc.org",
              "display": "Potassium [Moles/volume] in Blood"
            }
          ],
          "text": "Potassium [Moles/volume] in Blood"
        },
        "valueQuantity": {
          "system": "http://unitsofmeasure.org",
          "value": 3.9,
          "unit": "mmol/L",
          "code": "mmol/L"
        },
        "referenceRange": [
          {
            "low": {
              "value": 3.5,
              "code": "mmol/L",
              "system": "http://unitsofmeasure.org"
            }
          },
          {
            "high": {
              "value": 5.3,
              "code": "mmol/L",
              "system": "http://unitsofmeasure.org"
            }
          }
        ],
        "text": {
          "status": "generated",
          "div": "<div xmlns=\"http://www.w3.org/1999/xhtml\"><table class=\"hl7__eu__lab__report\"><tr><th>Test</th><th>22-Nov-2023</th><th>Reference&#xA0;Range</th><th>Unit</th></tr><tr><td>Potassium [Moles/volume] in Blood</td><td>3.9</td><td>3.5 - 5.3</td><td></td><td>mmol/L</td></tr></table></div>"
        },
        "status": "final",
        "subject": {
          "reference": "urn:uuid:ceb845bc-b180-4340-b1ea-dc0255b74ebd",
          "display": "Θεμιστοκλής Λιναρδάκη"
        },
        "effectiveDateTime": "2023-11-22T06:16:00Z",
        "specimen": {
          "reference": "urn:uuid:1c19451f-65fe-4be6-9e74-1f85bdad2725"
        }
      }
    },
    {
      "fullUrl": "urn:uuid:2a496232-2949-48b0-b949-7c412f71398f",
      "resource": {
        "resourceType": "Observation",
        "id": "2a496232-2949-48b0-b949-7c412f71398f",
        "meta": {
          "profile": [
            "http://hl7.eu/fhir/laboratory/StructureDefinition/Observation-resultslab-eu-lab"
          ]
        },
        "performer": [
          {
            "display": "The Central European Lab"
          }
        ],
        "category": [
          {
            "coding": [
              {
                "system": "http://terminology.hl7.org/CodeSystem/observation-category",
                "code": "laboratory"
              }
            ]
          }
        ],
        "code": {
          "coding": [
            {
              "code": "2069-3",
              "system": "http://loinc.org",
              "display": "Chloride [Moles/volume] in Blood"
            }
          ],
          "text": "Chloride [Moles/volume] in Blood"
        },
        "valueQuantity": {
          "system": "http://unitsofmeasure.org",
          "value": 106.8,
          "unit": "mmol/L",
          "code": "mmol/L"
        },
        "referenceRange": [
          {
            "low": {
              "value": 98,
              "code": "mmol/L",
              "system": "http://unitsofmeasure.org"
            }
          },
          {
            "high": {
              "value": 110,
              "code": "mmol/L",
              "system": "http://unitsofmeasure.org"
            }
          }
        ],
        "text": {
          "status": "generated",
          "div": "<div xmlns=\"http://www.w3.org/1999/xhtml\"><table class=\"hl7__eu__lab__report\"><tr><th>Test</th><th>22-Nov-2023</th><th>Reference&#xA0;Range</th><th>Unit</th></tr><tr><td>Chloride [Moles/volume] in Blood</td><td>106.8</td><td>98 - 110</td><td></td><td>mmol/L</td></tr></table></div>"
        },
        "status": "final",
        "subject": {
          "reference": "urn:uuid:ceb845bc-b180-4340-b1ea-dc0255b74ebd",
          "display": "Θεμιστοκλής Λιναρδάκη"
        },
        "effectiveDateTime": "2023-11-22T06:16:00Z",
        "specimen": {
          "reference": "urn:uuid:1c19451f-65fe-4be6-9e74-1f85bdad2725"
        }
      }
    },
    {
      "fullUrl": "urn:uuid:6e085b49-637a-481b-b85d-869d6386bc6c",
      "resource": {
        "resourceType": "Observation",
        "id": "6e085b49-637a-481b-b85d-869d6386bc6c",
        "meta": {
          "profile": [
            "http://hl7.eu/fhir/laboratory/StructureDefinition/Observation-resultslab-eu-lab"
          ]
        },
        "performer": [
          {
            "display": "The Central European Lab"
          }
        ],
        "category": [
          {
            "coding": [
              {
                "system": "http://terminology.hl7.org/CodeSystem/observation-category",
                "code": "laboratory"
              }
            ]
          }
        ],
        "code": {
          "coding": [
            {
              "code": "20565-8",
              "system": "http://loinc.org",
              "display": "Carbon dioxide, total [Moles/volume] in Blood"
            }
          ],
          "text": "Carbon dioxide, total [Moles/volume] in Blood"
        },
        "valueQuantity": {
          "system": "http://unitsofmeasure.org",
          "value": 22.3,
          "unit": "mmol/L",
          "code": "mmol/L"
        },
        "referenceRange": [
          {
            "low": {
              "value": 22,
              "code": "mmol/L",
              "system": "http://unitsofmeasure.org"
            }
          },
          {
            "high": {
              "value": 29,
              "code": "mmol/L",
              "system": "http://unitsofmeasure.org"
            }
          }
        ],
        "text": {
          "status": "generated",
          "div": "<div xmlns=\"http://www.w3.org/1999/xhtml\"><table class=\"hl7__eu__lab__report\"><tr><th>Test</th><th>22-Nov-2023</th><th>Reference&#xA0;Range</th><th>Unit</th></tr><tr><td>Carbon dioxide, total [Moles/volume] in Blood</td><td>22.3</td><td>22 - 29</td><td></td><td>mmol/L</td></tr></table></div>"
        },
        "status": "final",
        "subject": {
          "reference": "urn:uuid:ceb845bc-b180-4340-b1ea-dc0255b74ebd",
          "display": "Θεμιστοκλής Λιναρδάκη"
        },
        "effectiveDateTime": "2023-11-22T06:16:00Z",
        "specimen": {
          "reference": "urn:uuid:1c19451f-65fe-4be6-9e74-1f85bdad2725"
        }
      }
    },
    {
      "fullUrl": "urn:uuid:f322f6a7-46cd-4538-b798-5775076e76d0",
      "resource": {
        "resourceType": "Device",
        "id": "f322f6a7-46cd-4538-b798-5775076e76d0",
        "deviceName": [
          {
            "name": "SYNDERAI Synthetic Generator",
            "type": "manufacturer-name"
          }
        ],
        "version": [
          {
            "value": "5.0"
          }
        ],
        "text": {
          "status": "generated",
          "div": "<div xmlns=\"http://www.w3.org/1999/xhtml\">SYNDERAI Synthetic Generator v5.0</div>"
        },
        "status": "active\"",
        "distinctIdentifier": "synderai-generator-50",
        "manufacturer": "SYNDERAI Project"
      }
    },
    {
      "fullUrl": "urn:uuid:1395ec14-099b-4206-a088-0e3015d01168",
      "resource": {
        "resourceType": "Provenance",
        "id": "1395ec14-099b-4206-a088-0e3015d01168",
        "target": [
          {
            "reference": "Patient/ceb845bc-b180-4340-b1ea-dc0255b74ebd"
          },
          {
            "reference": "Bundle/30892554-0a67-462a-bfca-71513a47cffe"
          },
          {
            "reference": "Composition/416bb11d-39f1-41f2-a18f-56ba932ed646"
          },
          {
            "reference": "PractitionerRole/e59fd437-5f70-4c4f-90ba-b4d1c797fa96"
          },
          {
            "reference": "Practitioner/3a434198-4380-4de4-b565-895d43f02f77"
          },
          {
            "reference": "PractitionerRole/3ce20ba5-369b-4d99-a49a-8647968bd59a"
          },
          {
            "reference": "Organization/40d73aba-e5a1-469d-816f-71572aba6e73"
          }
        ],
        "activity": {
          "text": "Synthetic Example Data Generation"
        },
        "policy": [
          "https://synderai.net/synderai-synthetic-data-policy"
        ],
        "agent": [
          {
            "type": {
              "text": "author"
            },
            "who": {
              "reference": "Device/f322f6a7-46cd-4538-b798-5775076e76d0"
            }
          }
        ],
        "reason": [
          {
            "text": "Interoperability Testing and Training (non-clinical use)"
          }
        ],
        "text": {
          "status": "generated",
          "div": "<div xmlns=\"http://www.w3.org/1999/xhtml\">Provenance for SYNDERAI Synthetic Example Data Resource</div>"
        },
        "recorded": "2023-11-22T07:16:00Z"
      }
    },
    {
      "fullUrl": "urn:uuid:e59fd437-5f70-4c4f-90ba-b4d1c797fa96",
      "resource": {
        "resourceType": "PractitionerRole",
        "id": "e59fd437-5f70-4c4f-90ba-b4d1c797fa96",
        "meta": {
          "profile": [
            "http://hl7.eu/fhir/base/StructureDefinition/practitionerRole-eu"
          ]
        },
        "text": {
          "status": "generated",
          "div": "<div xmlns=\"http://www.w3.org/1999/xhtml\">Laboratory Role Id: e59fd437-5f70-4c4f-90ba-b4d1c797fa96</div>"
        },
        "practitioner": {
          "reference": "urn:uuid:3a434198-4380-4de4-b565-895d43f02f77"
        }
      }
    },
    {
      "fullUrl": "urn:uuid:3a434198-4380-4de4-b565-895d43f02f77",
      "resource": {
        "resourceType": "Practitioner",
        "id": "3a434198-4380-4de4-b565-895d43f02f77",
        "meta": {
          "profile": [
            "http://hl7.eu/fhir/base/StructureDefinition/practitioner-eu"
          ]
        },
        "identifier": [
          {
            "assigner": {
              "display": "HL7 Europe"
            },
            "system": "urn:oid:2.16.840.1.113883.2.51.999",
            "value": "ef5142be-2068-4daa-8ae7-b4322eef1157"
          }
        ],
        "name": [
          {
            "prefix": [
              "dr"
            ],
            "given": [
              "Ex"
            ],
            "family": "Ample"
          }
        ],
        "address": [
          {
            "line": [
              "Laboratoire Central Européenne",
              "Boulevard du Jardin Botanique 32"
            ],
            "postalCode": "1000",
            "city": "Brussels",
            "country": "Belgium"
          }
        ],
        "text": {
          "status": "generated",
          "div": "<div xmlns=\"http://www.w3.org/1999/xhtml\">Laboratory: Laboratoire Central Européenne, 1000 Brussels, Belgium</div>"
        }
      }
    }
  ],
  "type": "document",
  "timestamp": "2023-11-22T07:16:00Z"
}
