{
  "resourceType": "Bundle",
  "id": "d1150fed-d5d6-4f06-80f1-262663b09b6f",
  "meta": {
    "profile": [
      "http://hl7.eu/fhir/laboratory/StructureDefinition/Bundle-eu-lab"
    ]
  },
  "identifier": {
    "assigner": {
      "display": "HL7 Europe"
    },
    "system": "urn:oid:2.16.840.1.113883.2.51.999",
    "value": "46be3e6e-b598-4bc6-9af0-535d34fdce60"
  },
  "entry": [
    {
      "fullUrl": "urn:uuid:1f864838-9e21-4c04-9573-7a0dad524114",
      "resource": {
        "resourceType": "Composition",
        "id": "1f864838-9e21-4c04-9573-7a0dad524114",
        "meta": {
          "profile": [
            "http://hl7.eu/fhir/laboratory/StructureDefinition/Composition-eu-lab"
          ]
        },
        "identifier": {
          "assigner": {
            "display": "HL7 Europe"
          },
          "system": "urn:oid:2.16.840.1.113883.2.51.999",
          "value": "f53b76ef-4e70-4b6c-9fc6-84673bd9b54d"
        },
        "author": [
          {
            "reference": "urn:uuid:d4645f5f-5489-49d1-89db-43fa0ce4fe81"
          }
        ],
        "category": [
          {
            "coding": [
              {
                "code": "26436-6",
                "system": "http://loinc.org",
                "display": "Laboratory studies (set)"
              }
            ]
          }
        ],
        "type": {
          "coding": [
            {
              "code": "11502-2",
              "system": "http://loinc.org",
              "display": "Laboratory report"
            }
          ],
          "text": "Laboratory Report"
        },
        "section": [
          {
            "code": {
              "coding": [
                {
                  "code": "26436-6",
                  "system": "http://loinc.org",
                  "display": "Laboratory studies (set)"
                }
              ],
              "text": "Laboratory studies"
            },
            "section": [
              {
                "code": {
                  "coding": [
                    {
                      "code": "$18719-5",
                      "system": "http://loinc.org",
                      "display": "Chemistry studies (set)"
                    }
                  ],
                  "text": "Chemistry"
                },
                "entry": [
                  {
                    "reference": "urn:uuid:cff91136-c626-477a-abfd-045039ab88f3"
                  },
                  {
                    "reference": "urn:uuid:e43de013-cc27-4c81-a61b-45a2b985b977"
                  },
                  {
                    "reference": "urn:uuid:c5bd0d59-2bed-471a-9ad3-4ad0c872d0a6"
                  },
                  {
                    "reference": "urn:uuid:0cbabfbe-1c53-4cb3-9fc7-a5f2f88a6d56"
                  },
                  {
                    "reference": "urn:uuid:590b3533-a24d-4ef2-91de-b3051c3a8c68"
                  },
                  {
                    "reference": "urn:uuid:23385fbc-d69f-47d2-bc91-cec1a39a9fc5"
                  },
                  {
                    "reference": "urn:uuid:ce6efa56-18a8-468b-b3af-776efcf41782"
                  },
                  {
                    "reference": "urn:uuid:2ba05a01-0bfa-4e42-9dae-0382d14d5e83"
                  },
                  {
                    "reference": "urn:uuid:726d8d3e-846d-4474-a357-7ec15b966a00"
                  },
                  {
                    "reference": "urn:uuid:0a2fe88c-4b96-4aee-a432-641946642064"
                  },
                  {
                    "reference": "urn:uuid:f48784a9-a5ee-4d7e-87a6-1902e1b2c52f"
                  },
                  {
                    "reference": "urn:uuid:ce23f958-982b-4d09-bc9c-73d6541ff416"
                  },
                  {
                    "reference": "urn:uuid:4e33c5a0-9c7f-46af-813e-fc20d12679c0"
                  },
                  {
                    "reference": "urn:uuid:04dbebf4-25cc-48f8-95e1-0bccaa86df5a"
                  },
                  {
                    "reference": "urn:uuid:e99e8340-a6b7-415a-a2ec-4149dda72983"
                  },
                  {
                    "reference": "urn:uuid:c9dbe87f-50b2-4d90-a85c-135f95c41a48"
                  },
                  {
                    "reference": "urn:uuid:20aa939c-e616-475e-b538-337c0fe78afc"
                  },
                  {
                    "reference": "urn:uuid:636b9c0d-524e-44e3-bdff-c69fd6bfe9d2"
                  },
                  {
                    "reference": "urn:uuid:1af78048-307f-4852-b988-603bf5e4efd0"
                  }
                ],
                "text": {
                  "status": "generated",
                  "div": "<div xmlns=\"http://www.w3.org/1999/xhtml\"><h3>Chemistry</h3><table class=\"hl7__eu__lab__report\"><thead><tr><th>Test</th><th>13-DEC-2016</th><th>Reference&#xA0;Range</th><th>Unit</th></tr></thead><tbody><tr><td>Glucose [Mass/volume] in Blood</td><td>127.8</td><td>70 - 140</td><td>mg/dL</td></tr><tr><td>Urea nitrogen [Mass/volume] in Blood</td><td>10.1</td><td>7 - 25</td><td>mg/dL</td></tr><tr><td>Creatinine [Mass/volume] in Blood</td><td><strong>3.2 H</strong></td><td>0.6 - 1.3</td><td>mg/dL</td></tr><tr><td>Calcium [Mass/volume] in Blood</td><td>8.7</td><td>8.5 - 10.5</td><td>mg/dL</td></tr><tr><td>Sodium [Moles/volume] in Blood</td><td>137.2</td><td>135 - 145</td><td>mmol/L</td></tr><tr><td>Potassium [Moles/volume] in Blood</td><td>3.9</td><td>3.5 - 5.1</td><td>mmol/L</td></tr><tr><td>Chloride [Moles/volume] in Blood</td><td><strong>107.9 H</strong></td><td>98 - 107</td><td>mmol/L</td></tr><tr><td>Carbon dioxide, total [Moles/volume] in Blood</td><td><strong>21.3 L</strong></td><td>22 - 29</td><td>mmol/L</td></tr><tr><td>Protein [Mass/volume] in Serum or Plasma</td><td>7.0</td><td>6 - 8.3</td><td>g/dL</td></tr><tr><td>Albumin [Mass/volume] in Serum or Plasma</td><td>5.5</td><td>3.5 - 5.5</td><td>g/dL</td></tr><tr><td>Globulin [Mass/volume] in Serum by calculation</td><td>3.5</td><td>2 - 3.5</td><td>g/L</td></tr><tr><td>Bilirubin.total [Mass/volume] in Serum or Plasma</td><td>0.7</td><td>0.3 - 1.2</td><td>mg/dL</td></tr><tr><td>Alkaline phosphatase [Enzymatic activity/volume] in Serum or Plasma</td><td><strong>138.4 H</strong></td><td>40 - 117</td><td>U/L</td></tr><tr><td>Alanine aminotransferase [Enzymatic activity/volume] in Serum or Plasma</td><td>41.0</td><td>10 - 66</td><td>U/L</td></tr><tr><td>Aspartate aminotransferase [Enzymatic activity/volume] in Serum or Plasma</td><td>15.7</td><td>10 - 40</td><td>U/L</td></tr><tr><td>Cholesterol [Mass/volume] in Serum or Plasma</td><td>160.0</td><td>0 - 200</td><td>mg/dL</td></tr><tr><td>Triglyceride [Mass/volume] in Serum or Plasma</td><td>122.7</td><td>0 - 199</td><td>mg/dL</td></tr><tr><td>Cholesterol in LDL [Mass/volume] in Serum or Plasma by Direct assay</td><td>102.1</td><td>0 - 130</td><td>mg/dL</td></tr><tr><td>Cholesterol in HDL [Mass/volume] in Serum or Plasma</td><td>59.7</td><td>40 - 100</td><td>mg/dL</td></tr></tbody></table></div>"
                },
                "title": "Chemistry"
              }
            ],
            "title": "Laboratory Report"
          },
          {
            "text": {
              "status": "generated",
              "div": "<div xmlns=\"http://www.w3.org/1999/xhtml\"><h3>Annotation</h3><table class=\"hl7__eu__lab__report\"><tr><th>Conclusion and Recommendations based on this report and previous findings known to us</th></tr><tr><td>The patient shows significantly elevated creatinine, suggesting impaired renal function, and mild metabolic acidosis (low CO₂). Alkaline phosphatase is also elevated, which may indicate possible hepatobiliary or bone involvement. Other parameters, including glucose, electrolytes, liver enzymes, and lipid profile, are within normal limits. Renal function and possible causes for elevated alkaline phosphatase should be further evaluated clinically.</td></tr></table></div>"
            },
            "code": {
              "coding": [
                {
                  "system": "http://loinc.org",
                  "code": "48767-8",
                  "display": "Annotation comment"
                }
              ]
            },
            "title": "Annotation comment"
          }
        ],
        "status": "final",
        "subject": {
          "reference": "urn:uuid:9ab66b90-0923-4a22-95ca-525865732369",
          "display": "Timothy Smith"
        },
        "date": "2016-12-13T16:48:21Z",
        "title": "Laboratory Report",
        "confidentiality": "N"
      }
    },
    {
      "fullUrl": "urn:uuid:025b8811-73cd-4fee-bd7b-19d6adcb4fb8",
      "resource": {
        "resourceType": "DiagnosticReport",
        "id": "025b8811-73cd-4fee-bd7b-19d6adcb4fb8",
        "meta": {
          "profile": [
            "http://hl7.eu/fhir/laboratory/StructureDefinition/DiagnosticReport-eu-lab"
          ]
        },
        "identifier": [
          {
            "assigner": {
              "display": "HL7 Europe"
            },
            "system": "urn:oid:2.16.840.1.113883.2.51.999",
            "value": "7dac803c-03ce-494d-bebb-a37fab48e0b9"
          }
        ],
        "extension": [
          {
            "url": "http://hl7.org/fhir/5.0/StructureDefinition/extension-DiagnosticReport.composition",
            "valueReference": {
              "reference": "urn:uuid:f53b76ef-4e70-4b6c-9fc6-84673bd9b54d"
            }
          }
        ],
        "category": [
          {
            "coding": [
              {
                "code": "26436-6",
                "system": "http://loinc.org",
                "display": "Laboratory studies (set)"
              }
            ]
          }
        ],
        "specimen": [
          {
            "reference": "urn:uuid:20dbc76d-c239-4537-9715-30dd0d2a02b7"
          },
          {
            "reference": "urn:uuid:c3c65891-c410-4d59-bed9-a4c50fc981d2"
          },
          {
            "reference": "urn:uuid:7182323e-0235-4115-952c-35501340ac88"
          }
        ],
        "result": [
          {
            "reference": "urn:uuid:cff91136-c626-477a-abfd-045039ab88f3"
          },
          {
            "reference": "urn:uuid:e43de013-cc27-4c81-a61b-45a2b985b977"
          },
          {
            "reference": "urn:uuid:c5bd0d59-2bed-471a-9ad3-4ad0c872d0a6"
          },
          {
            "reference": "urn:uuid:0cbabfbe-1c53-4cb3-9fc7-a5f2f88a6d56"
          },
          {
            "reference": "urn:uuid:590b3533-a24d-4ef2-91de-b3051c3a8c68"
          },
          {
            "reference": "urn:uuid:23385fbc-d69f-47d2-bc91-cec1a39a9fc5"
          },
          {
            "reference": "urn:uuid:ce6efa56-18a8-468b-b3af-776efcf41782"
          },
          {
            "reference": "urn:uuid:2ba05a01-0bfa-4e42-9dae-0382d14d5e83"
          },
          {
            "reference": "urn:uuid:726d8d3e-846d-4474-a357-7ec15b966a00"
          },
          {
            "reference": "urn:uuid:0a2fe88c-4b96-4aee-a432-641946642064"
          },
          {
            "reference": "urn:uuid:f48784a9-a5ee-4d7e-87a6-1902e1b2c52f"
          },
          {
            "reference": "urn:uuid:ce23f958-982b-4d09-bc9c-73d6541ff416"
          },
          {
            "reference": "urn:uuid:4e33c5a0-9c7f-46af-813e-fc20d12679c0"
          },
          {
            "reference": "urn:uuid:04dbebf4-25cc-48f8-95e1-0bccaa86df5a"
          },
          {
            "reference": "urn:uuid:e99e8340-a6b7-415a-a2ec-4149dda72983"
          },
          {
            "reference": "urn:uuid:c9dbe87f-50b2-4d90-a85c-135f95c41a48"
          },
          {
            "reference": "urn:uuid:20aa939c-e616-475e-b538-337c0fe78afc"
          },
          {
            "reference": "urn:uuid:636b9c0d-524e-44e3-bdff-c69fd6bfe9d2"
          },
          {
            "reference": "urn:uuid:1af78048-307f-4852-b988-603bf5e4efd0"
          }
        ],
        "status": "registered",
        "code": {
          "coding": [
            {
              "code": "11502-2",
              "system": "http://loinc.org",
              "display": "Laboratory report"
            }
          ]
        },
        "subject": {
          "reference": "urn:uuid:9ab66b90-0923-4a22-95ca-525865732369",
          "display": "Timothy Smith"
        }
      }
    },
    {
      "fullUrl": "urn:uuid:9ab66b90-0923-4a22-95ca-525865732369",
      "resource": {
        "resourceType": "Patient",
        "id": "9ab66b90-0923-4a22-95ca-525865732369",
        "meta": {
          "security": [
            {
              "system": "http://terminology.hl7.org/CodeSystem/v3-ActReason",
              "code": "HTEST"
            },
            {
              "system": "http://terminology.hl7.org/CodeSystem/v3-ActReason",
              "code": "TRAIN"
            }
          ],
          "tag": [
            {
              "system": "https://synderai.net/fhir/CodeSystem/tags",
              "code": "synthetic",
              "display": "SYNDERAI Synthetic data"
            }
          ],
          "profile": [
            "http://hl7.eu/fhir/base/StructureDefinition/patient-eu-core"
          ]
        },
        "identifier": [
          {
            "type": {
              "coding": [
                {
                  "code": "PT",
                  "system": "http://terminology.hl7.org/CodeSystem/v2-0203"
                }
              ]
            },
            "system": "http://ec.europa.eu/identifier/eci",
            "value": "8029-862360-6"
          },
          {
            "type": {
              "coding": [
                {
                  "code": "MR",
                  "system": "http://terminology.hl7.org/CodeSystem/v2-0203"
                }
              ]
            },
            "system": "http://local.setting.eu/identifier",
            "value": "1fe71aa8-fb8e-4622-d398-65f6235c4fef"
          }
        ],
        "name": [
          {
            "family": "Smith"
          },
          {
            "given": [
              "Timothy"
            ]
          },
          {
            "text": "Timothy Smith"
          }
        ],
        "address": [
          {
            "line": [
              "9 Jeffrey orchard"
            ],
            "use": "home",
            "type": "physical",
            "postalCode": "NW1",
            "city": "North Joshuaville",
            "country": "United Kingdom"
          }
        ],
        "telecom": [
          {
            "system": "phone",
            "value": "+44(0)28 9018592"
          }
        ],
        "extension": [
          {
            "url": "http://hl7.org/fhir/StructureDefinition/patient-nationality",
            "valueCodeableConcept": {
              "coding": [
                {
                  "code": "GB",
                  "system": "http://hl7.org/fhir/ValueSet/country"
                }
              ]
            }
          }
        ],
        "text": {
          "status": "generated",
          "div": "<div xmlns=\"http://www.w3.org/1999/xhtml\"><table class=\"hl7__ips\"><tr><td>Timothy Smith</td><td>male</td><td>10-Sep-1941</td></tr></table></div>"
        },
        "gender": "male",
        "birthDate": "1941-09-10"
      }
    },
    {
      "fullUrl": "urn:uuid:bd623d5b-f9a6-447c-bb8f-defbe432f517",
      "resource": {
        "resourceType": "ServiceRequest",
        "id": "bd623d5b-f9a6-447c-bb8f-defbe432f517",
        "meta": {
          "profile": [
            "http://hl7.eu/fhir/laboratory/StructureDefinition/ServiceRequest-eu-lab"
          ]
        },
        "identifier": [
          {
            "system": "http://example.org",
            "value": "ced081b2-3770-4ec6-ba31-45992768508f"
          }
        ],
        "specimen": [
          {
            "reference": "urn:uuid:20dbc76d-c239-4537-9715-30dd0d2a02b7"
          },
          {
            "reference": "urn:uuid:c3c65891-c410-4d59-bed9-a4c50fc981d2"
          },
          {
            "reference": "urn:uuid:7182323e-0235-4115-952c-35501340ac88"
          }
        ],
        "reasonCode": [
          {
            "coding": [
              {
                "code": "88805009",
                "system": "http://snomed.info/sct",
                "display": "Chronic congestive heart failure"
              }
            ]
          },
          {
            "coding": [
              {
                "code": "60573004",
                "system": "http://snomed.info/sct",
                "display": "Aortic valve stenosis"
              }
            ]
          },
          {
            "coding": [
              {
                "code": "414545008",
                "system": "http://snomed.info/sct",
                "display": "Ischemic heart disease"
              }
            ]
          },
          {
            "coding": [
              {
                "code": "64859006",
                "system": "http://snomed.info/sct",
                "display": "Osteoporosis"
              }
            ]
          },
          {
            "coding": [
              {
                "code": "6525002",
                "system": "http://snomed.info/sct",
                "display": "Dependent drug abuse"
              }
            ]
          },
          {
            "coding": [
              {
                "code": "55822004",
                "system": "http://snomed.info/sct",
                "display": "Hyperlipidemia"
              }
            ]
          },
          {
            "coding": [
              {
                "code": "78275009",
                "system": "http://snomed.info/sct",
                "display": "Obstructive sleep apnea syndrome"
              }
            ]
          },
          {
            "coding": [
              {
                "code": "39898005",
                "system": "http://snomed.info/sct",
                "display": "Sleep disorder"
              }
            ]
          },
          {
            "coding": [
              {
                "code": "401314000",
                "system": "http://snomed.info/sct",
                "display": "Acute non-ST segment elevation myocardial infarction"
              }
            ]
          },
          {
            "coding": [
              {
                "code": "124171000119105",
                "system": "http://snomed.info/sct",
                "display": "Chronic intractable migraine without aura"
              }
            ]
          },
          {
            "coding": [
              {
                "code": "196416002",
                "system": "http://snomed.info/sct",
                "display": "Impacted molars"
              }
            ]
          },
          {
            "coding": [
              {
                "code": "59621000",
                "system": "http://snomed.info/sct",
                "display": "Essential hypertension"
              }
            ]
          },
          {
            "coding": [
              {
                "code": "80394007",
                "system": "http://snomed.info/sct",
                "display": "Hyperglycemia"
              }
            ]
          },
          {
            "coding": [
              {
                "code": "237602007",
                "system": "http://snomed.info/sct",
                "display": "Metabolic syndrome X"
              }
            ]
          },
          {
            "coding": [
              {
                "code": "302870006",
                "system": "http://snomed.info/sct",
                "display": "Hypertriglyceridemia"
              }
            ]
          },
          {
            "coding": [
              {
                "code": "44054006",
                "system": "http://snomed.info/sct",
                "display": "Type 2 diabetes mellitus"
              }
            ]
          },
          {
            "coding": [
              {
                "code": "271737000",
                "system": "http://snomed.info/sct",
                "display": "Anemia"
              }
            ]
          },
          {
            "coding": [
              {
                "code": "15777000",
                "system": "http://snomed.info/sct",
                "display": "Prediabetes"
              }
            ]
          }
        ],
        "status": "active",
        "intent": "order",
        "code": {
          "coding": [
            {
              "code": "108252007",
              "system": "http://snomed.info/sct",
              "display": "Laboratory procedure"
            }
          ]
        },
        "subject": {
          "reference": "urn:uuid:9ab66b90-0923-4a22-95ca-525865732369",
          "display": "Timothy Smith"
        },
        "requester": {
          "reference": "urn:uuid:8124e6ff-5315-4d2f-89f1-6963f790c3cf"
        }
      }
    },
    {
      "fullUrl": "urn:uuid:8124e6ff-5315-4d2f-89f1-6963f790c3cf",
      "resource": {
        "resourceType": "PractitionerRole",
        "id": "8124e6ff-5315-4d2f-89f1-6963f790c3cf",
        "meta": {
          "profile": [
            "http://hl7.eu/fhir/base/StructureDefinition/practitionerRole-eu"
          ]
        },
        "text": {
          "status": "generated",
          "div": "<div xmlns=\"http://www.w3.org/1999/xhtml\">Provider Role Id: 8124e6ff-5315-4d2f-89f1-6963f790c3cf</div>"
        },
        "organization": {
          "reference": "urn:uuid:5490ecc7-4fe9-4851-af47-17108160082b"
        }
      }
    },
    {
      "fullUrl": "urn:uuid:5490ecc7-4fe9-4851-af47-17108160082b",
      "resource": {
        "resourceType": "Organization",
        "id": "5490ecc7-4fe9-4851-af47-17108160082b",
        "meta": {
          "profile": [
            "http://hl7.eu/fhir/base/StructureDefinition/organization-eu"
          ]
        },
        "identifier": [
          {
            "assigner": {
              "display": "HL7 Europe"
            },
            "system": "urn:oid:2.16.840.1.113883.2.51.999",
            "value": "c55f87b9-acee-4237-ad9f-3bb2f218cc33"
          }
        ],
        "address": [
          {
            "city": "London",
            "postalCode": "SE1 7",
            "country": "United Kingdom"
          }
        ],
        "text": {
          "status": "generated",
          "div": "<div xmlns=\"http://www.w3.org/1999/xhtml\">Provider Organization: Evelina Children&#039;s Hospital</div>"
        },
        "name": "Evelina Children&#039;s Hospital"
      }
    },
    {
      "fullUrl": "urn:uuid:20dbc76d-c239-4537-9715-30dd0d2a02b7",
      "resource": {
        "resourceType": "Specimen",
        "id": "20dbc76d-c239-4537-9715-30dd0d2a02b7",
        "meta": {
          "profile": [
            "http://hl7.eu/fhir/laboratory/StructureDefinition/Specimen-eu-lab"
          ]
        },
        "collection": {
          "collectedDateTime": "2016-12-13"
        },
        "text": {
          "status": "generated",
          "div": "<div xmlns=\"http://www.w3.org/1999/xhtml\"><table class=\"hl7__eu__lab__report\"><tr><th>Specimen</th><th>Collection Date</th></tr><tr><td>Whole blood specimen (specimen)</td><td><span class=\"nb\">13-Dec-2016</span></td></tr></table></div>"
        },
        "type": {
          "coding": [
            {
              "code": "258580003",
              "system": "http://snomed.info/sct",
              "display": "Whole blood specimen (specimen)"
            }
          ]
        }
      }
    },
    {
      "fullUrl": "urn:uuid:c3c65891-c410-4d59-bed9-a4c50fc981d2",
      "resource": {
        "resourceType": "Specimen",
        "id": "c3c65891-c410-4d59-bed9-a4c50fc981d2",
        "meta": {
          "profile": [
            "http://hl7.eu/fhir/laboratory/StructureDefinition/Specimen-eu-lab"
          ]
        },
        "collection": {
          "collectedDateTime": "2016-12-13"
        },
        "text": {
          "status": "generated",
          "div": "<div xmlns=\"http://www.w3.org/1999/xhtml\"><table class=\"hl7__eu__lab__report\"><tr><th>Specimen</th><th>Collection Date</th></tr><tr><td>Acellular blood (serum or plasma) specimen</td><td><span class=\"nb\">13-Dec-2016</span></td></tr></table></div>"
        },
        "type": {
          "coding": [
            {
              "code": "122592007",
              "system": "http://snomed.info/sct",
              "display": "Acellular blood (serum or plasma) specimen"
            }
          ]
        }
      }
    },
    {
      "fullUrl": "urn:uuid:7182323e-0235-4115-952c-35501340ac88",
      "resource": {
        "resourceType": "Specimen",
        "id": "7182323e-0235-4115-952c-35501340ac88",
        "meta": {
          "profile": [
            "http://hl7.eu/fhir/laboratory/StructureDefinition/Specimen-eu-lab"
          ]
        },
        "collection": {
          "collectedDateTime": "2016-12-13"
        },
        "text": {
          "status": "generated",
          "div": "<div xmlns=\"http://www.w3.org/1999/xhtml\"><table class=\"hl7__eu__lab__report\"><tr><th>Specimen</th><th>Collection Date</th></tr><tr><td>Serum specimen</td><td><span class=\"nb\">13-Dec-2016</span></td></tr></table></div>"
        },
        "type": {
          "coding": [
            {
              "code": "119364003",
              "system": "http://snomed.info/sct",
              "display": "Serum specimen"
            }
          ]
        }
      }
    },
    {
      "fullUrl": "urn:uuid:cff91136-c626-477a-abfd-045039ab88f3",
      "resource": {
        "resourceType": "Observation",
        "id": "cff91136-c626-477a-abfd-045039ab88f3",
        "meta": {
          "profile": [
            "http://hl7.eu/fhir/laboratory/StructureDefinition/Observation-resultslab-eu-lab"
          ]
        },
        "performer": [
          {
            "display": "The Central European Lab"
          }
        ],
        "category": [
          {
            "coding": [
              {
                "system": "http://terminology.hl7.org/CodeSystem/observation-category",
                "code": "laboratory"
              }
            ]
          }
        ],
        "code": {
          "coding": [
            {
              "code": "2339-0",
              "system": "http://loinc.org",
              "display": "Glucose [Mass/volume] in Blood"
            }
          ],
          "text": "Glucose [Mass/volume] in Blood"
        },
        "valueQuantity": {
          "system": "http://unitsofmeasure.org",
          "value": 127.8,
          "unit": "mg/dL",
          "code": "mg/dL"
        },
        "referenceRange": [
          {
            "low": {
              "value": 70,
              "code": "mg/dL",
              "system": "http://unitsofmeasure.org"
            }
          },
          {
            "high": {
              "value": 140,
              "code": "mg/dL",
              "system": "http://unitsofmeasure.org"
            }
          }
        ],
        "text": {
          "status": "generated",
          "div": "<div xmlns=\"http://www.w3.org/1999/xhtml\"><table class=\"hl7__eu__lab__report\"><tr><th>Test</th><th>13-Dec-2016</th><th>Reference&#xA0;Range</th><th>Unit</th></tr><tr><td>Glucose [Mass/volume] in Blood</td><td>127.8</td><td>70 - 140</td><td></td><td>mg/dL</td></tr></table></div>"
        },
        "status": "final",
        "subject": {
          "reference": "urn:uuid:9ab66b90-0923-4a22-95ca-525865732369",
          "display": "Timothy Smith"
        },
        "effectiveDateTime": "2016-12-13T15:48:21Z",
        "specimen": {
          "reference": "urn:uuid:20dbc76d-c239-4537-9715-30dd0d2a02b7"
        }
      }
    },
    {
      "fullUrl": "urn:uuid:e43de013-cc27-4c81-a61b-45a2b985b977",
      "resource": {
        "resourceType": "Observation",
        "id": "e43de013-cc27-4c81-a61b-45a2b985b977",
        "meta": {
          "profile": [
            "http://hl7.eu/fhir/laboratory/StructureDefinition/Observation-resultslab-eu-lab"
          ]
        },
        "performer": [
          {
            "display": "The Central European Lab"
          }
        ],
        "category": [
          {
            "coding": [
              {
                "system": "http://terminology.hl7.org/CodeSystem/observation-category",
                "code": "laboratory"
              }
            ]
          }
        ],
        "code": {
          "coding": [
            {
              "code": "6299-2",
              "system": "http://loinc.org",
              "display": "Urea nitrogen [Mass/volume] in Blood"
            }
          ],
          "text": "Urea nitrogen [Mass/volume] in Blood"
        },
        "valueQuantity": {
          "system": "http://unitsofmeasure.org",
          "value": 10.1,
          "unit": "mg/dL",
          "code": "mg/dL"
        },
        "referenceRange": [
          {
            "low": {
              "value": 7,
              "code": "mg/dL",
              "system": "http://unitsofmeasure.org"
            }
          },
          {
            "high": {
              "value": 25,
              "code": "mg/dL",
              "system": "http://unitsofmeasure.org"
            }
          }
        ],
        "text": {
          "status": "generated",
          "div": "<div xmlns=\"http://www.w3.org/1999/xhtml\"><table class=\"hl7__eu__lab__report\"><tr><th>Test</th><th>13-Dec-2016</th><th>Reference&#xA0;Range</th><th>Unit</th></tr><tr><td>Urea nitrogen [Mass/volume] in Blood</td><td>10.1</td><td>7 - 25</td><td></td><td>mg/dL</td></tr></table></div>"
        },
        "status": "final",
        "subject": {
          "reference": "urn:uuid:9ab66b90-0923-4a22-95ca-525865732369",
          "display": "Timothy Smith"
        },
        "effectiveDateTime": "2016-12-13T15:48:21Z",
        "specimen": {
          "reference": "urn:uuid:20dbc76d-c239-4537-9715-30dd0d2a02b7"
        }
      }
    },
    {
      "fullUrl": "urn:uuid:c5bd0d59-2bed-471a-9ad3-4ad0c872d0a6",
      "resource": {
        "resourceType": "Observation",
        "id": "c5bd0d59-2bed-471a-9ad3-4ad0c872d0a6",
        "meta": {
          "profile": [
            "http://hl7.eu/fhir/laboratory/StructureDefinition/Observation-resultslab-eu-lab"
          ]
        },
        "performer": [
          {
            "display": "The Central European Lab"
          }
        ],
        "category": [
          {
            "coding": [
              {
                "system": "http://terminology.hl7.org/CodeSystem/observation-category",
                "code": "laboratory"
              }
            ]
          }
        ],
        "code": {
          "coding": [
            {
              "code": "38483-4",
              "system": "http://loinc.org",
              "display": "Creatinine [Mass/volume] in Blood"
            }
          ],
          "text": "Creatinine [Mass/volume] in Blood"
        },
        "valueQuantity": {
          "system": "http://unitsofmeasure.org",
          "value": 3.2,
          "unit": "mg/dL",
          "code": "mg/dL"
        },
        "referenceRange": [
          {
            "low": {
              "value": 0.6,
              "code": "mg/dL",
              "system": "http://unitsofmeasure.org"
            }
          },
          {
            "high": {
              "value": 1.3,
              "code": "mg/dL",
              "system": "http://unitsofmeasure.org"
            }
          }
        ],
        "interpretation": [
          {
            "coding": [
              {
                "code": "H",
                "system": "http://terminology.hl7.org/CodeSystem/v3-ObservationInterpretation",
                "display": "High"
              }
            ]
          }
        ],
        "text": {
          "status": "generated",
          "div": "<div xmlns=\"http://www.w3.org/1999/xhtml\"><table class=\"hl7__eu__lab__report\"><tr><th>Test</th><th>13-Dec-2016</th><th>Reference&#xA0;Range</th><th>Unit</th></tr><tr><td>Creatinine [Mass/volume] in Blood</td><td>3.2</td><td>0.6 - 1.3</td><td>H</td><td>mg/dL</td></tr></table></div>"
        },
        "status": "final",
        "subject": {
          "reference": "urn:uuid:9ab66b90-0923-4a22-95ca-525865732369",
          "display": "Timothy Smith"
        },
        "effectiveDateTime": "2016-12-13T15:48:21Z",
        "specimen": {
          "reference": "urn:uuid:20dbc76d-c239-4537-9715-30dd0d2a02b7"
        }
      }
    },
    {
      "fullUrl": "urn:uuid:0cbabfbe-1c53-4cb3-9fc7-a5f2f88a6d56",
      "resource": {
        "resourceType": "Observation",
        "id": "0cbabfbe-1c53-4cb3-9fc7-a5f2f88a6d56",
        "meta": {
          "profile": [
            "http://hl7.eu/fhir/laboratory/StructureDefinition/Observation-resultslab-eu-lab"
          ]
        },
        "performer": [
          {
            "display": "The Central European Lab"
          }
        ],
        "category": [
          {
            "coding": [
              {
                "system": "http://terminology.hl7.org/CodeSystem/observation-category",
                "code": "laboratory"
              }
            ]
          }
        ],
        "code": {
          "coding": [
            {
              "code": "49765-1",
              "system": "http://loinc.org",
              "display": "Calcium [Mass/volume] in Blood"
            }
          ],
          "text": "Calcium [Mass/volume] in Blood"
        },
        "valueQuantity": {
          "system": "http://unitsofmeasure.org",
          "value": 8.7,
          "unit": "mg/dL",
          "code": "mg/dL"
        },
        "referenceRange": [
          {
            "low": {
              "value": 8.5,
              "code": "mg/dL",
              "system": "http://unitsofmeasure.org"
            }
          },
          {
            "high": {
              "value": 10.5,
              "code": "mg/dL",
              "system": "http://unitsofmeasure.org"
            }
          }
        ],
        "text": {
          "status": "generated",
          "div": "<div xmlns=\"http://www.w3.org/1999/xhtml\"><table class=\"hl7__eu__lab__report\"><tr><th>Test</th><th>13-Dec-2016</th><th>Reference&#xA0;Range</th><th>Unit</th></tr><tr><td>Calcium [Mass/volume] in Blood</td><td>8.7</td><td>8.5 - 10.5</td><td></td><td>mg/dL</td></tr></table></div>"
        },
        "status": "final",
        "subject": {
          "reference": "urn:uuid:9ab66b90-0923-4a22-95ca-525865732369",
          "display": "Timothy Smith"
        },
        "effectiveDateTime": "2016-12-13T15:48:21Z",
        "specimen": {
          "reference": "urn:uuid:20dbc76d-c239-4537-9715-30dd0d2a02b7"
        }
      }
    },
    {
      "fullUrl": "urn:uuid:590b3533-a24d-4ef2-91de-b3051c3a8c68",
      "resource": {
        "resourceType": "Observation",
        "id": "590b3533-a24d-4ef2-91de-b3051c3a8c68",
        "meta": {
          "profile": [
            "http://hl7.eu/fhir/laboratory/StructureDefinition/Observation-resultslab-eu-lab"
          ]
        },
        "performer": [
          {
            "display": "The Central European Lab"
          }
        ],
        "category": [
          {
            "coding": [
              {
                "system": "http://terminology.hl7.org/CodeSystem/observation-category",
                "code": "laboratory"
              }
            ]
          }
        ],
        "code": {
          "coding": [
            {
              "code": "2947-0",
              "system": "http://loinc.org",
              "display": "Sodium [Moles/volume] in Blood"
            }
          ],
          "text": "Sodium [Moles/volume] in Blood"
        },
        "valueQuantity": {
          "system": "http://unitsofmeasure.org",
          "value": 137.2,
          "unit": "mmol/L",
          "code": "mmol/L"
        },
        "referenceRange": [
          {
            "low": {
              "value": 135,
              "code": "mmol/L",
              "system": "http://unitsofmeasure.org"
            }
          },
          {
            "high": {
              "value": 145,
              "code": "mmol/L",
              "system": "http://unitsofmeasure.org"
            }
          }
        ],
        "text": {
          "status": "generated",
          "div": "<div xmlns=\"http://www.w3.org/1999/xhtml\"><table class=\"hl7__eu__lab__report\"><tr><th>Test</th><th>13-Dec-2016</th><th>Reference&#xA0;Range</th><th>Unit</th></tr><tr><td>Sodium [Moles/volume] in Blood</td><td>137.2</td><td>135 - 145</td><td></td><td>mmol/L</td></tr></table></div>"
        },
        "status": "final",
        "subject": {
          "reference": "urn:uuid:9ab66b90-0923-4a22-95ca-525865732369",
          "display": "Timothy Smith"
        },
        "effectiveDateTime": "2016-12-13T15:48:21Z",
        "specimen": {
          "reference": "urn:uuid:20dbc76d-c239-4537-9715-30dd0d2a02b7"
        }
      }
    },
    {
      "fullUrl": "urn:uuid:23385fbc-d69f-47d2-bc91-cec1a39a9fc5",
      "resource": {
        "resourceType": "Observation",
        "id": "23385fbc-d69f-47d2-bc91-cec1a39a9fc5",
        "meta": {
          "profile": [
            "http://hl7.eu/fhir/laboratory/StructureDefinition/Observation-resultslab-eu-lab"
          ]
        },
        "performer": [
          {
            "display": "The Central European Lab"
          }
        ],
        "category": [
          {
            "coding": [
              {
                "system": "http://terminology.hl7.org/CodeSystem/observation-category",
                "code": "laboratory"
              }
            ]
          }
        ],
        "code": {
          "coding": [
            {
              "code": "6298-4",
              "system": "http://loinc.org",
              "display": "Potassium [Moles/volume] in Blood"
            }
          ],
          "text": "Potassium [Moles/volume] in Blood"
        },
        "valueQuantity": {
          "system": "http://unitsofmeasure.org",
          "value": 3.9,
          "unit": "mmol/L",
          "code": "mmol/L"
        },
        "referenceRange": [
          {
            "low": {
              "value": 3.5,
              "code": "mmol/L",
              "system": "http://unitsofmeasure.org"
            }
          },
          {
            "high": {
              "value": 5.1,
              "code": "mmol/L",
              "system": "http://unitsofmeasure.org"
            }
          }
        ],
        "text": {
          "status": "generated",
          "div": "<div xmlns=\"http://www.w3.org/1999/xhtml\"><table class=\"hl7__eu__lab__report\"><tr><th>Test</th><th>13-Dec-2016</th><th>Reference&#xA0;Range</th><th>Unit</th></tr><tr><td>Potassium [Moles/volume] in Blood</td><td>3.9</td><td>3.5 - 5.1</td><td></td><td>mmol/L</td></tr></table></div>"
        },
        "status": "final",
        "subject": {
          "reference": "urn:uuid:9ab66b90-0923-4a22-95ca-525865732369",
          "display": "Timothy Smith"
        },
        "effectiveDateTime": "2016-12-13T15:48:21Z",
        "specimen": {
          "reference": "urn:uuid:20dbc76d-c239-4537-9715-30dd0d2a02b7"
        }
      }
    },
    {
      "fullUrl": "urn:uuid:ce6efa56-18a8-468b-b3af-776efcf41782",
      "resource": {
        "resourceType": "Observation",
        "id": "ce6efa56-18a8-468b-b3af-776efcf41782",
        "meta": {
          "profile": [
            "http://hl7.eu/fhir/laboratory/StructureDefinition/Observation-resultslab-eu-lab"
          ]
        },
        "performer": [
          {
            "display": "The Central European Lab"
          }
        ],
        "category": [
          {
            "coding": [
              {
                "system": "http://terminology.hl7.org/CodeSystem/observation-category",
                "code": "laboratory"
              }
            ]
          }
        ],
        "code": {
          "coding": [
            {
              "code": "2069-3",
              "system": "http://loinc.org",
              "display": "Chloride [Moles/volume] in Blood"
            }
          ],
          "text": "Chloride [Moles/volume] in Blood"
        },
        "valueQuantity": {
          "system": "http://unitsofmeasure.org",
          "value": 107.9,
          "unit": "mmol/L",
          "code": "mmol/L"
        },
        "referenceRange": [
          {
            "low": {
              "value": 98,
              "code": "mmol/L",
              "system": "http://unitsofmeasure.org"
            }
          },
          {
            "high": {
              "value": 107,
              "code": "mmol/L",
              "system": "http://unitsofmeasure.org"
            }
          }
        ],
        "interpretation": [
          {
            "coding": [
              {
                "code": "H",
                "system": "http://terminology.hl7.org/CodeSystem/v3-ObservationInterpretation",
                "display": "High"
              }
            ]
          }
        ],
        "text": {
          "status": "generated",
          "div": "<div xmlns=\"http://www.w3.org/1999/xhtml\"><table class=\"hl7__eu__lab__report\"><tr><th>Test</th><th>13-Dec-2016</th><th>Reference&#xA0;Range</th><th>Unit</th></tr><tr><td>Chloride [Moles/volume] in Blood</td><td>107.9</td><td>98 - 107</td><td>H</td><td>mmol/L</td></tr></table></div>"
        },
        "status": "final",
        "subject": {
          "reference": "urn:uuid:9ab66b90-0923-4a22-95ca-525865732369",
          "display": "Timothy Smith"
        },
        "effectiveDateTime": "2016-12-13T15:48:21Z",
        "specimen": {
          "reference": "urn:uuid:20dbc76d-c239-4537-9715-30dd0d2a02b7"
        }
      }
    },
    {
      "fullUrl": "urn:uuid:2ba05a01-0bfa-4e42-9dae-0382d14d5e83",
      "resource": {
        "resourceType": "Observation",
        "id": "2ba05a01-0bfa-4e42-9dae-0382d14d5e83",
        "meta": {
          "profile": [
            "http://hl7.eu/fhir/laboratory/StructureDefinition/Observation-resultslab-eu-lab"
          ]
        },
        "performer": [
          {
            "display": "The Central European Lab"
          }
        ],
        "category": [
          {
            "coding": [
              {
                "system": "http://terminology.hl7.org/CodeSystem/observation-category",
                "code": "laboratory"
              }
            ]
          }
        ],
        "code": {
          "coding": [
            {
              "code": "20565-8",
              "system": "http://loinc.org",
              "display": "Carbon dioxide, total [Moles/volume] in Blood"
            }
          ],
          "text": "Carbon dioxide, total [Moles/volume] in Blood"
        },
        "valueQuantity": {
          "system": "http://unitsofmeasure.org",
          "value": 21.3,
          "unit": "mmol/L",
          "code": "mmol/L"
        },
        "referenceRange": [
          {
            "low": {
              "value": 22,
              "code": "mmol/L",
              "system": "http://unitsofmeasure.org"
            }
          },
          {
            "high": {
              "value": 29,
              "code": "mmol/L",
              "system": "http://unitsofmeasure.org"
            }
          }
        ],
        "interpretation": [
          {
            "coding": [
              {
                "code": "L",
                "system": "http://terminology.hl7.org/CodeSystem/v3-ObservationInterpretation",
                "display": "Low"
              }
            ]
          }
        ],
        "text": {
          "status": "generated",
          "div": "<div xmlns=\"http://www.w3.org/1999/xhtml\"><table class=\"hl7__eu__lab__report\"><tr><th>Test</th><th>13-Dec-2016</th><th>Reference&#xA0;Range</th><th>Unit</th></tr><tr><td>Carbon dioxide, total [Moles/volume] in Blood</td><td>21.3</td><td>22 - 29</td><td>L</td><td>mmol/L</td></tr></table></div>"
        },
        "status": "final",
        "subject": {
          "reference": "urn:uuid:9ab66b90-0923-4a22-95ca-525865732369",
          "display": "Timothy Smith"
        },
        "effectiveDateTime": "2016-12-13T15:48:21Z",
        "specimen": {
          "reference": "urn:uuid:20dbc76d-c239-4537-9715-30dd0d2a02b7"
        }
      }
    },
    {
      "fullUrl": "urn:uuid:726d8d3e-846d-4474-a357-7ec15b966a00",
      "resource": {
        "resourceType": "Observation",
        "id": "726d8d3e-846d-4474-a357-7ec15b966a00",
        "meta": {
          "profile": [
            "http://hl7.eu/fhir/laboratory/StructureDefinition/Observation-resultslab-eu-lab"
          ]
        },
        "performer": [
          {
            "display": "The Central European Lab"
          }
        ],
        "category": [
          {
            "coding": [
              {
                "system": "http://terminology.hl7.org/CodeSystem/observation-category",
                "code": "laboratory"
              }
            ]
          }
        ],
        "code": {
          "coding": [
            {
              "code": "2885-2",
              "system": "http://loinc.org",
              "display": "Protein [Mass/volume] in Serum or Plasma"
            }
          ],
          "text": "Protein [Mass/volume] in Serum or Plasma"
        },
        "valueQuantity": {
          "system": "http://unitsofmeasure.org",
          "value": 7,
          "unit": "g/dL",
          "code": "g/dL"
        },
        "referenceRange": [
          {
            "low": {
              "value": 6,
              "code": "g/dL",
              "system": "http://unitsofmeasure.org"
            }
          },
          {
            "high": {
              "value": 8.3,
              "code": "g/dL",
              "system": "http://unitsofmeasure.org"
            }
          }
        ],
        "text": {
          "status": "generated",
          "div": "<div xmlns=\"http://www.w3.org/1999/xhtml\"><table class=\"hl7__eu__lab__report\"><tr><th>Test</th><th>13-Dec-2016</th><th>Reference&#xA0;Range</th><th>Unit</th></tr><tr><td>Protein [Mass/volume] in Serum or Plasma</td><td>7.0</td><td>6 - 8.3</td><td></td><td>g/dL</td></tr></table></div>"
        },
        "status": "final",
        "subject": {
          "reference": "urn:uuid:9ab66b90-0923-4a22-95ca-525865732369",
          "display": "Timothy Smith"
        },
        "effectiveDateTime": "2016-12-13T15:48:21Z",
        "specimen": {
          "reference": "urn:uuid:c3c65891-c410-4d59-bed9-a4c50fc981d2"
        }
      }
    },
    {
      "fullUrl": "urn:uuid:0a2fe88c-4b96-4aee-a432-641946642064",
      "resource": {
        "resourceType": "Observation",
        "id": "0a2fe88c-4b96-4aee-a432-641946642064",
        "meta": {
          "profile": [
            "http://hl7.eu/fhir/laboratory/StructureDefinition/Observation-resultslab-eu-lab"
          ]
        },
        "performer": [
          {
            "display": "The Central European Lab"
          }
        ],
        "category": [
          {
            "coding": [
              {
                "system": "http://terminology.hl7.org/CodeSystem/observation-category",
                "code": "laboratory"
              }
            ]
          }
        ],
        "code": {
          "coding": [
            {
              "code": "1751-7",
              "system": "http://loinc.org",
              "display": "Albumin [Mass/volume] in Serum or Plasma"
            }
          ],
          "text": "Albumin [Mass/volume] in Serum or Plasma"
        },
        "valueQuantity": {
          "system": "http://unitsofmeasure.org",
          "value": 5.5,
          "unit": "g/dL",
          "code": "g/dL"
        },
        "referenceRange": [
          {
            "low": {
              "value": 3.5,
              "code": "g/dL",
              "system": "http://unitsofmeasure.org"
            }
          },
          {
            "high": {
              "value": 5.5,
              "code": "g/dL",
              "system": "http://unitsofmeasure.org"
            }
          }
        ],
        "text": {
          "status": "generated",
          "div": "<div xmlns=\"http://www.w3.org/1999/xhtml\"><table class=\"hl7__eu__lab__report\"><tr><th>Test</th><th>13-Dec-2016</th><th>Reference&#xA0;Range</th><th>Unit</th></tr><tr><td>Albumin [Mass/volume] in Serum or Plasma</td><td>5.5</td><td>3.5 - 5.5</td><td></td><td>g/dL</td></tr></table></div>"
        },
        "status": "final",
        "subject": {
          "reference": "urn:uuid:9ab66b90-0923-4a22-95ca-525865732369",
          "display": "Timothy Smith"
        },
        "effectiveDateTime": "2016-12-13T15:48:21Z",
        "specimen": {
          "reference": "urn:uuid:c3c65891-c410-4d59-bed9-a4c50fc981d2"
        }
      }
    },
    {
      "fullUrl": "urn:uuid:f48784a9-a5ee-4d7e-87a6-1902e1b2c52f",
      "resource": {
        "resourceType": "Observation",
        "id": "f48784a9-a5ee-4d7e-87a6-1902e1b2c52f",
        "meta": {
          "profile": [
            "http://hl7.eu/fhir/laboratory/StructureDefinition/Observation-resultslab-eu-lab"
          ]
        },
        "performer": [
          {
            "display": "The Central European Lab"
          }
        ],
        "category": [
          {
            "coding": [
              {
                "system": "http://terminology.hl7.org/CodeSystem/observation-category",
                "code": "laboratory"
              }
            ]
          }
        ],
        "code": {
          "coding": [
            {
              "code": "10834-0",
              "system": "http://loinc.org",
              "display": "Globulin [Mass/volume] in Serum by calculation"
            }
          ],
          "text": "Globulin [Mass/volume] in Serum by calculation"
        },
        "valueQuantity": {
          "system": "http://unitsofmeasure.org",
          "value": 3.5,
          "unit": "g/L",
          "code": "g/L"
        },
        "referenceRange": [
          {
            "low": {
              "value": 2,
              "code": "g/L",
              "system": "http://unitsofmeasure.org"
            }
          },
          {
            "high": {
              "value": 3.5,
              "code": "g/L",
              "system": "http://unitsofmeasure.org"
            }
          }
        ],
        "text": {
          "status": "generated",
          "div": "<div xmlns=\"http://www.w3.org/1999/xhtml\"><table class=\"hl7__eu__lab__report\"><tr><th>Test</th><th>13-Dec-2016</th><th>Reference&#xA0;Range</th><th>Unit</th></tr><tr><td>Globulin [Mass/volume] in Serum by calculation</td><td>3.5</td><td>2 - 3.5</td><td></td><td>g/L</td></tr></table></div>"
        },
        "status": "final",
        "subject": {
          "reference": "urn:uuid:9ab66b90-0923-4a22-95ca-525865732369",
          "display": "Timothy Smith"
        },
        "effectiveDateTime": "2016-12-13T15:48:21Z",
        "specimen": {
          "reference": "urn:uuid:7182323e-0235-4115-952c-35501340ac88"
        }
      }
    },
    {
      "fullUrl": "urn:uuid:ce23f958-982b-4d09-bc9c-73d6541ff416",
      "resource": {
        "resourceType": "Observation",
        "id": "ce23f958-982b-4d09-bc9c-73d6541ff416",
        "meta": {
          "profile": [
            "http://hl7.eu/fhir/laboratory/StructureDefinition/Observation-resultslab-eu-lab"
          ]
        },
        "performer": [
          {
            "display": "The Central European Lab"
          }
        ],
        "category": [
          {
            "coding": [
              {
                "system": "http://terminology.hl7.org/CodeSystem/observation-category",
                "code": "laboratory"
              }
            ]
          }
        ],
        "code": {
          "coding": [
            {
              "code": "1975-2",
              "system": "http://loinc.org",
              "display": "Bilirubin.total [Mass/volume] in Serum or Plasma"
            }
          ],
          "text": "Bilirubin.total [Mass/volume] in Serum or Plasma"
        },
        "valueQuantity": {
          "system": "http://unitsofmeasure.org",
          "value": 0.7,
          "unit": "mg/dL",
          "code": "mg/dL"
        },
        "referenceRange": [
          {
            "low": {
              "value": 0.3,
              "code": "mg/dL",
              "system": "http://unitsofmeasure.org"
            }
          },
          {
            "high": {
              "value": 1.2,
              "code": "mg/dL",
              "system": "http://unitsofmeasure.org"
            }
          }
        ],
        "text": {
          "status": "generated",
          "div": "<div xmlns=\"http://www.w3.org/1999/xhtml\"><table class=\"hl7__eu__lab__report\"><tr><th>Test</th><th>13-Dec-2016</th><th>Reference&#xA0;Range</th><th>Unit</th></tr><tr><td>Bilirubin.total [Mass/volume] in Serum or Plasma</td><td>0.7</td><td>0.3 - 1.2</td><td></td><td>mg/dL</td></tr></table></div>"
        },
        "status": "final",
        "subject": {
          "reference": "urn:uuid:9ab66b90-0923-4a22-95ca-525865732369",
          "display": "Timothy Smith"
        },
        "effectiveDateTime": "2016-12-13T15:48:21Z",
        "specimen": {
          "reference": "urn:uuid:c3c65891-c410-4d59-bed9-a4c50fc981d2"
        }
      }
    },
    {
      "fullUrl": "urn:uuid:4e33c5a0-9c7f-46af-813e-fc20d12679c0",
      "resource": {
        "resourceType": "Observation",
        "id": "4e33c5a0-9c7f-46af-813e-fc20d12679c0",
        "meta": {
          "profile": [
            "http://hl7.eu/fhir/laboratory/StructureDefinition/Observation-resultslab-eu-lab"
          ]
        },
        "performer": [
          {
            "display": "The Central European Lab"
          }
        ],
        "category": [
          {
            "coding": [
              {
                "system": "http://terminology.hl7.org/CodeSystem/observation-category",
                "code": "laboratory"
              }
            ]
          }
        ],
        "code": {
          "coding": [
            {
              "code": "6768-6",
              "system": "http://loinc.org",
              "display": "Alkaline phosphatase [Enzymatic activity/volume] in Serum or Plasma"
            }
          ],
          "text": "Alkaline phosphatase [Enzymatic activity/volume] in Serum or Plasma"
        },
        "valueQuantity": {
          "system": "http://unitsofmeasure.org",
          "value": 138.4,
          "unit": "U/L",
          "code": "U/L"
        },
        "referenceRange": [
          {
            "low": {
              "value": 40,
              "code": "U/L",
              "system": "http://unitsofmeasure.org"
            }
          },
          {
            "high": {
              "value": 117,
              "code": "U/L",
              "system": "http://unitsofmeasure.org"
            }
          }
        ],
        "interpretation": [
          {
            "coding": [
              {
                "code": "H",
                "system": "http://terminology.hl7.org/CodeSystem/v3-ObservationInterpretation",
                "display": "High"
              }
            ]
          }
        ],
        "text": {
          "status": "generated",
          "div": "<div xmlns=\"http://www.w3.org/1999/xhtml\"><table class=\"hl7__eu__lab__report\"><tr><th>Test</th><th>13-Dec-2016</th><th>Reference&#xA0;Range</th><th>Unit</th></tr><tr><td>Alkaline phosphatase [Enzymatic activity/volume] in Serum or Plasma</td><td>138.4</td><td>40 - 117</td><td>H</td><td>U/L</td></tr></table></div>"
        },
        "status": "final",
        "subject": {
          "reference": "urn:uuid:9ab66b90-0923-4a22-95ca-525865732369",
          "display": "Timothy Smith"
        },
        "effectiveDateTime": "2016-12-13T15:48:21Z",
        "specimen": {
          "reference": "urn:uuid:c3c65891-c410-4d59-bed9-a4c50fc981d2"
        }
      }
    },
    {
      "fullUrl": "urn:uuid:04dbebf4-25cc-48f8-95e1-0bccaa86df5a",
      "resource": {
        "resourceType": "Observation",
        "id": "04dbebf4-25cc-48f8-95e1-0bccaa86df5a",
        "meta": {
          "profile": [
            "http://hl7.eu/fhir/laboratory/StructureDefinition/Observation-resultslab-eu-lab"
          ]
        },
        "performer": [
          {
            "display": "The Central European Lab"
          }
        ],
        "category": [
          {
            "coding": [
              {
                "system": "http://terminology.hl7.org/CodeSystem/observation-category",
                "code": "laboratory"
              }
            ]
          }
        ],
        "code": {
          "coding": [
            {
              "code": "1742-6",
              "system": "http://loinc.org",
              "display": "Alanine aminotransferase [Enzymatic activity/volume] in Serum or Plasma"
            }
          ],
          "text": "Alanine aminotransferase [Enzymatic activity/volume] in Serum or Plasma"
        },
        "valueQuantity": {
          "system": "http://unitsofmeasure.org",
          "value": 41,
          "unit": "U/L",
          "code": "U/L"
        },
        "referenceRange": [
          {
            "low": {
              "value": 10,
              "code": "U/L",
              "system": "http://unitsofmeasure.org"
            }
          },
          {
            "high": {
              "value": 66,
              "code": "U/L",
              "system": "http://unitsofmeasure.org"
            }
          }
        ],
        "text": {
          "status": "generated",
          "div": "<div xmlns=\"http://www.w3.org/1999/xhtml\"><table class=\"hl7__eu__lab__report\"><tr><th>Test</th><th>13-Dec-2016</th><th>Reference&#xA0;Range</th><th>Unit</th></tr><tr><td>Alanine aminotransferase [Enzymatic activity/volume] in Serum or Plasma</td><td>41.0</td><td>10 - 66</td><td></td><td>U/L</td></tr></table></div>"
        },
        "status": "final",
        "subject": {
          "reference": "urn:uuid:9ab66b90-0923-4a22-95ca-525865732369",
          "display": "Timothy Smith"
        },
        "effectiveDateTime": "2016-12-13T15:48:21Z",
        "specimen": {
          "reference": "urn:uuid:c3c65891-c410-4d59-bed9-a4c50fc981d2"
        }
      }
    },
    {
      "fullUrl": "urn:uuid:e99e8340-a6b7-415a-a2ec-4149dda72983",
      "resource": {
        "resourceType": "Observation",
        "id": "e99e8340-a6b7-415a-a2ec-4149dda72983",
        "meta": {
          "profile": [
            "http://hl7.eu/fhir/laboratory/StructureDefinition/Observation-resultslab-eu-lab"
          ]
        },
        "performer": [
          {
            "display": "The Central European Lab"
          }
        ],
        "category": [
          {
            "coding": [
              {
                "system": "http://terminology.hl7.org/CodeSystem/observation-category",
                "code": "laboratory"
              }
            ]
          }
        ],
        "code": {
          "coding": [
            {
              "code": "1920-8",
              "system": "http://loinc.org",
              "display": "Aspartate aminotransferase [Enzymatic activity/volume] in Serum or Plasma"
            }
          ],
          "text": "Aspartate aminotransferase [Enzymatic activity/volume] in Serum or Plasma"
        },
        "valueQuantity": {
          "system": "http://unitsofmeasure.org",
          "value": 15.7,
          "unit": "U/L",
          "code": "U/L"
        },
        "referenceRange": [
          {
            "low": {
              "value": 10,
              "code": "U/L",
              "system": "http://unitsofmeasure.org"
            }
          },
          {
            "high": {
              "value": 40,
              "code": "U/L",
              "system": "http://unitsofmeasure.org"
            }
          }
        ],
        "text": {
          "status": "generated",
          "div": "<div xmlns=\"http://www.w3.org/1999/xhtml\"><table class=\"hl7__eu__lab__report\"><tr><th>Test</th><th>13-Dec-2016</th><th>Reference&#xA0;Range</th><th>Unit</th></tr><tr><td>Aspartate aminotransferase [Enzymatic activity/volume] in Serum or Plasma</td><td>15.7</td><td>10 - 40</td><td></td><td>U/L</td></tr></table></div>"
        },
        "status": "final",
        "subject": {
          "reference": "urn:uuid:9ab66b90-0923-4a22-95ca-525865732369",
          "display": "Timothy Smith"
        },
        "effectiveDateTime": "2016-12-13T15:48:21Z",
        "specimen": {
          "reference": "urn:uuid:c3c65891-c410-4d59-bed9-a4c50fc981d2"
        }
      }
    },
    {
      "fullUrl": "urn:uuid:c9dbe87f-50b2-4d90-a85c-135f95c41a48",
      "resource": {
        "resourceType": "Observation",
        "id": "c9dbe87f-50b2-4d90-a85c-135f95c41a48",
        "meta": {
          "profile": [
            "http://hl7.eu/fhir/laboratory/StructureDefinition/Observation-resultslab-eu-lab"
          ]
        },
        "performer": [
          {
            "display": "The Central European Lab"
          }
        ],
        "category": [
          {
            "coding": [
              {
                "system": "http://terminology.hl7.org/CodeSystem/observation-category",
                "code": "laboratory"
              }
            ]
          }
        ],
        "code": {
          "coding": [
            {
              "code": "2093-3",
              "system": "http://loinc.org",
              "display": "Cholesterol [Mass/volume] in Serum or Plasma"
            }
          ],
          "text": "Cholesterol [Mass/volume] in Serum or Plasma"
        },
        "valueQuantity": {
          "system": "http://unitsofmeasure.org",
          "value": 160,
          "unit": "mg/dL",
          "code": "mg/dL"
        },
        "referenceRange": [
          {
            "low": {
              "value": 0,
              "code": "mg/dL",
              "system": "http://unitsofmeasure.org"
            }
          },
          {
            "high": {
              "value": 200,
              "code": "mg/dL",
              "system": "http://unitsofmeasure.org"
            }
          }
        ],
        "text": {
          "status": "generated",
          "div": "<div xmlns=\"http://www.w3.org/1999/xhtml\"><table class=\"hl7__eu__lab__report\"><tr><th>Test</th><th>13-Dec-2016</th><th>Reference&#xA0;Range</th><th>Unit</th></tr><tr><td>Cholesterol [Mass/volume] in Serum or Plasma</td><td>160.0</td><td>0 - 200</td><td></td><td>mg/dL</td></tr></table></div>"
        },
        "status": "final",
        "subject": {
          "reference": "urn:uuid:9ab66b90-0923-4a22-95ca-525865732369",
          "display": "Timothy Smith"
        },
        "effectiveDateTime": "2016-12-13T15:48:21Z",
        "specimen": {
          "reference": "urn:uuid:c3c65891-c410-4d59-bed9-a4c50fc981d2"
        }
      }
    },
    {
      "fullUrl": "urn:uuid:20aa939c-e616-475e-b538-337c0fe78afc",
      "resource": {
        "resourceType": "Observation",
        "id": "20aa939c-e616-475e-b538-337c0fe78afc",
        "meta": {
          "profile": [
            "http://hl7.eu/fhir/laboratory/StructureDefinition/Observation-resultslab-eu-lab"
          ]
        },
        "performer": [
          {
            "display": "The Central European Lab"
          }
        ],
        "category": [
          {
            "coding": [
              {
                "system": "http://terminology.hl7.org/CodeSystem/observation-category",
                "code": "laboratory"
              }
            ]
          }
        ],
        "code": {
          "coding": [
            {
              "code": "2571-8",
              "system": "http://loinc.org",
              "display": "Triglyceride [Mass/volume] in Serum or Plasma"
            }
          ],
          "text": "Triglyceride [Mass/volume] in Serum or Plasma"
        },
        "valueQuantity": {
          "system": "http://unitsofmeasure.org",
          "value": 122.7,
          "unit": "mg/dL",
          "code": "mg/dL"
        },
        "referenceRange": [
          {
            "low": {
              "value": 0,
              "code": "mg/dL",
              "system": "http://unitsofmeasure.org"
            }
          },
          {
            "high": {
              "value": 199,
              "code": "mg/dL",
              "system": "http://unitsofmeasure.org"
            }
          }
        ],
        "text": {
          "status": "generated",
          "div": "<div xmlns=\"http://www.w3.org/1999/xhtml\"><table class=\"hl7__eu__lab__report\"><tr><th>Test</th><th>13-Dec-2016</th><th>Reference&#xA0;Range</th><th>Unit</th></tr><tr><td>Triglyceride [Mass/volume] in Serum or Plasma</td><td>122.7</td><td>0 - 199</td><td></td><td>mg/dL</td></tr></table></div>"
        },
        "status": "final",
        "subject": {
          "reference": "urn:uuid:9ab66b90-0923-4a22-95ca-525865732369",
          "display": "Timothy Smith"
        },
        "effectiveDateTime": "2016-12-13T15:48:21Z",
        "specimen": {
          "reference": "urn:uuid:c3c65891-c410-4d59-bed9-a4c50fc981d2"
        }
      }
    },
    {
      "fullUrl": "urn:uuid:636b9c0d-524e-44e3-bdff-c69fd6bfe9d2",
      "resource": {
        "resourceType": "Observation",
        "id": "636b9c0d-524e-44e3-bdff-c69fd6bfe9d2",
        "meta": {
          "profile": [
            "http://hl7.eu/fhir/laboratory/StructureDefinition/Observation-resultslab-eu-lab"
          ]
        },
        "performer": [
          {
            "display": "The Central European Lab"
          }
        ],
        "category": [
          {
            "coding": [
              {
                "system": "http://terminology.hl7.org/CodeSystem/observation-category",
                "code": "laboratory"
              }
            ]
          }
        ],
        "code": {
          "coding": [
            {
              "code": "18262-6",
              "system": "http://loinc.org",
              "display": "Cholesterol in LDL [Mass/volume] in Serum or Plasma by Direct assay"
            }
          ],
          "text": "Cholesterol in LDL [Mass/volume] in Serum or Plasma by Direct assay"
        },
        "valueQuantity": {
          "system": "http://unitsofmeasure.org",
          "value": 102.1,
          "unit": "mg/dL",
          "code": "mg/dL"
        },
        "referenceRange": [
          {
            "low": {
              "value": 0,
              "code": "mg/dL",
              "system": "http://unitsofmeasure.org"
            }
          },
          {
            "high": {
              "value": 130,
              "code": "mg/dL",
              "system": "http://unitsofmeasure.org"
            }
          }
        ],
        "text": {
          "status": "generated",
          "div": "<div xmlns=\"http://www.w3.org/1999/xhtml\"><table class=\"hl7__eu__lab__report\"><tr><th>Test</th><th>13-Dec-2016</th><th>Reference&#xA0;Range</th><th>Unit</th></tr><tr><td>Cholesterol in LDL [Mass/volume] in Serum or Plasma by Direct assay</td><td>102.1</td><td>0 - 130</td><td></td><td>mg/dL</td></tr></table></div>"
        },
        "status": "final",
        "subject": {
          "reference": "urn:uuid:9ab66b90-0923-4a22-95ca-525865732369",
          "display": "Timothy Smith"
        },
        "effectiveDateTime": "2016-12-13T15:48:21Z",
        "specimen": {
          "reference": "urn:uuid:c3c65891-c410-4d59-bed9-a4c50fc981d2"
        }
      }
    },
    {
      "fullUrl": "urn:uuid:1af78048-307f-4852-b988-603bf5e4efd0",
      "resource": {
        "resourceType": "Observation",
        "id": "1af78048-307f-4852-b988-603bf5e4efd0",
        "meta": {
          "profile": [
            "http://hl7.eu/fhir/laboratory/StructureDefinition/Observation-resultslab-eu-lab"
          ]
        },
        "performer": [
          {
            "display": "The Central European Lab"
          }
        ],
        "category": [
          {
            "coding": [
              {
                "system": "http://terminology.hl7.org/CodeSystem/observation-category",
                "code": "laboratory"
              }
            ]
          }
        ],
        "code": {
          "coding": [
            {
              "code": "2085-9",
              "system": "http://loinc.org",
              "display": "Cholesterol in HDL [Mass/volume] in Serum or Plasma"
            }
          ],
          "text": "Cholesterol in HDL [Mass/volume] in Serum or Plasma"
        },
        "valueQuantity": {
          "system": "http://unitsofmeasure.org",
          "value": 59.7,
          "unit": "mg/dL",
          "code": "mg/dL"
        },
        "referenceRange": [
          {
            "low": {
              "value": 40,
              "code": "mg/dL",
              "system": "http://unitsofmeasure.org"
            }
          },
          {
            "high": {
              "value": 100,
              "code": "mg/dL",
              "system": "http://unitsofmeasure.org"
            }
          }
        ],
        "text": {
          "status": "generated",
          "div": "<div xmlns=\"http://www.w3.org/1999/xhtml\"><table class=\"hl7__eu__lab__report\"><tr><th>Test</th><th>13-Dec-2016</th><th>Reference&#xA0;Range</th><th>Unit</th></tr><tr><td>Cholesterol in HDL [Mass/volume] in Serum or Plasma</td><td>59.7</td><td>40 - 100</td><td></td><td>mg/dL</td></tr></table></div>"
        },
        "status": "final",
        "subject": {
          "reference": "urn:uuid:9ab66b90-0923-4a22-95ca-525865732369",
          "display": "Timothy Smith"
        },
        "effectiveDateTime": "2016-12-13T15:48:21Z",
        "specimen": {
          "reference": "urn:uuid:c3c65891-c410-4d59-bed9-a4c50fc981d2"
        }
      }
    },
    {
      "fullUrl": "urn:uuid:459a7332-0c33-40bd-926a-b1309241a407",
      "resource": {
        "resourceType": "Device",
        "id": "459a7332-0c33-40bd-926a-b1309241a407",
        "deviceName": [
          {
            "name": "SYNDERAI Synthetic Generator",
            "type": "manufacturer-name"
          }
        ],
        "version": [
          {
            "value": "5.0"
          }
        ],
        "text": {
          "status": "generated",
          "div": "<div xmlns=\"http://www.w3.org/1999/xhtml\">SYNDERAI Synthetic Generator v5.0</div>"
        },
        "status": "active\"",
        "distinctIdentifier": "synderai-generator-50",
        "manufacturer": "SYNDERAI Project"
      }
    },
    {
      "fullUrl": "urn:uuid:45ee62a1-16cb-4c02-b969-d74cdaf3d732",
      "resource": {
        "resourceType": "Provenance",
        "id": "45ee62a1-16cb-4c02-b969-d74cdaf3d732",
        "target": [
          {
            "reference": "Patient/9ab66b90-0923-4a22-95ca-525865732369"
          },
          {
            "reference": "Bundle/d1150fed-d5d6-4f06-80f1-262663b09b6f"
          },
          {
            "reference": "Composition/1f864838-9e21-4c04-9573-7a0dad524114"
          },
          {
            "reference": "PractitionerRole/d4645f5f-5489-49d1-89db-43fa0ce4fe81"
          },
          {
            "reference": "Practitioner/8f377b6d-63e8-48b8-a107-c9468e25b682"
          },
          {
            "reference": "PractitionerRole/8124e6ff-5315-4d2f-89f1-6963f790c3cf"
          },
          {
            "reference": "Organization/5490ecc7-4fe9-4851-af47-17108160082b"
          }
        ],
        "activity": {
          "text": "Synthetic Example Data Generation"
        },
        "policy": [
          "https://synderai.net/synderai-synthetic-data-policy"
        ],
        "agent": [
          {
            "type": {
              "text": "author"
            },
            "who": {
              "reference": "Device/459a7332-0c33-40bd-926a-b1309241a407"
            }
          }
        ],
        "reason": [
          {
            "text": "Interoperability Testing and Training (non-clinical use)"
          }
        ],
        "text": {
          "status": "generated",
          "div": "<div xmlns=\"http://www.w3.org/1999/xhtml\">Provenance for SYNDERAI Synthetic Example Data Resource</div>"
        },
        "recorded": "2016-12-13T16:48:21Z"
      }
    },
    {
      "fullUrl": "urn:uuid:d4645f5f-5489-49d1-89db-43fa0ce4fe81",
      "resource": {
        "resourceType": "PractitionerRole",
        "id": "d4645f5f-5489-49d1-89db-43fa0ce4fe81",
        "meta": {
          "profile": [
            "http://hl7.eu/fhir/base/StructureDefinition/practitionerRole-eu"
          ]
        },
        "text": {
          "status": "generated",
          "div": "<div xmlns=\"http://www.w3.org/1999/xhtml\">Laboratory Role Id: d4645f5f-5489-49d1-89db-43fa0ce4fe81</div>"
        },
        "practitioner": {
          "reference": "urn:uuid:8f377b6d-63e8-48b8-a107-c9468e25b682"
        }
      }
    },
    {
      "fullUrl": "urn:uuid:8f377b6d-63e8-48b8-a107-c9468e25b682",
      "resource": {
        "resourceType": "Practitioner",
        "id": "8f377b6d-63e8-48b8-a107-c9468e25b682",
        "meta": {
          "profile": [
            "http://hl7.eu/fhir/base/StructureDefinition/practitioner-eu"
          ]
        },
        "identifier": [
          {
            "assigner": {
              "display": "HL7 Europe"
            },
            "system": "urn:oid:2.16.840.1.113883.2.51.999",
            "value": "885a8991-e319-4584-99e1-a9c39d18f645"
          }
        ],
        "name": [
          {
            "prefix": [
              "dr"
            ],
            "given": [
              "Ex"
            ],
            "family": "Ample"
          }
        ],
        "address": [
          {
            "line": [
              "Laboratoire Central Européenne",
              "Boulevard du Jardin Botanique 32"
            ],
            "postalCode": "1000",
            "city": "Brussels",
            "country": "Belgium"
          }
        ],
        "text": {
          "status": "generated",
          "div": "<div xmlns=\"http://www.w3.org/1999/xhtml\">Laboratory: Laboratoire Central Européenne, 1000 Brussels, Belgium</div>"
        }
      }
    }
  ],
  "type": "document",
  "timestamp": "2016-12-13T16:48:21Z"
}
