{
  "resourceType": "Bundle",
  "id": "4bc5f992-0a3f-4f30-bc52-95a093bbed6a",
  "meta": {
    "profile": [
      "http://hl7.eu/fhir/laboratory/StructureDefinition/Bundle-eu-lab"
    ]
  },
  "identifier": {
    "assigner": {
      "display": "HL7 Europe"
    },
    "system": "urn:oid:2.16.840.1.113883.2.51.999",
    "value": "947821e9-6f21-4100-9ea9-85155d33825e"
  },
  "entry": [
    {
      "fullUrl": "urn:uuid:22a7cc33-e7bc-4a11-a522-4af54806bb93",
      "resource": {
        "resourceType": "Composition",
        "id": "22a7cc33-e7bc-4a11-a522-4af54806bb93",
        "meta": {
          "profile": [
            "http://hl7.eu/fhir/laboratory/StructureDefinition/Composition-eu-lab"
          ]
        },
        "identifier": {
          "assigner": {
            "display": "HL7 Europe"
          },
          "system": "urn:oid:2.16.840.1.113883.2.51.999",
          "value": "14078cca-bcc9-454d-b7f1-01f71523d02a"
        },
        "author": [
          {
            "reference": "urn:uuid:01d6f5e8-560a-42cd-a1d1-032f88075387"
          }
        ],
        "category": [
          {
            "coding": [
              {
                "code": "26436-6",
                "system": "http://loinc.org",
                "display": "Laboratory studies (set)"
              }
            ]
          }
        ],
        "type": {
          "coding": [
            {
              "code": "11502-2",
              "system": "http://loinc.org",
              "display": "Laboratory report"
            }
          ],
          "text": "Laboratory Report"
        },
        "section": [
          {
            "code": {
              "coding": [
                {
                  "code": "26436-6",
                  "system": "http://loinc.org",
                  "display": "Laboratory studies (set)"
                }
              ],
              "text": "Laboratory studies"
            },
            "section": [
              {
                "code": {
                  "coding": [
                    {
                      "code": "$18719-5",
                      "system": "http://loinc.org",
                      "display": "Chemistry studies (set)"
                    }
                  ],
                  "text": "Chemistry"
                },
                "entry": [
                  {
                    "reference": "urn:uuid:78cde23a-988c-42b4-810f-a0829b33b766"
                  },
                  {
                    "reference": "urn:uuid:a871943a-17fe-4d9a-95d3-8a5429245ce5"
                  },
                  {
                    "reference": "urn:uuid:254a4e92-95af-4003-a229-d929e6228ff9"
                  },
                  {
                    "reference": "urn:uuid:43c73f79-28d8-4bd8-be01-909bdbad7527"
                  },
                  {
                    "reference": "urn:uuid:83830198-6f3f-469a-9f57-77c9e8c53c90"
                  },
                  {
                    "reference": "urn:uuid:496059b1-e47f-4d43-af30-853d265baf74"
                  },
                  {
                    "reference": "urn:uuid:069cd3e5-e5bd-4566-b8c0-5f96ce44db33"
                  },
                  {
                    "reference": "urn:uuid:28f70279-f861-4ece-b707-36803d07a17e"
                  },
                  {
                    "reference": "urn:uuid:f8aa7a2c-ca43-45ee-bbe2-aedb40fb5991"
                  },
                  {
                    "reference": "urn:uuid:a85e346b-5e38-49eb-8a2a-0bd2a87228f8"
                  },
                  {
                    "reference": "urn:uuid:e4a40562-79fa-4d2e-85da-4a3a20ce5504"
                  },
                  {
                    "reference": "urn:uuid:21a8225f-574a-4dcc-bcda-91488a258cf6"
                  },
                  {
                    "reference": "urn:uuid:322fbf61-642b-4eaf-9a27-59f6b5ffa8a7"
                  },
                  {
                    "reference": "urn:uuid:6e2b7ec7-d88b-4fe3-9ad2-68c3d6bbc6dd"
                  },
                  {
                    "reference": "urn:uuid:61fa48f5-83b4-4544-ac0f-999276d27986"
                  },
                  {
                    "reference": "urn:uuid:94abb088-0340-4640-8b1b-4a027410f20c"
                  },
                  {
                    "reference": "urn:uuid:5c833c11-86a9-4c4c-a985-e0d80b084322"
                  },
                  {
                    "reference": "urn:uuid:b668b81b-3ab8-468c-8802-1adba72853aa"
                  },
                  {
                    "reference": "urn:uuid:4eb2cf7c-14f1-4ef7-8a0d-4526f0aaa222"
                  }
                ],
                "text": {
                  "status": "generated",
                  "div": "<div xmlns=\"http://www.w3.org/1999/xhtml\"><h3>Chemistry</h3><table class=\"hl7__eu__lab__report\"><thead><tr><th>Test</th><th>05-JUN-2022</th><th>Reference&#xA0;Range</th><th>Unit</th></tr></thead><tbody><tr><td>Glucose [Mass/volume] in Blood</td><td>75.5</td><td>70 - 140</td><td>mg/dL</td></tr><tr><td>Urea nitrogen [Mass/volume] in Blood</td><td>17.3</td><td>7 - 20</td><td>mg/dL</td></tr><tr><td>Creatinine [Mass/volume] in Blood</td><td><strong>3.0 H</strong></td><td>0.6 - 1.3</td><td>mg/dL</td></tr><tr><td>Calcium [Mass/volume] in Blood</td><td>9.4</td><td>8.5 - 10.5</td><td>mg/dL</td></tr><tr><td>Sodium [Moles/volume] in Blood</td><td>137.5</td><td>135 - 145</td><td>mmol/L</td></tr><tr><td>Potassium [Moles/volume] in Blood</td><td>4.1</td><td>3.6 - 5.1</td><td>mmol/L</td></tr><tr><td>Chloride [Moles/volume] in Blood</td><td>102.7</td><td>98 - 107</td><td>mmol/L</td></tr><tr><td>Carbon dioxide, total [Moles/volume] in Blood</td><td><strong>21.7 L</strong></td><td>22 - 32</td><td>mmol/L</td></tr><tr><td>Protein [Mass/volume] in Serum or Plasma</td><td>7.3</td><td>6 - 8.3</td><td>g/dL</td></tr><tr><td>Albumin [Mass/volume] in Serum or Plasma</td><td>4.8</td><td>3.5 - 5</td><td>g/dL</td></tr><tr><td>Globulin [Mass/volume] in Serum by calculation</td><td>2.1</td><td>2 - 3.9</td><td>g/L</td></tr><tr><td>Bilirubin.total [Mass/volume] in Serum or Plasma</td><td>0.6</td><td>0.3 - 1.2</td><td>mg/dL</td></tr><tr><td>Alkaline phosphatase [Enzymatic activity/volume] in Serum or Plasma</td><td>123.9</td><td>32 - 150</td><td>U/L</td></tr><tr><td>Alanine aminotransferase [Enzymatic activity/volume] in Serum or Plasma</td><td><strong>41.6 H</strong></td><td>13 - 32</td><td>U/L</td></tr><tr><td>Aspartate aminotransferase [Enzymatic activity/volume] in Serum or Plasma</td><td>37.8</td><td>10 - 40</td><td>U/L</td></tr><tr><td>Cholesterol [Mass/volume] in Serum or Plasma</td><td>176.9</td><td>130 - 200</td><td>mg/dL</td></tr><tr><td>Triglyceride [Mass/volume] in Serum or Plasma</td><td>150.2</td><td>0 - 199</td><td>mg/dL</td></tr><tr><td>Cholesterol in LDL [Mass/volume] in Serum or Plasma by Direct assay</td><td>82.6</td><td>0 - 130</td><td>mg/dL</td></tr><tr><td>Cholesterol in HDL [Mass/volume] in Serum or Plasma</td><td>72.8</td><td>50 - 100</td><td>mg/dL</td></tr></tbody></table></div>"
                },
                "title": "Chemistry"
              }
            ],
            "title": "Laboratory Report"
          },
          {
            "text": {
              "status": "generated",
              "div": "<div xmlns=\"http://www.w3.org/1999/xhtml\"><h3>Annotation</h3><table class=\"hl7__eu__lab__report\"><tr><th>Conclusion and Recommendations based on this report and previous findings known to us</th></tr><tr><td>The patient shows elevated creatinine, suggesting impaired renal function, and mildly low total CO₂, which may indicate mild metabolic acidosis. ALT is slightly elevated, possibly reflecting mild liver involvement or muscle injury. Other parameters, including electrolytes, proteins, and lipids, are within normal limits. Renal function should be further evaluated and correlated clinically.</td></tr></table></div>"
            },
            "code": {
              "coding": [
                {
                  "system": "http://loinc.org",
                  "code": "48767-8",
                  "display": "Annotation comment"
                }
              ]
            },
            "title": "Annotation comment"
          }
        ],
        "status": "final",
        "subject": {
          "reference": "urn:uuid:e45d548a-745c-4979-a6a6-41c39758c8c4",
          "display": "Aniela Prażmo"
        },
        "date": "2022-06-05T15:25:25Z",
        "title": "Laboratory Report",
        "confidentiality": "N"
      }
    },
    {
      "fullUrl": "urn:uuid:1b33007b-6c9d-4d54-883c-ca77b7473731",
      "resource": {
        "resourceType": "DiagnosticReport",
        "id": "1b33007b-6c9d-4d54-883c-ca77b7473731",
        "meta": {
          "profile": [
            "http://hl7.eu/fhir/laboratory/StructureDefinition/DiagnosticReport-eu-lab"
          ]
        },
        "identifier": [
          {
            "assigner": {
              "display": "HL7 Europe"
            },
            "system": "urn:oid:2.16.840.1.113883.2.51.999",
            "value": "bba418fc-5c44-4d1f-a01f-5eba429592e3"
          }
        ],
        "extension": [
          {
            "url": "http://hl7.org/fhir/5.0/StructureDefinition/extension-DiagnosticReport.composition",
            "valueReference": {
              "reference": "urn:uuid:14078cca-bcc9-454d-b7f1-01f71523d02a"
            }
          }
        ],
        "category": [
          {
            "coding": [
              {
                "code": "26436-6",
                "system": "http://loinc.org",
                "display": "Laboratory studies (set)"
              }
            ]
          }
        ],
        "specimen": [
          {
            "reference": "urn:uuid:86af7d1f-f06f-45bf-b6b5-b5a462a102bf"
          },
          {
            "reference": "urn:uuid:5752dd48-f8b6-4f0d-9b86-af527be7995a"
          },
          {
            "reference": "urn:uuid:580fae06-9690-4c56-8e19-1b5eb6fe8158"
          }
        ],
        "result": [
          {
            "reference": "urn:uuid:78cde23a-988c-42b4-810f-a0829b33b766"
          },
          {
            "reference": "urn:uuid:a871943a-17fe-4d9a-95d3-8a5429245ce5"
          },
          {
            "reference": "urn:uuid:254a4e92-95af-4003-a229-d929e6228ff9"
          },
          {
            "reference": "urn:uuid:43c73f79-28d8-4bd8-be01-909bdbad7527"
          },
          {
            "reference": "urn:uuid:83830198-6f3f-469a-9f57-77c9e8c53c90"
          },
          {
            "reference": "urn:uuid:496059b1-e47f-4d43-af30-853d265baf74"
          },
          {
            "reference": "urn:uuid:069cd3e5-e5bd-4566-b8c0-5f96ce44db33"
          },
          {
            "reference": "urn:uuid:28f70279-f861-4ece-b707-36803d07a17e"
          },
          {
            "reference": "urn:uuid:f8aa7a2c-ca43-45ee-bbe2-aedb40fb5991"
          },
          {
            "reference": "urn:uuid:a85e346b-5e38-49eb-8a2a-0bd2a87228f8"
          },
          {
            "reference": "urn:uuid:e4a40562-79fa-4d2e-85da-4a3a20ce5504"
          },
          {
            "reference": "urn:uuid:21a8225f-574a-4dcc-bcda-91488a258cf6"
          },
          {
            "reference": "urn:uuid:322fbf61-642b-4eaf-9a27-59f6b5ffa8a7"
          },
          {
            "reference": "urn:uuid:6e2b7ec7-d88b-4fe3-9ad2-68c3d6bbc6dd"
          },
          {
            "reference": "urn:uuid:61fa48f5-83b4-4544-ac0f-999276d27986"
          },
          {
            "reference": "urn:uuid:94abb088-0340-4640-8b1b-4a027410f20c"
          },
          {
            "reference": "urn:uuid:5c833c11-86a9-4c4c-a985-e0d80b084322"
          },
          {
            "reference": "urn:uuid:b668b81b-3ab8-468c-8802-1adba72853aa"
          },
          {
            "reference": "urn:uuid:4eb2cf7c-14f1-4ef7-8a0d-4526f0aaa222"
          }
        ],
        "status": "registered",
        "code": {
          "coding": [
            {
              "code": "11502-2",
              "system": "http://loinc.org",
              "display": "Laboratory report"
            }
          ]
        },
        "subject": {
          "reference": "urn:uuid:e45d548a-745c-4979-a6a6-41c39758c8c4",
          "display": "Aniela Prażmo"
        }
      }
    },
    {
      "fullUrl": "urn:uuid:e45d548a-745c-4979-a6a6-41c39758c8c4",
      "resource": {
        "resourceType": "Patient",
        "id": "e45d548a-745c-4979-a6a6-41c39758c8c4",
        "meta": {
          "security": [
            {
              "system": "http://terminology.hl7.org/CodeSystem/v3-ActReason",
              "code": "HTEST"
            },
            {
              "system": "http://terminology.hl7.org/CodeSystem/v3-ActReason",
              "code": "TRAIN"
            }
          ],
          "tag": [
            {
              "system": "https://synderai.net/fhir/CodeSystem/tags",
              "code": "synthetic",
              "display": "SYNDERAI Synthetic data"
            }
          ],
          "profile": [
            "http://hl7.eu/fhir/base/StructureDefinition/patient-eu-core"
          ]
        },
        "identifier": [
          {
            "type": {
              "coding": [
                {
                  "code": "PT",
                  "system": "http://terminology.hl7.org/CodeSystem/v2-0203"
                }
              ]
            },
            "system": "http://ec.europa.eu/identifier/eci",
            "value": "9657-869171-7"
          },
          {
            "type": {
              "coding": [
                {
                  "code": "MR",
                  "system": "http://terminology.hl7.org/CodeSystem/v2-0203"
                }
              ]
            },
            "system": "http://local.setting.eu/identifier",
            "value": "ab00158c-e2d0-01e4-6cf5-730949937551"
          }
        ],
        "name": [
          {
            "family": "Prażmo"
          },
          {
            "given": [
              "Aniela"
            ]
          },
          {
            "text": "Aniela Prażmo"
          }
        ],
        "address": [
          {
            "line": [
              "pl. Kołłątaja 62/43"
            ],
            "use": "home",
            "type": "physical",
            "postalCode": "97-200",
            "city": "Tomaszów Mazowiecki",
            "country": "Poland"
          }
        ],
        "telecom": [
          {
            "system": "phone",
            "value": "+48 782 809 233"
          }
        ],
        "extension": [
          {
            "url": "http://hl7.org/fhir/StructureDefinition/patient-nationality",
            "valueCodeableConcept": {
              "coding": [
                {
                  "code": "PL",
                  "system": "http://hl7.org/fhir/ValueSet/country"
                }
              ]
            }
          }
        ],
        "text": {
          "status": "generated",
          "div": "<div xmlns=\"http://www.w3.org/1999/xhtml\"><table class=\"hl7__ips\"><tr><td>Aniela Prażmo</td><td>female</td><td>08-Feb-1941</td></tr></table></div>"
        },
        "gender": "female",
        "birthDate": "1941-02-08"
      }
    },
    {
      "fullUrl": "urn:uuid:79d171cf-c72e-407e-b450-92c413d3a5b2",
      "resource": {
        "resourceType": "ServiceRequest",
        "id": "79d171cf-c72e-407e-b450-92c413d3a5b2",
        "meta": {
          "profile": [
            "http://hl7.eu/fhir/laboratory/StructureDefinition/ServiceRequest-eu-lab"
          ]
        },
        "identifier": [
          {
            "system": "http://example.org",
            "value": "45f7c5b5-973e-46f0-9eb1-33e3dfa08f43"
          }
        ],
        "specimen": [
          {
            "reference": "urn:uuid:86af7d1f-f06f-45bf-b6b5-b5a462a102bf"
          },
          {
            "reference": "urn:uuid:5752dd48-f8b6-4f0d-9b86-af527be7995a"
          },
          {
            "reference": "urn:uuid:580fae06-9690-4c56-8e19-1b5eb6fe8158"
          }
        ],
        "reasonCode": [
          {
            "coding": [
              {
                "code": "64859006",
                "system": "http://snomed.info/sct",
                "display": "Osteoporosis"
              }
            ]
          },
          {
            "coding": [
              {
                "code": "55822004",
                "system": "http://snomed.info/sct",
                "display": "Hyperlipidemia"
              }
            ]
          },
          {
            "coding": [
              {
                "code": "414545008",
                "system": "http://snomed.info/sct",
                "display": "Ischemic heart disease"
              }
            ]
          },
          {
            "coding": [
              {
                "code": "59621000",
                "system": "http://snomed.info/sct",
                "display": "Essential hypertension"
              }
            ]
          },
          {
            "coding": [
              {
                "code": "40055000",
                "system": "http://snomed.info/sct",
                "display": "Chronic sinusitis"
              }
            ]
          }
        ],
        "status": "active",
        "intent": "order",
        "code": {
          "coding": [
            {
              "code": "108252007",
              "system": "http://snomed.info/sct",
              "display": "Laboratory procedure"
            }
          ]
        },
        "subject": {
          "reference": "urn:uuid:e45d548a-745c-4979-a6a6-41c39758c8c4",
          "display": "Aniela Prażmo"
        },
        "requester": {
          "reference": "urn:uuid:3c74be81-a29f-48cf-8e86-26014f2fb881"
        }
      }
    },
    {
      "fullUrl": "urn:uuid:3c74be81-a29f-48cf-8e86-26014f2fb881",
      "resource": {
        "resourceType": "PractitionerRole",
        "id": "3c74be81-a29f-48cf-8e86-26014f2fb881",
        "meta": {
          "profile": [
            "http://hl7.eu/fhir/base/StructureDefinition/practitionerRole-eu"
          ]
        },
        "text": {
          "status": "generated",
          "div": "<div xmlns=\"http://www.w3.org/1999/xhtml\">Provider Role Id: 3c74be81-a29f-48cf-8e86-26014f2fb881</div>"
        },
        "organization": {
          "reference": "urn:uuid:bc8995b2-f3fd-47f5-931f-406d8f60aeae"
        }
      }
    },
    {
      "fullUrl": "urn:uuid:bc8995b2-f3fd-47f5-931f-406d8f60aeae",
      "resource": {
        "resourceType": "Organization",
        "id": "bc8995b2-f3fd-47f5-931f-406d8f60aeae",
        "meta": {
          "profile": [
            "http://hl7.eu/fhir/base/StructureDefinition/organization-eu"
          ]
        },
        "identifier": [
          {
            "assigner": {
              "display": "HL7 Europe"
            },
            "system": "urn:oid:2.16.840.1.113883.2.51.999",
            "value": "e4bcaee1-7517-49a5-a38e-8cdb04cf1e24"
          }
        ],
        "address": [
          {
            "city": "Tomaszów Mazowiecki",
            "postalCode": "97-200",
            "country": "Poland"
          }
        ],
        "text": {
          "status": "generated",
          "div": "<div xmlns=\"http://www.w3.org/1999/xhtml\">Provider Organization: Poradnia rehabilitacyjna</div>"
        },
        "name": "Poradnia rehabilitacyjna"
      }
    },
    {
      "fullUrl": "urn:uuid:86af7d1f-f06f-45bf-b6b5-b5a462a102bf",
      "resource": {
        "resourceType": "Specimen",
        "id": "86af7d1f-f06f-45bf-b6b5-b5a462a102bf",
        "meta": {
          "profile": [
            "http://hl7.eu/fhir/laboratory/StructureDefinition/Specimen-eu-lab"
          ]
        },
        "collection": {
          "collectedDateTime": "2022-06-05"
        },
        "text": {
          "status": "generated",
          "div": "<div xmlns=\"http://www.w3.org/1999/xhtml\"><table class=\"hl7__eu__lab__report\"><tr><th>Specimen</th><th>Collection Date</th></tr><tr><td>Whole blood specimen (specimen)</td><td><span class=\"nb\">05-Jun-2022</span></td></tr></table></div>"
        },
        "type": {
          "coding": [
            {
              "code": "258580003",
              "system": "http://snomed.info/sct",
              "display": "Whole blood specimen (specimen)"
            }
          ]
        }
      }
    },
    {
      "fullUrl": "urn:uuid:5752dd48-f8b6-4f0d-9b86-af527be7995a",
      "resource": {
        "resourceType": "Specimen",
        "id": "5752dd48-f8b6-4f0d-9b86-af527be7995a",
        "meta": {
          "profile": [
            "http://hl7.eu/fhir/laboratory/StructureDefinition/Specimen-eu-lab"
          ]
        },
        "collection": {
          "collectedDateTime": "2022-06-05"
        },
        "text": {
          "status": "generated",
          "div": "<div xmlns=\"http://www.w3.org/1999/xhtml\"><table class=\"hl7__eu__lab__report\"><tr><th>Specimen</th><th>Collection Date</th></tr><tr><td>Acellular blood (serum or plasma) specimen</td><td><span class=\"nb\">05-Jun-2022</span></td></tr></table></div>"
        },
        "type": {
          "coding": [
            {
              "code": "122592007",
              "system": "http://snomed.info/sct",
              "display": "Acellular blood (serum or plasma) specimen"
            }
          ]
        }
      }
    },
    {
      "fullUrl": "urn:uuid:580fae06-9690-4c56-8e19-1b5eb6fe8158",
      "resource": {
        "resourceType": "Specimen",
        "id": "580fae06-9690-4c56-8e19-1b5eb6fe8158",
        "meta": {
          "profile": [
            "http://hl7.eu/fhir/laboratory/StructureDefinition/Specimen-eu-lab"
          ]
        },
        "collection": {
          "collectedDateTime": "2022-06-05"
        },
        "text": {
          "status": "generated",
          "div": "<div xmlns=\"http://www.w3.org/1999/xhtml\"><table class=\"hl7__eu__lab__report\"><tr><th>Specimen</th><th>Collection Date</th></tr><tr><td>Serum specimen</td><td><span class=\"nb\">05-Jun-2022</span></td></tr></table></div>"
        },
        "type": {
          "coding": [
            {
              "code": "119364003",
              "system": "http://snomed.info/sct",
              "display": "Serum specimen"
            }
          ]
        }
      }
    },
    {
      "fullUrl": "urn:uuid:78cde23a-988c-42b4-810f-a0829b33b766",
      "resource": {
        "resourceType": "Observation",
        "id": "78cde23a-988c-42b4-810f-a0829b33b766",
        "meta": {
          "profile": [
            "http://hl7.eu/fhir/laboratory/StructureDefinition/Observation-resultslab-eu-lab"
          ]
        },
        "performer": [
          {
            "display": "The Central European Lab"
          }
        ],
        "category": [
          {
            "coding": [
              {
                "system": "http://terminology.hl7.org/CodeSystem/observation-category",
                "code": "laboratory"
              }
            ]
          }
        ],
        "code": {
          "coding": [
            {
              "code": "2339-0",
              "system": "http://loinc.org",
              "display": "Glucose [Mass/volume] in Blood"
            }
          ],
          "text": "Glucose [Mass/volume] in Blood"
        },
        "valueQuantity": {
          "system": "http://unitsofmeasure.org",
          "value": 75.5,
          "unit": "mg/dL",
          "code": "mg/dL"
        },
        "referenceRange": [
          {
            "low": {
              "value": 70,
              "code": "mg/dL",
              "system": "http://unitsofmeasure.org"
            }
          },
          {
            "high": {
              "value": 140,
              "code": "mg/dL",
              "system": "http://unitsofmeasure.org"
            }
          }
        ],
        "text": {
          "status": "generated",
          "div": "<div xmlns=\"http://www.w3.org/1999/xhtml\"><table class=\"hl7__eu__lab__report\"><tr><th>Test</th><th>05-Jun-2022</th><th>Reference&#xA0;Range</th><th>Unit</th></tr><tr><td>Glucose [Mass/volume] in Blood</td><td>75.5</td><td>70 - 140</td><td></td><td>mg/dL</td></tr></table></div>"
        },
        "status": "final",
        "subject": {
          "reference": "urn:uuid:e45d548a-745c-4979-a6a6-41c39758c8c4",
          "display": "Aniela Prażmo"
        },
        "effectiveDateTime": "2022-06-05T13:25:25Z",
        "specimen": {
          "reference": "urn:uuid:86af7d1f-f06f-45bf-b6b5-b5a462a102bf"
        }
      }
    },
    {
      "fullUrl": "urn:uuid:a871943a-17fe-4d9a-95d3-8a5429245ce5",
      "resource": {
        "resourceType": "Observation",
        "id": "a871943a-17fe-4d9a-95d3-8a5429245ce5",
        "meta": {
          "profile": [
            "http://hl7.eu/fhir/laboratory/StructureDefinition/Observation-resultslab-eu-lab"
          ]
        },
        "performer": [
          {
            "display": "The Central European Lab"
          }
        ],
        "category": [
          {
            "coding": [
              {
                "system": "http://terminology.hl7.org/CodeSystem/observation-category",
                "code": "laboratory"
              }
            ]
          }
        ],
        "code": {
          "coding": [
            {
              "code": "6299-2",
              "system": "http://loinc.org",
              "display": "Urea nitrogen [Mass/volume] in Blood"
            }
          ],
          "text": "Urea nitrogen [Mass/volume] in Blood"
        },
        "valueQuantity": {
          "system": "http://unitsofmeasure.org",
          "value": 17.3,
          "unit": "mg/dL",
          "code": "mg/dL"
        },
        "referenceRange": [
          {
            "low": {
              "value": 7,
              "code": "mg/dL",
              "system": "http://unitsofmeasure.org"
            }
          },
          {
            "high": {
              "value": 20,
              "code": "mg/dL",
              "system": "http://unitsofmeasure.org"
            }
          }
        ],
        "text": {
          "status": "generated",
          "div": "<div xmlns=\"http://www.w3.org/1999/xhtml\"><table class=\"hl7__eu__lab__report\"><tr><th>Test</th><th>05-Jun-2022</th><th>Reference&#xA0;Range</th><th>Unit</th></tr><tr><td>Urea nitrogen [Mass/volume] in Blood</td><td>17.3</td><td>7 - 20</td><td></td><td>mg/dL</td></tr></table></div>"
        },
        "status": "final",
        "subject": {
          "reference": "urn:uuid:e45d548a-745c-4979-a6a6-41c39758c8c4",
          "display": "Aniela Prażmo"
        },
        "effectiveDateTime": "2022-06-05T13:25:25Z",
        "specimen": {
          "reference": "urn:uuid:86af7d1f-f06f-45bf-b6b5-b5a462a102bf"
        }
      }
    },
    {
      "fullUrl": "urn:uuid:254a4e92-95af-4003-a229-d929e6228ff9",
      "resource": {
        "resourceType": "Observation",
        "id": "254a4e92-95af-4003-a229-d929e6228ff9",
        "meta": {
          "profile": [
            "http://hl7.eu/fhir/laboratory/StructureDefinition/Observation-resultslab-eu-lab"
          ]
        },
        "performer": [
          {
            "display": "The Central European Lab"
          }
        ],
        "category": [
          {
            "coding": [
              {
                "system": "http://terminology.hl7.org/CodeSystem/observation-category",
                "code": "laboratory"
              }
            ]
          }
        ],
        "code": {
          "coding": [
            {
              "code": "38483-4",
              "system": "http://loinc.org",
              "display": "Creatinine [Mass/volume] in Blood"
            }
          ],
          "text": "Creatinine [Mass/volume] in Blood"
        },
        "valueQuantity": {
          "system": "http://unitsofmeasure.org",
          "value": 3,
          "unit": "mg/dL",
          "code": "mg/dL"
        },
        "referenceRange": [
          {
            "low": {
              "value": 0.6,
              "code": "mg/dL",
              "system": "http://unitsofmeasure.org"
            }
          },
          {
            "high": {
              "value": 1.3,
              "code": "mg/dL",
              "system": "http://unitsofmeasure.org"
            }
          }
        ],
        "interpretation": [
          {
            "coding": [
              {
                "code": "H",
                "system": "http://terminology.hl7.org/CodeSystem/v3-ObservationInterpretation",
                "display": "High"
              }
            ]
          }
        ],
        "text": {
          "status": "generated",
          "div": "<div xmlns=\"http://www.w3.org/1999/xhtml\"><table class=\"hl7__eu__lab__report\"><tr><th>Test</th><th>05-Jun-2022</th><th>Reference&#xA0;Range</th><th>Unit</th></tr><tr><td>Creatinine [Mass/volume] in Blood</td><td>3.0</td><td>0.6 - 1.3</td><td>H</td><td>mg/dL</td></tr></table></div>"
        },
        "status": "final",
        "subject": {
          "reference": "urn:uuid:e45d548a-745c-4979-a6a6-41c39758c8c4",
          "display": "Aniela Prażmo"
        },
        "effectiveDateTime": "2022-06-05T13:25:25Z",
        "specimen": {
          "reference": "urn:uuid:86af7d1f-f06f-45bf-b6b5-b5a462a102bf"
        }
      }
    },
    {
      "fullUrl": "urn:uuid:43c73f79-28d8-4bd8-be01-909bdbad7527",
      "resource": {
        "resourceType": "Observation",
        "id": "43c73f79-28d8-4bd8-be01-909bdbad7527",
        "meta": {
          "profile": [
            "http://hl7.eu/fhir/laboratory/StructureDefinition/Observation-resultslab-eu-lab"
          ]
        },
        "performer": [
          {
            "display": "The Central European Lab"
          }
        ],
        "category": [
          {
            "coding": [
              {
                "system": "http://terminology.hl7.org/CodeSystem/observation-category",
                "code": "laboratory"
              }
            ]
          }
        ],
        "code": {
          "coding": [
            {
              "code": "49765-1",
              "system": "http://loinc.org",
              "display": "Calcium [Mass/volume] in Blood"
            }
          ],
          "text": "Calcium [Mass/volume] in Blood"
        },
        "valueQuantity": {
          "system": "http://unitsofmeasure.org",
          "value": 9.4,
          "unit": "mg/dL",
          "code": "mg/dL"
        },
        "referenceRange": [
          {
            "low": {
              "value": 8.5,
              "code": "mg/dL",
              "system": "http://unitsofmeasure.org"
            }
          },
          {
            "high": {
              "value": 10.5,
              "code": "mg/dL",
              "system": "http://unitsofmeasure.org"
            }
          }
        ],
        "text": {
          "status": "generated",
          "div": "<div xmlns=\"http://www.w3.org/1999/xhtml\"><table class=\"hl7__eu__lab__report\"><tr><th>Test</th><th>05-Jun-2022</th><th>Reference&#xA0;Range</th><th>Unit</th></tr><tr><td>Calcium [Mass/volume] in Blood</td><td>9.4</td><td>8.5 - 10.5</td><td></td><td>mg/dL</td></tr></table></div>"
        },
        "status": "final",
        "subject": {
          "reference": "urn:uuid:e45d548a-745c-4979-a6a6-41c39758c8c4",
          "display": "Aniela Prażmo"
        },
        "effectiveDateTime": "2022-06-05T13:25:25Z",
        "specimen": {
          "reference": "urn:uuid:86af7d1f-f06f-45bf-b6b5-b5a462a102bf"
        }
      }
    },
    {
      "fullUrl": "urn:uuid:83830198-6f3f-469a-9f57-77c9e8c53c90",
      "resource": {
        "resourceType": "Observation",
        "id": "83830198-6f3f-469a-9f57-77c9e8c53c90",
        "meta": {
          "profile": [
            "http://hl7.eu/fhir/laboratory/StructureDefinition/Observation-resultslab-eu-lab"
          ]
        },
        "performer": [
          {
            "display": "The Central European Lab"
          }
        ],
        "category": [
          {
            "coding": [
              {
                "system": "http://terminology.hl7.org/CodeSystem/observation-category",
                "code": "laboratory"
              }
            ]
          }
        ],
        "code": {
          "coding": [
            {
              "code": "2947-0",
              "system": "http://loinc.org",
              "display": "Sodium [Moles/volume] in Blood"
            }
          ],
          "text": "Sodium [Moles/volume] in Blood"
        },
        "valueQuantity": {
          "system": "http://unitsofmeasure.org",
          "value": 137.5,
          "unit": "mmol/L",
          "code": "mmol/L"
        },
        "referenceRange": [
          {
            "low": {
              "value": 135,
              "code": "mmol/L",
              "system": "http://unitsofmeasure.org"
            }
          },
          {
            "high": {
              "value": 145,
              "code": "mmol/L",
              "system": "http://unitsofmeasure.org"
            }
          }
        ],
        "text": {
          "status": "generated",
          "div": "<div xmlns=\"http://www.w3.org/1999/xhtml\"><table class=\"hl7__eu__lab__report\"><tr><th>Test</th><th>05-Jun-2022</th><th>Reference&#xA0;Range</th><th>Unit</th></tr><tr><td>Sodium [Moles/volume] in Blood</td><td>137.5</td><td>135 - 145</td><td></td><td>mmol/L</td></tr></table></div>"
        },
        "status": "final",
        "subject": {
          "reference": "urn:uuid:e45d548a-745c-4979-a6a6-41c39758c8c4",
          "display": "Aniela Prażmo"
        },
        "effectiveDateTime": "2022-06-05T13:25:25Z",
        "specimen": {
          "reference": "urn:uuid:86af7d1f-f06f-45bf-b6b5-b5a462a102bf"
        }
      }
    },
    {
      "fullUrl": "urn:uuid:496059b1-e47f-4d43-af30-853d265baf74",
      "resource": {
        "resourceType": "Observation",
        "id": "496059b1-e47f-4d43-af30-853d265baf74",
        "meta": {
          "profile": [
            "http://hl7.eu/fhir/laboratory/StructureDefinition/Observation-resultslab-eu-lab"
          ]
        },
        "performer": [
          {
            "display": "The Central European Lab"
          }
        ],
        "category": [
          {
            "coding": [
              {
                "system": "http://terminology.hl7.org/CodeSystem/observation-category",
                "code": "laboratory"
              }
            ]
          }
        ],
        "code": {
          "coding": [
            {
              "code": "6298-4",
              "system": "http://loinc.org",
              "display": "Potassium [Moles/volume] in Blood"
            }
          ],
          "text": "Potassium [Moles/volume] in Blood"
        },
        "valueQuantity": {
          "system": "http://unitsofmeasure.org",
          "value": 4.1,
          "unit": "mmol/L",
          "code": "mmol/L"
        },
        "referenceRange": [
          {
            "low": {
              "value": 3.6,
              "code": "mmol/L",
              "system": "http://unitsofmeasure.org"
            }
          },
          {
            "high": {
              "value": 5.1,
              "code": "mmol/L",
              "system": "http://unitsofmeasure.org"
            }
          }
        ],
        "text": {
          "status": "generated",
          "div": "<div xmlns=\"http://www.w3.org/1999/xhtml\"><table class=\"hl7__eu__lab__report\"><tr><th>Test</th><th>05-Jun-2022</th><th>Reference&#xA0;Range</th><th>Unit</th></tr><tr><td>Potassium [Moles/volume] in Blood</td><td>4.1</td><td>3.6 - 5.1</td><td></td><td>mmol/L</td></tr></table></div>"
        },
        "status": "final",
        "subject": {
          "reference": "urn:uuid:e45d548a-745c-4979-a6a6-41c39758c8c4",
          "display": "Aniela Prażmo"
        },
        "effectiveDateTime": "2022-06-05T13:25:25Z",
        "specimen": {
          "reference": "urn:uuid:86af7d1f-f06f-45bf-b6b5-b5a462a102bf"
        }
      }
    },
    {
      "fullUrl": "urn:uuid:069cd3e5-e5bd-4566-b8c0-5f96ce44db33",
      "resource": {
        "resourceType": "Observation",
        "id": "069cd3e5-e5bd-4566-b8c0-5f96ce44db33",
        "meta": {
          "profile": [
            "http://hl7.eu/fhir/laboratory/StructureDefinition/Observation-resultslab-eu-lab"
          ]
        },
        "performer": [
          {
            "display": "The Central European Lab"
          }
        ],
        "category": [
          {
            "coding": [
              {
                "system": "http://terminology.hl7.org/CodeSystem/observation-category",
                "code": "laboratory"
              }
            ]
          }
        ],
        "code": {
          "coding": [
            {
              "code": "2069-3",
              "system": "http://loinc.org",
              "display": "Chloride [Moles/volume] in Blood"
            }
          ],
          "text": "Chloride [Moles/volume] in Blood"
        },
        "valueQuantity": {
          "system": "http://unitsofmeasure.org",
          "value": 102.7,
          "unit": "mmol/L",
          "code": "mmol/L"
        },
        "referenceRange": [
          {
            "low": {
              "value": 98,
              "code": "mmol/L",
              "system": "http://unitsofmeasure.org"
            }
          },
          {
            "high": {
              "value": 107,
              "code": "mmol/L",
              "system": "http://unitsofmeasure.org"
            }
          }
        ],
        "text": {
          "status": "generated",
          "div": "<div xmlns=\"http://www.w3.org/1999/xhtml\"><table class=\"hl7__eu__lab__report\"><tr><th>Test</th><th>05-Jun-2022</th><th>Reference&#xA0;Range</th><th>Unit</th></tr><tr><td>Chloride [Moles/volume] in Blood</td><td>102.7</td><td>98 - 107</td><td></td><td>mmol/L</td></tr></table></div>"
        },
        "status": "final",
        "subject": {
          "reference": "urn:uuid:e45d548a-745c-4979-a6a6-41c39758c8c4",
          "display": "Aniela Prażmo"
        },
        "effectiveDateTime": "2022-06-05T13:25:25Z",
        "specimen": {
          "reference": "urn:uuid:86af7d1f-f06f-45bf-b6b5-b5a462a102bf"
        }
      }
    },
    {
      "fullUrl": "urn:uuid:28f70279-f861-4ece-b707-36803d07a17e",
      "resource": {
        "resourceType": "Observation",
        "id": "28f70279-f861-4ece-b707-36803d07a17e",
        "meta": {
          "profile": [
            "http://hl7.eu/fhir/laboratory/StructureDefinition/Observation-resultslab-eu-lab"
          ]
        },
        "performer": [
          {
            "display": "The Central European Lab"
          }
        ],
        "category": [
          {
            "coding": [
              {
                "system": "http://terminology.hl7.org/CodeSystem/observation-category",
                "code": "laboratory"
              }
            ]
          }
        ],
        "code": {
          "coding": [
            {
              "code": "20565-8",
              "system": "http://loinc.org",
              "display": "Carbon dioxide, total [Moles/volume] in Blood"
            }
          ],
          "text": "Carbon dioxide, total [Moles/volume] in Blood"
        },
        "valueQuantity": {
          "system": "http://unitsofmeasure.org",
          "value": 21.7,
          "unit": "mmol/L",
          "code": "mmol/L"
        },
        "referenceRange": [
          {
            "low": {
              "value": 22,
              "code": "mmol/L",
              "system": "http://unitsofmeasure.org"
            }
          },
          {
            "high": {
              "value": 32,
              "code": "mmol/L",
              "system": "http://unitsofmeasure.org"
            }
          }
        ],
        "interpretation": [
          {
            "coding": [
              {
                "code": "L",
                "system": "http://terminology.hl7.org/CodeSystem/v3-ObservationInterpretation",
                "display": "Low"
              }
            ]
          }
        ],
        "text": {
          "status": "generated",
          "div": "<div xmlns=\"http://www.w3.org/1999/xhtml\"><table class=\"hl7__eu__lab__report\"><tr><th>Test</th><th>05-Jun-2022</th><th>Reference&#xA0;Range</th><th>Unit</th></tr><tr><td>Carbon dioxide, total [Moles/volume] in Blood</td><td>21.7</td><td>22 - 32</td><td>L</td><td>mmol/L</td></tr></table></div>"
        },
        "status": "final",
        "subject": {
          "reference": "urn:uuid:e45d548a-745c-4979-a6a6-41c39758c8c4",
          "display": "Aniela Prażmo"
        },
        "effectiveDateTime": "2022-06-05T13:25:25Z",
        "specimen": {
          "reference": "urn:uuid:86af7d1f-f06f-45bf-b6b5-b5a462a102bf"
        }
      }
    },
    {
      "fullUrl": "urn:uuid:f8aa7a2c-ca43-45ee-bbe2-aedb40fb5991",
      "resource": {
        "resourceType": "Observation",
        "id": "f8aa7a2c-ca43-45ee-bbe2-aedb40fb5991",
        "meta": {
          "profile": [
            "http://hl7.eu/fhir/laboratory/StructureDefinition/Observation-resultslab-eu-lab"
          ]
        },
        "performer": [
          {
            "display": "The Central European Lab"
          }
        ],
        "category": [
          {
            "coding": [
              {
                "system": "http://terminology.hl7.org/CodeSystem/observation-category",
                "code": "laboratory"
              }
            ]
          }
        ],
        "code": {
          "coding": [
            {
              "code": "2885-2",
              "system": "http://loinc.org",
              "display": "Protein [Mass/volume] in Serum or Plasma"
            }
          ],
          "text": "Protein [Mass/volume] in Serum or Plasma"
        },
        "valueQuantity": {
          "system": "http://unitsofmeasure.org",
          "value": 7.3,
          "unit": "g/dL",
          "code": "g/dL"
        },
        "referenceRange": [
          {
            "low": {
              "value": 6,
              "code": "g/dL",
              "system": "http://unitsofmeasure.org"
            }
          },
          {
            "high": {
              "value": 8.3,
              "code": "g/dL",
              "system": "http://unitsofmeasure.org"
            }
          }
        ],
        "text": {
          "status": "generated",
          "div": "<div xmlns=\"http://www.w3.org/1999/xhtml\"><table class=\"hl7__eu__lab__report\"><tr><th>Test</th><th>05-Jun-2022</th><th>Reference&#xA0;Range</th><th>Unit</th></tr><tr><td>Protein [Mass/volume] in Serum or Plasma</td><td>7.3</td><td>6 - 8.3</td><td></td><td>g/dL</td></tr></table></div>"
        },
        "status": "final",
        "subject": {
          "reference": "urn:uuid:e45d548a-745c-4979-a6a6-41c39758c8c4",
          "display": "Aniela Prażmo"
        },
        "effectiveDateTime": "2022-06-05T13:25:25Z",
        "specimen": {
          "reference": "urn:uuid:5752dd48-f8b6-4f0d-9b86-af527be7995a"
        }
      }
    },
    {
      "fullUrl": "urn:uuid:a85e346b-5e38-49eb-8a2a-0bd2a87228f8",
      "resource": {
        "resourceType": "Observation",
        "id": "a85e346b-5e38-49eb-8a2a-0bd2a87228f8",
        "meta": {
          "profile": [
            "http://hl7.eu/fhir/laboratory/StructureDefinition/Observation-resultslab-eu-lab"
          ]
        },
        "performer": [
          {
            "display": "The Central European Lab"
          }
        ],
        "category": [
          {
            "coding": [
              {
                "system": "http://terminology.hl7.org/CodeSystem/observation-category",
                "code": "laboratory"
              }
            ]
          }
        ],
        "code": {
          "coding": [
            {
              "code": "1751-7",
              "system": "http://loinc.org",
              "display": "Albumin [Mass/volume] in Serum or Plasma"
            }
          ],
          "text": "Albumin [Mass/volume] in Serum or Plasma"
        },
        "valueQuantity": {
          "system": "http://unitsofmeasure.org",
          "value": 4.8,
          "unit": "g/dL",
          "code": "g/dL"
        },
        "referenceRange": [
          {
            "low": {
              "value": 3.5,
              "code": "g/dL",
              "system": "http://unitsofmeasure.org"
            }
          },
          {
            "high": {
              "value": 5,
              "code": "g/dL",
              "system": "http://unitsofmeasure.org"
            }
          }
        ],
        "text": {
          "status": "generated",
          "div": "<div xmlns=\"http://www.w3.org/1999/xhtml\"><table class=\"hl7__eu__lab__report\"><tr><th>Test</th><th>05-Jun-2022</th><th>Reference&#xA0;Range</th><th>Unit</th></tr><tr><td>Albumin [Mass/volume] in Serum or Plasma</td><td>4.8</td><td>3.5 - 5</td><td></td><td>g/dL</td></tr></table></div>"
        },
        "status": "final",
        "subject": {
          "reference": "urn:uuid:e45d548a-745c-4979-a6a6-41c39758c8c4",
          "display": "Aniela Prażmo"
        },
        "effectiveDateTime": "2022-06-05T13:25:25Z",
        "specimen": {
          "reference": "urn:uuid:5752dd48-f8b6-4f0d-9b86-af527be7995a"
        }
      }
    },
    {
      "fullUrl": "urn:uuid:e4a40562-79fa-4d2e-85da-4a3a20ce5504",
      "resource": {
        "resourceType": "Observation",
        "id": "e4a40562-79fa-4d2e-85da-4a3a20ce5504",
        "meta": {
          "profile": [
            "http://hl7.eu/fhir/laboratory/StructureDefinition/Observation-resultslab-eu-lab"
          ]
        },
        "performer": [
          {
            "display": "The Central European Lab"
          }
        ],
        "category": [
          {
            "coding": [
              {
                "system": "http://terminology.hl7.org/CodeSystem/observation-category",
                "code": "laboratory"
              }
            ]
          }
        ],
        "code": {
          "coding": [
            {
              "code": "10834-0",
              "system": "http://loinc.org",
              "display": "Globulin [Mass/volume] in Serum by calculation"
            }
          ],
          "text": "Globulin [Mass/volume] in Serum by calculation"
        },
        "valueQuantity": {
          "system": "http://unitsofmeasure.org",
          "value": 2.1,
          "unit": "g/L",
          "code": "g/L"
        },
        "referenceRange": [
          {
            "low": {
              "value": 2,
              "code": "g/L",
              "system": "http://unitsofmeasure.org"
            }
          },
          {
            "high": {
              "value": 3.9,
              "code": "g/L",
              "system": "http://unitsofmeasure.org"
            }
          }
        ],
        "text": {
          "status": "generated",
          "div": "<div xmlns=\"http://www.w3.org/1999/xhtml\"><table class=\"hl7__eu__lab__report\"><tr><th>Test</th><th>05-Jun-2022</th><th>Reference&#xA0;Range</th><th>Unit</th></tr><tr><td>Globulin [Mass/volume] in Serum by calculation</td><td>2.1</td><td>2 - 3.9</td><td></td><td>g/L</td></tr></table></div>"
        },
        "status": "final",
        "subject": {
          "reference": "urn:uuid:e45d548a-745c-4979-a6a6-41c39758c8c4",
          "display": "Aniela Prażmo"
        },
        "effectiveDateTime": "2022-06-05T13:25:25Z",
        "specimen": {
          "reference": "urn:uuid:580fae06-9690-4c56-8e19-1b5eb6fe8158"
        }
      }
    },
    {
      "fullUrl": "urn:uuid:21a8225f-574a-4dcc-bcda-91488a258cf6",
      "resource": {
        "resourceType": "Observation",
        "id": "21a8225f-574a-4dcc-bcda-91488a258cf6",
        "meta": {
          "profile": [
            "http://hl7.eu/fhir/laboratory/StructureDefinition/Observation-resultslab-eu-lab"
          ]
        },
        "performer": [
          {
            "display": "The Central European Lab"
          }
        ],
        "category": [
          {
            "coding": [
              {
                "system": "http://terminology.hl7.org/CodeSystem/observation-category",
                "code": "laboratory"
              }
            ]
          }
        ],
        "code": {
          "coding": [
            {
              "code": "1975-2",
              "system": "http://loinc.org",
              "display": "Bilirubin.total [Mass/volume] in Serum or Plasma"
            }
          ],
          "text": "Bilirubin.total [Mass/volume] in Serum or Plasma"
        },
        "valueQuantity": {
          "system": "http://unitsofmeasure.org",
          "value": 0.6,
          "unit": "mg/dL",
          "code": "mg/dL"
        },
        "referenceRange": [
          {
            "low": {
              "value": 0.3,
              "code": "mg/dL",
              "system": "http://unitsofmeasure.org"
            }
          },
          {
            "high": {
              "value": 1.2,
              "code": "mg/dL",
              "system": "http://unitsofmeasure.org"
            }
          }
        ],
        "text": {
          "status": "generated",
          "div": "<div xmlns=\"http://www.w3.org/1999/xhtml\"><table class=\"hl7__eu__lab__report\"><tr><th>Test</th><th>05-Jun-2022</th><th>Reference&#xA0;Range</th><th>Unit</th></tr><tr><td>Bilirubin.total [Mass/volume] in Serum or Plasma</td><td>0.6</td><td>0.3 - 1.2</td><td></td><td>mg/dL</td></tr></table></div>"
        },
        "status": "final",
        "subject": {
          "reference": "urn:uuid:e45d548a-745c-4979-a6a6-41c39758c8c4",
          "display": "Aniela Prażmo"
        },
        "effectiveDateTime": "2022-06-05T13:25:25Z",
        "specimen": {
          "reference": "urn:uuid:5752dd48-f8b6-4f0d-9b86-af527be7995a"
        }
      }
    },
    {
      "fullUrl": "urn:uuid:322fbf61-642b-4eaf-9a27-59f6b5ffa8a7",
      "resource": {
        "resourceType": "Observation",
        "id": "322fbf61-642b-4eaf-9a27-59f6b5ffa8a7",
        "meta": {
          "profile": [
            "http://hl7.eu/fhir/laboratory/StructureDefinition/Observation-resultslab-eu-lab"
          ]
        },
        "performer": [
          {
            "display": "The Central European Lab"
          }
        ],
        "category": [
          {
            "coding": [
              {
                "system": "http://terminology.hl7.org/CodeSystem/observation-category",
                "code": "laboratory"
              }
            ]
          }
        ],
        "code": {
          "coding": [
            {
              "code": "6768-6",
              "system": "http://loinc.org",
              "display": "Alkaline phosphatase [Enzymatic activity/volume] in Serum or Plasma"
            }
          ],
          "text": "Alkaline phosphatase [Enzymatic activity/volume] in Serum or Plasma"
        },
        "valueQuantity": {
          "system": "http://unitsofmeasure.org",
          "value": 123.9,
          "unit": "U/L",
          "code": "U/L"
        },
        "referenceRange": [
          {
            "low": {
              "value": 32,
              "code": "U/L",
              "system": "http://unitsofmeasure.org"
            }
          },
          {
            "high": {
              "value": 150,
              "code": "U/L",
              "system": "http://unitsofmeasure.org"
            }
          }
        ],
        "text": {
          "status": "generated",
          "div": "<div xmlns=\"http://www.w3.org/1999/xhtml\"><table class=\"hl7__eu__lab__report\"><tr><th>Test</th><th>05-Jun-2022</th><th>Reference&#xA0;Range</th><th>Unit</th></tr><tr><td>Alkaline phosphatase [Enzymatic activity/volume] in Serum or Plasma</td><td>123.9</td><td>32 - 150</td><td></td><td>U/L</td></tr></table></div>"
        },
        "status": "final",
        "subject": {
          "reference": "urn:uuid:e45d548a-745c-4979-a6a6-41c39758c8c4",
          "display": "Aniela Prażmo"
        },
        "effectiveDateTime": "2022-06-05T13:25:25Z",
        "specimen": {
          "reference": "urn:uuid:5752dd48-f8b6-4f0d-9b86-af527be7995a"
        }
      }
    },
    {
      "fullUrl": "urn:uuid:6e2b7ec7-d88b-4fe3-9ad2-68c3d6bbc6dd",
      "resource": {
        "resourceType": "Observation",
        "id": "6e2b7ec7-d88b-4fe3-9ad2-68c3d6bbc6dd",
        "meta": {
          "profile": [
            "http://hl7.eu/fhir/laboratory/StructureDefinition/Observation-resultslab-eu-lab"
          ]
        },
        "performer": [
          {
            "display": "The Central European Lab"
          }
        ],
        "category": [
          {
            "coding": [
              {
                "system": "http://terminology.hl7.org/CodeSystem/observation-category",
                "code": "laboratory"
              }
            ]
          }
        ],
        "code": {
          "coding": [
            {
              "code": "1742-6",
              "system": "http://loinc.org",
              "display": "Alanine aminotransferase [Enzymatic activity/volume] in Serum or Plasma"
            }
          ],
          "text": "Alanine aminotransferase [Enzymatic activity/volume] in Serum or Plasma"
        },
        "valueQuantity": {
          "system": "http://unitsofmeasure.org",
          "value": 41.6,
          "unit": "U/L",
          "code": "U/L"
        },
        "referenceRange": [
          {
            "low": {
              "value": 13,
              "code": "U/L",
              "system": "http://unitsofmeasure.org"
            }
          },
          {
            "high": {
              "value": 32,
              "code": "U/L",
              "system": "http://unitsofmeasure.org"
            }
          }
        ],
        "interpretation": [
          {
            "coding": [
              {
                "code": "H",
                "system": "http://terminology.hl7.org/CodeSystem/v3-ObservationInterpretation",
                "display": "High"
              }
            ]
          }
        ],
        "text": {
          "status": "generated",
          "div": "<div xmlns=\"http://www.w3.org/1999/xhtml\"><table class=\"hl7__eu__lab__report\"><tr><th>Test</th><th>05-Jun-2022</th><th>Reference&#xA0;Range</th><th>Unit</th></tr><tr><td>Alanine aminotransferase [Enzymatic activity/volume] in Serum or Plasma</td><td>41.6</td><td>13 - 32</td><td>H</td><td>U/L</td></tr></table></div>"
        },
        "status": "final",
        "subject": {
          "reference": "urn:uuid:e45d548a-745c-4979-a6a6-41c39758c8c4",
          "display": "Aniela Prażmo"
        },
        "effectiveDateTime": "2022-06-05T13:25:25Z",
        "specimen": {
          "reference": "urn:uuid:5752dd48-f8b6-4f0d-9b86-af527be7995a"
        }
      }
    },
    {
      "fullUrl": "urn:uuid:61fa48f5-83b4-4544-ac0f-999276d27986",
      "resource": {
        "resourceType": "Observation",
        "id": "61fa48f5-83b4-4544-ac0f-999276d27986",
        "meta": {
          "profile": [
            "http://hl7.eu/fhir/laboratory/StructureDefinition/Observation-resultslab-eu-lab"
          ]
        },
        "performer": [
          {
            "display": "The Central European Lab"
          }
        ],
        "category": [
          {
            "coding": [
              {
                "system": "http://terminology.hl7.org/CodeSystem/observation-category",
                "code": "laboratory"
              }
            ]
          }
        ],
        "code": {
          "coding": [
            {
              "code": "1920-8",
              "system": "http://loinc.org",
              "display": "Aspartate aminotransferase [Enzymatic activity/volume] in Serum or Plasma"
            }
          ],
          "text": "Aspartate aminotransferase [Enzymatic activity/volume] in Serum or Plasma"
        },
        "valueQuantity": {
          "system": "http://unitsofmeasure.org",
          "value": 37.8,
          "unit": "U/L",
          "code": "U/L"
        },
        "referenceRange": [
          {
            "low": {
              "value": 10,
              "code": "U/L",
              "system": "http://unitsofmeasure.org"
            }
          },
          {
            "high": {
              "value": 40,
              "code": "U/L",
              "system": "http://unitsofmeasure.org"
            }
          }
        ],
        "text": {
          "status": "generated",
          "div": "<div xmlns=\"http://www.w3.org/1999/xhtml\"><table class=\"hl7__eu__lab__report\"><tr><th>Test</th><th>05-Jun-2022</th><th>Reference&#xA0;Range</th><th>Unit</th></tr><tr><td>Aspartate aminotransferase [Enzymatic activity/volume] in Serum or Plasma</td><td>37.8</td><td>10 - 40</td><td></td><td>U/L</td></tr></table></div>"
        },
        "status": "final",
        "subject": {
          "reference": "urn:uuid:e45d548a-745c-4979-a6a6-41c39758c8c4",
          "display": "Aniela Prażmo"
        },
        "effectiveDateTime": "2022-06-05T13:25:25Z",
        "specimen": {
          "reference": "urn:uuid:5752dd48-f8b6-4f0d-9b86-af527be7995a"
        }
      }
    },
    {
      "fullUrl": "urn:uuid:94abb088-0340-4640-8b1b-4a027410f20c",
      "resource": {
        "resourceType": "Observation",
        "id": "94abb088-0340-4640-8b1b-4a027410f20c",
        "meta": {
          "profile": [
            "http://hl7.eu/fhir/laboratory/StructureDefinition/Observation-resultslab-eu-lab"
          ]
        },
        "performer": [
          {
            "display": "The Central European Lab"
          }
        ],
        "category": [
          {
            "coding": [
              {
                "system": "http://terminology.hl7.org/CodeSystem/observation-category",
                "code": "laboratory"
              }
            ]
          }
        ],
        "code": {
          "coding": [
            {
              "code": "2093-3",
              "system": "http://loinc.org",
              "display": "Cholesterol [Mass/volume] in Serum or Plasma"
            }
          ],
          "text": "Cholesterol [Mass/volume] in Serum or Plasma"
        },
        "valueQuantity": {
          "system": "http://unitsofmeasure.org",
          "value": 176.9,
          "unit": "mg/dL",
          "code": "mg/dL"
        },
        "referenceRange": [
          {
            "low": {
              "value": 130,
              "code": "mg/dL",
              "system": "http://unitsofmeasure.org"
            }
          },
          {
            "high": {
              "value": 200,
              "code": "mg/dL",
              "system": "http://unitsofmeasure.org"
            }
          }
        ],
        "text": {
          "status": "generated",
          "div": "<div xmlns=\"http://www.w3.org/1999/xhtml\"><table class=\"hl7__eu__lab__report\"><tr><th>Test</th><th>05-Jun-2022</th><th>Reference&#xA0;Range</th><th>Unit</th></tr><tr><td>Cholesterol [Mass/volume] in Serum or Plasma</td><td>176.9</td><td>130 - 200</td><td></td><td>mg/dL</td></tr></table></div>"
        },
        "status": "final",
        "subject": {
          "reference": "urn:uuid:e45d548a-745c-4979-a6a6-41c39758c8c4",
          "display": "Aniela Prażmo"
        },
        "effectiveDateTime": "2022-06-05T13:25:25Z",
        "specimen": {
          "reference": "urn:uuid:5752dd48-f8b6-4f0d-9b86-af527be7995a"
        }
      }
    },
    {
      "fullUrl": "urn:uuid:5c833c11-86a9-4c4c-a985-e0d80b084322",
      "resource": {
        "resourceType": "Observation",
        "id": "5c833c11-86a9-4c4c-a985-e0d80b084322",
        "meta": {
          "profile": [
            "http://hl7.eu/fhir/laboratory/StructureDefinition/Observation-resultslab-eu-lab"
          ]
        },
        "performer": [
          {
            "display": "The Central European Lab"
          }
        ],
        "category": [
          {
            "coding": [
              {
                "system": "http://terminology.hl7.org/CodeSystem/observation-category",
                "code": "laboratory"
              }
            ]
          }
        ],
        "code": {
          "coding": [
            {
              "code": "2571-8",
              "system": "http://loinc.org",
              "display": "Triglyceride [Mass/volume] in Serum or Plasma"
            }
          ],
          "text": "Triglyceride [Mass/volume] in Serum or Plasma"
        },
        "valueQuantity": {
          "system": "http://unitsofmeasure.org",
          "value": 150.2,
          "unit": "mg/dL",
          "code": "mg/dL"
        },
        "referenceRange": [
          {
            "low": {
              "value": 0,
              "code": "mg/dL",
              "system": "http://unitsofmeasure.org"
            }
          },
          {
            "high": {
              "value": 199,
              "code": "mg/dL",
              "system": "http://unitsofmeasure.org"
            }
          }
        ],
        "text": {
          "status": "generated",
          "div": "<div xmlns=\"http://www.w3.org/1999/xhtml\"><table class=\"hl7__eu__lab__report\"><tr><th>Test</th><th>05-Jun-2022</th><th>Reference&#xA0;Range</th><th>Unit</th></tr><tr><td>Triglyceride [Mass/volume] in Serum or Plasma</td><td>150.2</td><td>0 - 199</td><td></td><td>mg/dL</td></tr></table></div>"
        },
        "status": "final",
        "subject": {
          "reference": "urn:uuid:e45d548a-745c-4979-a6a6-41c39758c8c4",
          "display": "Aniela Prażmo"
        },
        "effectiveDateTime": "2022-06-05T13:25:25Z",
        "specimen": {
          "reference": "urn:uuid:5752dd48-f8b6-4f0d-9b86-af527be7995a"
        }
      }
    },
    {
      "fullUrl": "urn:uuid:b668b81b-3ab8-468c-8802-1adba72853aa",
      "resource": {
        "resourceType": "Observation",
        "id": "b668b81b-3ab8-468c-8802-1adba72853aa",
        "meta": {
          "profile": [
            "http://hl7.eu/fhir/laboratory/StructureDefinition/Observation-resultslab-eu-lab"
          ]
        },
        "performer": [
          {
            "display": "The Central European Lab"
          }
        ],
        "category": [
          {
            "coding": [
              {
                "system": "http://terminology.hl7.org/CodeSystem/observation-category",
                "code": "laboratory"
              }
            ]
          }
        ],
        "code": {
          "coding": [
            {
              "code": "18262-6",
              "system": "http://loinc.org",
              "display": "Cholesterol in LDL [Mass/volume] in Serum or Plasma by Direct assay"
            }
          ],
          "text": "Cholesterol in LDL [Mass/volume] in Serum or Plasma by Direct assay"
        },
        "valueQuantity": {
          "system": "http://unitsofmeasure.org",
          "value": 82.6,
          "unit": "mg/dL",
          "code": "mg/dL"
        },
        "referenceRange": [
          {
            "low": {
              "value": 0,
              "code": "mg/dL",
              "system": "http://unitsofmeasure.org"
            }
          },
          {
            "high": {
              "value": 130,
              "code": "mg/dL",
              "system": "http://unitsofmeasure.org"
            }
          }
        ],
        "text": {
          "status": "generated",
          "div": "<div xmlns=\"http://www.w3.org/1999/xhtml\"><table class=\"hl7__eu__lab__report\"><tr><th>Test</th><th>05-Jun-2022</th><th>Reference&#xA0;Range</th><th>Unit</th></tr><tr><td>Cholesterol in LDL [Mass/volume] in Serum or Plasma by Direct assay</td><td>82.6</td><td>0 - 130</td><td></td><td>mg/dL</td></tr></table></div>"
        },
        "status": "final",
        "subject": {
          "reference": "urn:uuid:e45d548a-745c-4979-a6a6-41c39758c8c4",
          "display": "Aniela Prażmo"
        },
        "effectiveDateTime": "2022-06-05T13:25:25Z",
        "specimen": {
          "reference": "urn:uuid:5752dd48-f8b6-4f0d-9b86-af527be7995a"
        }
      }
    },
    {
      "fullUrl": "urn:uuid:4eb2cf7c-14f1-4ef7-8a0d-4526f0aaa222",
      "resource": {
        "resourceType": "Observation",
        "id": "4eb2cf7c-14f1-4ef7-8a0d-4526f0aaa222",
        "meta": {
          "profile": [
            "http://hl7.eu/fhir/laboratory/StructureDefinition/Observation-resultslab-eu-lab"
          ]
        },
        "performer": [
          {
            "display": "The Central European Lab"
          }
        ],
        "category": [
          {
            "coding": [
              {
                "system": "http://terminology.hl7.org/CodeSystem/observation-category",
                "code": "laboratory"
              }
            ]
          }
        ],
        "code": {
          "coding": [
            {
              "code": "2085-9",
              "system": "http://loinc.org",
              "display": "Cholesterol in HDL [Mass/volume] in Serum or Plasma"
            }
          ],
          "text": "Cholesterol in HDL [Mass/volume] in Serum or Plasma"
        },
        "valueQuantity": {
          "system": "http://unitsofmeasure.org",
          "value": 72.8,
          "unit": "mg/dL",
          "code": "mg/dL"
        },
        "referenceRange": [
          {
            "low": {
              "value": 50,
              "code": "mg/dL",
              "system": "http://unitsofmeasure.org"
            }
          },
          {
            "high": {
              "value": 100,
              "code": "mg/dL",
              "system": "http://unitsofmeasure.org"
            }
          }
        ],
        "text": {
          "status": "generated",
          "div": "<div xmlns=\"http://www.w3.org/1999/xhtml\"><table class=\"hl7__eu__lab__report\"><tr><th>Test</th><th>05-Jun-2022</th><th>Reference&#xA0;Range</th><th>Unit</th></tr><tr><td>Cholesterol in HDL [Mass/volume] in Serum or Plasma</td><td>72.8</td><td>50 - 100</td><td></td><td>mg/dL</td></tr></table></div>"
        },
        "status": "final",
        "subject": {
          "reference": "urn:uuid:e45d548a-745c-4979-a6a6-41c39758c8c4",
          "display": "Aniela Prażmo"
        },
        "effectiveDateTime": "2022-06-05T13:25:25Z",
        "specimen": {
          "reference": "urn:uuid:5752dd48-f8b6-4f0d-9b86-af527be7995a"
        }
      }
    },
    {
      "fullUrl": "urn:uuid:9e456941-d1f6-4d46-b5db-cf888d3b56f6",
      "resource": {
        "resourceType": "Device",
        "id": "9e456941-d1f6-4d46-b5db-cf888d3b56f6",
        "deviceName": [
          {
            "name": "SYNDERAI Synthetic Generator",
            "type": "manufacturer-name"
          }
        ],
        "version": [
          {
            "value": "5.0"
          }
        ],
        "text": {
          "status": "generated",
          "div": "<div xmlns=\"http://www.w3.org/1999/xhtml\">SYNDERAI Synthetic Generator v5.0</div>"
        },
        "status": "active\"",
        "distinctIdentifier": "synderai-generator-50",
        "manufacturer": "SYNDERAI Project"
      }
    },
    {
      "fullUrl": "urn:uuid:0355e529-381d-45f4-9cf3-98aaaa69f771",
      "resource": {
        "resourceType": "Provenance",
        "id": "0355e529-381d-45f4-9cf3-98aaaa69f771",
        "target": [
          {
            "reference": "Patient/e45d548a-745c-4979-a6a6-41c39758c8c4"
          },
          {
            "reference": "Bundle/4bc5f992-0a3f-4f30-bc52-95a093bbed6a"
          },
          {
            "reference": "Composition/22a7cc33-e7bc-4a11-a522-4af54806bb93"
          },
          {
            "reference": "PractitionerRole/01d6f5e8-560a-42cd-a1d1-032f88075387"
          },
          {
            "reference": "Practitioner/4d7c6fe1-1294-4c48-9281-5a93c821edfa"
          },
          {
            "reference": "PractitionerRole/3c74be81-a29f-48cf-8e86-26014f2fb881"
          },
          {
            "reference": "Organization/bc8995b2-f3fd-47f5-931f-406d8f60aeae"
          }
        ],
        "activity": {
          "text": "Synthetic Example Data Generation"
        },
        "policy": [
          "https://synderai.net/synderai-synthetic-data-policy"
        ],
        "agent": [
          {
            "type": {
              "text": "author"
            },
            "who": {
              "reference": "Device/9e456941-d1f6-4d46-b5db-cf888d3b56f6"
            }
          }
        ],
        "reason": [
          {
            "text": "Interoperability Testing and Training (non-clinical use)"
          }
        ],
        "text": {
          "status": "generated",
          "div": "<div xmlns=\"http://www.w3.org/1999/xhtml\">Provenance for SYNDERAI Synthetic Example Data Resource</div>"
        },
        "recorded": "2022-06-05T15:25:25Z"
      }
    },
    {
      "fullUrl": "urn:uuid:01d6f5e8-560a-42cd-a1d1-032f88075387",
      "resource": {
        "resourceType": "PractitionerRole",
        "id": "01d6f5e8-560a-42cd-a1d1-032f88075387",
        "meta": {
          "profile": [
            "http://hl7.eu/fhir/base/StructureDefinition/practitionerRole-eu"
          ]
        },
        "text": {
          "status": "generated",
          "div": "<div xmlns=\"http://www.w3.org/1999/xhtml\">Laboratory Role Id: 01d6f5e8-560a-42cd-a1d1-032f88075387</div>"
        },
        "practitioner": {
          "reference": "urn:uuid:4d7c6fe1-1294-4c48-9281-5a93c821edfa"
        }
      }
    },
    {
      "fullUrl": "urn:uuid:4d7c6fe1-1294-4c48-9281-5a93c821edfa",
      "resource": {
        "resourceType": "Practitioner",
        "id": "4d7c6fe1-1294-4c48-9281-5a93c821edfa",
        "meta": {
          "profile": [
            "http://hl7.eu/fhir/base/StructureDefinition/practitioner-eu"
          ]
        },
        "identifier": [
          {
            "assigner": {
              "display": "HL7 Europe"
            },
            "system": "urn:oid:2.16.840.1.113883.2.51.999",
            "value": "6e7d96d2-8fcb-4fba-acbb-b6ad31a45a9f"
          }
        ],
        "name": [
          {
            "prefix": [
              "dr"
            ],
            "given": [
              "Ex"
            ],
            "family": "Ample"
          }
        ],
        "address": [
          {
            "line": [
              "Laboratoire Central Européenne",
              "Boulevard du Jardin Botanique 32"
            ],
            "postalCode": "1000",
            "city": "Brussels",
            "country": "Belgium"
          }
        ],
        "text": {
          "status": "generated",
          "div": "<div xmlns=\"http://www.w3.org/1999/xhtml\">Laboratory: Laboratoire Central Européenne, 1000 Brussels, Belgium</div>"
        }
      }
    }
  ],
  "type": "document",
  "timestamp": "2022-06-05T15:25:25Z"
}
