{
  "resourceType": "Bundle",
  "id": "f03da6a5-665d-4cfd-902f-89fc887c4529",
  "meta": {
    "profile": [
      "http://hl7.eu/fhir/laboratory/StructureDefinition/Bundle-eu-lab"
    ]
  },
  "identifier": {
    "assigner": {
      "display": "HL7 Europe"
    },
    "system": "urn:oid:2.16.840.1.113883.2.51.999",
    "value": "706aea01-df31-4680-8946-3c55e554c154"
  },
  "entry": [
    {
      "fullUrl": "urn:uuid:a3568b44-a95c-4624-9c6a-c5b4cfc697d8",
      "resource": {
        "resourceType": "Composition",
        "id": "a3568b44-a95c-4624-9c6a-c5b4cfc697d8",
        "meta": {
          "profile": [
            "http://hl7.eu/fhir/laboratory/StructureDefinition/Composition-eu-lab"
          ]
        },
        "identifier": {
          "assigner": {
            "display": "HL7 Europe"
          },
          "system": "urn:oid:2.16.840.1.113883.2.51.999",
          "value": "71fcdb0e-4b2c-4d2d-9a65-388cc4d1dbf3"
        },
        "author": [
          {
            "reference": "urn:uuid:7df8b35a-4792-4d2b-ab38-b6d9c97fbcd6"
          }
        ],
        "category": [
          {
            "coding": [
              {
                "code": "26436-6",
                "system": "http://loinc.org",
                "display": "Laboratory studies (set)"
              }
            ]
          }
        ],
        "type": {
          "coding": [
            {
              "code": "11502-2",
              "system": "http://loinc.org",
              "display": "Laboratory report"
            }
          ],
          "text": "Laboratory Report"
        },
        "section": [
          {
            "code": {
              "coding": [
                {
                  "code": "26436-6",
                  "system": "http://loinc.org",
                  "display": "Laboratory studies (set)"
                }
              ],
              "text": "Laboratory studies"
            },
            "section": [
              {
                "code": {
                  "coding": [
                    {
                      "code": "$18719-5",
                      "system": "http://loinc.org",
                      "display": "Chemistry studies (set)"
                    }
                  ],
                  "text": "Chemistry"
                },
                "entry": [
                  {
                    "reference": "urn:uuid:9d5d5021-b359-44dc-803d-a7c7967f0de3"
                  }
                ],
                "text": {
                  "status": "generated",
                  "div": "<div xmlns=\"http://www.w3.org/1999/xhtml\"><h3>Chemistry</h3><table class=\"hl7__eu__lab__report\"><thead><tr><th>Test</th><th>11-NOV-2020</th><th>Reference&#xA0;Range</th><th>Unit</th></tr></thead><tbody><tr><td>Ketones [Presence] in Urine by Test strip</td><td>Urine ketone test negative</td><td></td><td></td></tr></tbody></table></div>"
                },
                "title": "Chemistry"
              },
              {
                "code": {
                  "coding": [
                    {
                      "code": "$18729-4",
                      "system": "http://loinc.org",
                      "display": "Urinalysis studies (set)"
                    }
                  ],
                  "text": "Urinalysis"
                },
                "entry": [
                  {
                    "reference": "urn:uuid:51f19bbc-7cd3-4c8a-a6f4-42c8235a5f2d"
                  },
                  {
                    "reference": "urn:uuid:462f7344-f782-49db-8ab0-f5200d9ad247"
                  },
                  {
                    "reference": "urn:uuid:d105ade2-ae3d-4441-87c1-410a917524b5"
                  },
                  {
                    "reference": "urn:uuid:71e9c9cd-f13c-4fbb-adb2-75434d8f9896"
                  },
                  {
                    "reference": "urn:uuid:d4c9e6b5-fe03-45cb-aac4-d70c205d3d18"
                  },
                  {
                    "reference": "urn:uuid:5bf1d12b-6ebe-4ff2-b781-afdd1d17772f"
                  },
                  {
                    "reference": "urn:uuid:866ad135-fcb5-4b65-89c5-6e2ad0741a46"
                  },
                  {
                    "reference": "urn:uuid:ee633e2c-7b2c-42f7-97b2-61437aba2753"
                  },
                  {
                    "reference": "urn:uuid:a2d2ba9e-a495-4108-9a67-da0fc3b8efa3"
                  },
                  {
                    "reference": "urn:uuid:0882efd1-d69a-470e-b4d8-84a1d7e76130"
                  },
                  {
                    "reference": "urn:uuid:8922038f-14da-4d74-a6f7-3fa4eebdc244"
                  },
                  {
                    "reference": "urn:uuid:07e7043e-8b33-4c27-9dac-4cef3638b96b"
                  },
                  {
                    "reference": "urn:uuid:6c4c2efd-a4ed-4cef-bf9d-1eaaa58d92c2"
                  }
                ],
                "text": {
                  "status": "generated",
                  "div": "<div xmlns=\"http://www.w3.org/1999/xhtml\"><h3>Urinalysis</h3><table class=\"hl7__eu__lab__report\"><thead><tr><th>Test</th><th>11-NOV-2020</th><th>Reference&#xA0;Range</th><th>Unit</th></tr></thead><tbody><tr><td>Glucose [Mass/volume] in Urine by Test strip</td><td><strong>10.3 H</strong></td><td>0 - 0.8</td><td>mg/dL</td></tr><tr><td>Specific gravity of Urine by Test strip</td><td><strong>1.0 L</strong></td><td>1.005 - 1.03</td><td>{nominal}</td></tr><tr><td>pH of Urine by Test strip</td><td>6.0</td><td>4.6 - 7</td><td>pH</td></tr><tr><td>Protein [Mass/volume] in Urine by Test strip</td><td>10.6</td><td>0 - 145</td><td>mg/dL</td></tr><tr><td>Nitrite [Presence] in Urine by Test strip</td><td>Urine nitrite positive</td><td></td><td></td></tr><tr><td>Hemoglobin [Presence] in Urine by Test strip</td><td>Urine blood test = +</td><td></td><td></td></tr><tr><td>Leukocyte esterase [Presence] in Urine by Test strip</td><td>Urine leukocyte test</td><td></td><td></td></tr><tr><td>Leukocytes [#/area] in Urine sediment by Microscopy high power field</td><td>42.7</td><td>0 - 50</td><td>/[HPF]</td></tr><tr><td>Erythrocytes [#/area] in Urine sediment by Microscopy high power field</td><td>1.3</td><td>0 - 3</td><td>/[HPF]</td></tr><tr><td>Epithelial cells [#/area] in Urine sediment by Microscopy high power field</td><td>3.5</td><td>0 - 10</td><td>/[HPF]</td></tr><tr><td>Casts [Presence] in Urine sediment by Light microscopy</td><td>Urine microscopy: no casts</td><td></td><td></td></tr><tr><td>Mucus [Presence] in Urine sediment by Light microscopy</td><td>Mucus in urine</td><td></td><td></td></tr><tr><td>Bacteria [#/area] in Urine sediment by Microscopy high power field</td><td>Finding of presence of bacteria</td><td></td><td></td></tr></tbody></table></div>"
                },
                "title": "Urinalysis"
              },
              {
                "code": {
                  "coding": [
                    {
                      "code": "$18725-2",
                      "system": "http://loinc.org",
                      "display": "Microbiology studies"
                    }
                  ],
                  "text": "Microbiology"
                },
                "entry": [
                  {
                    "reference": "urn:uuid:4c2259a2-4eb3-4279-b1d8-e6249bd955a9"
                  }
                ],
                "text": {
                  "status": "generated",
                  "div": "<div xmlns=\"http://www.w3.org/1999/xhtml\"><h3>Microbiology</h3><table class=\"hl7__eu__lab__report\"><thead><tr><th>Test</th><th>11-NOV-2020</th><th>Reference&#xA0;Range</th><th>Unit</th></tr></thead><tbody><tr><td>Bacteria identified in Urine by Culture</td><td></td><td></td><td></td></tr></tbody></table></div>"
                },
                "title": "Microbiology"
              }
            ],
            "title": "Laboratory Report"
          },
          {
            "text": {
              "status": "generated",
              "div": "<div xmlns=\"http://www.w3.org/1999/xhtml\"><h3>Annotation</h3><table class=\"hl7__eu__lab__report\"><tr><th>Conclusion and Recommendations based on this report and previous findings known to us</th></tr><tr><td>Urinalysis shows significant glucosuria, low specific gravity, positive nitrites, leukocyte esterase, blood, and presence of bacteria, with urine culture growing &gt;100,000 CFU/mL Klebsiella pneumoniae. Findings are consistent with a urinary tract infection, likely complicated by poor glycemic control (possible undiagnosed or uncontrolled diabetes). Recommend clinical correlation and prompt management.</td></tr></table></div>"
            },
            "code": {
              "coding": [
                {
                  "system": "http://loinc.org",
                  "code": "48767-8",
                  "display": "Annotation comment"
                }
              ]
            },
            "title": "Annotation comment"
          }
        ],
        "status": "final",
        "subject": {
          "reference": "urn:uuid:8050e48f-f910-4bbf-9e62-3af68277883a",
          "display": "Lazăr Florea"
        },
        "date": "2020-11-11T08:25:24Z",
        "title": "Laboratory Report",
        "confidentiality": "N"
      }
    },
    {
      "fullUrl": "urn:uuid:717d8009-862e-4c3c-9ab2-d3b7cbde5496",
      "resource": {
        "resourceType": "DiagnosticReport",
        "id": "717d8009-862e-4c3c-9ab2-d3b7cbde5496",
        "meta": {
          "profile": [
            "http://hl7.eu/fhir/laboratory/StructureDefinition/DiagnosticReport-eu-lab"
          ]
        },
        "identifier": [
          {
            "assigner": {
              "display": "HL7 Europe"
            },
            "system": "urn:oid:2.16.840.1.113883.2.51.999",
            "value": "787b55e1-a40c-4423-97f1-f1130a58be53"
          }
        ],
        "extension": [
          {
            "url": "http://hl7.org/fhir/5.0/StructureDefinition/extension-DiagnosticReport.composition",
            "valueReference": {
              "reference": "urn:uuid:71fcdb0e-4b2c-4d2d-9a65-388cc4d1dbf3"
            }
          }
        ],
        "category": [
          {
            "coding": [
              {
                "code": "26436-6",
                "system": "http://loinc.org",
                "display": "Laboratory studies (set)"
              }
            ]
          }
        ],
        "specimen": [
          {
            "reference": "urn:uuid:eca6f547-16a5-4a3f-ade9-2bde71618a33"
          },
          {
            "reference": "urn:uuid:921a247b-92af-40e0-b4bb-a8a1b57aa548"
          }
        ],
        "result": [
          {
            "reference": "urn:uuid:51f19bbc-7cd3-4c8a-a6f4-42c8235a5f2d"
          },
          {
            "reference": "urn:uuid:9d5d5021-b359-44dc-803d-a7c7967f0de3"
          },
          {
            "reference": "urn:uuid:462f7344-f782-49db-8ab0-f5200d9ad247"
          },
          {
            "reference": "urn:uuid:d105ade2-ae3d-4441-87c1-410a917524b5"
          },
          {
            "reference": "urn:uuid:71e9c9cd-f13c-4fbb-adb2-75434d8f9896"
          },
          {
            "reference": "urn:uuid:d4c9e6b5-fe03-45cb-aac4-d70c205d3d18"
          },
          {
            "reference": "urn:uuid:5bf1d12b-6ebe-4ff2-b781-afdd1d17772f"
          },
          {
            "reference": "urn:uuid:866ad135-fcb5-4b65-89c5-6e2ad0741a46"
          },
          {
            "reference": "urn:uuid:ee633e2c-7b2c-42f7-97b2-61437aba2753"
          },
          {
            "reference": "urn:uuid:a2d2ba9e-a495-4108-9a67-da0fc3b8efa3"
          },
          {
            "reference": "urn:uuid:0882efd1-d69a-470e-b4d8-84a1d7e76130"
          },
          {
            "reference": "urn:uuid:8922038f-14da-4d74-a6f7-3fa4eebdc244"
          },
          {
            "reference": "urn:uuid:07e7043e-8b33-4c27-9dac-4cef3638b96b"
          },
          {
            "reference": "urn:uuid:6c4c2efd-a4ed-4cef-bf9d-1eaaa58d92c2"
          },
          {
            "reference": "urn:uuid:4c2259a2-4eb3-4279-b1d8-e6249bd955a9"
          }
        ],
        "status": "registered",
        "code": {
          "coding": [
            {
              "code": "11502-2",
              "system": "http://loinc.org",
              "display": "Laboratory report"
            }
          ]
        },
        "subject": {
          "reference": "urn:uuid:8050e48f-f910-4bbf-9e62-3af68277883a",
          "display": "Lazăr Florea"
        }
      }
    },
    {
      "fullUrl": "urn:uuid:8050e48f-f910-4bbf-9e62-3af68277883a",
      "resource": {
        "resourceType": "Patient",
        "id": "8050e48f-f910-4bbf-9e62-3af68277883a",
        "meta": {
          "security": [
            {
              "system": "http://terminology.hl7.org/CodeSystem/v3-ActReason",
              "code": "HTEST"
            },
            {
              "system": "http://terminology.hl7.org/CodeSystem/v3-ActReason",
              "code": "TRAIN"
            }
          ],
          "tag": [
            {
              "system": "https://synderai.net/fhir/CodeSystem/tags",
              "code": "synthetic",
              "display": "SYNDERAI Synthetic data"
            }
          ],
          "profile": [
            "http://hl7.eu/fhir/base/StructureDefinition/patient-eu-core"
          ]
        },
        "identifier": [
          {
            "type": {
              "coding": [
                {
                  "code": "PT",
                  "system": "http://terminology.hl7.org/CodeSystem/v2-0203"
                }
              ]
            },
            "system": "http://ec.europa.eu/identifier/eci",
            "value": "8693-862290-8"
          },
          {
            "type": {
              "coding": [
                {
                  "code": "MR",
                  "system": "http://terminology.hl7.org/CodeSystem/v2-0203"
                }
              ]
            },
            "system": "http://local.setting.eu/identifier",
            "value": "602fbbf5-967b-6d86-a533-5cec24b13e71"
          }
        ],
        "name": [
          {
            "family": "Florea"
          },
          {
            "given": [
              "Lazăr"
            ]
          },
          {
            "text": "Lazăr Florea"
          }
        ],
        "address": [
          {
            "line": [
              "Drumul Grațian Nistor"
            ],
            "use": "home",
            "type": "physical",
            "postalCode": "265300",
            "city": "Lupeni",
            "country": "Romania"
          }
        ],
        "telecom": [
          {
            "system": "phone",
            "value": "0753 950 380"
          }
        ],
        "extension": [
          {
            "url": "http://hl7.org/fhir/StructureDefinition/patient-nationality",
            "valueCodeableConcept": {
              "coding": [
                {
                  "code": "RO",
                  "system": "http://hl7.org/fhir/ValueSet/country"
                }
              ]
            }
          }
        ],
        "text": {
          "status": "generated",
          "div": "<div xmlns=\"http://www.w3.org/1999/xhtml\"><table class=\"hl7__ips\"><tr><td>Lazăr Florea</td><td>male</td><td>10-Feb-1946</td></tr></table></div>"
        },
        "gender": "male",
        "birthDate": "1946-02-10"
      }
    },
    {
      "fullUrl": "urn:uuid:9990f103-c718-4cbe-b0a4-65814249c5cd",
      "resource": {
        "resourceType": "ServiceRequest",
        "id": "9990f103-c718-4cbe-b0a4-65814249c5cd",
        "meta": {
          "profile": [
            "http://hl7.eu/fhir/laboratory/StructureDefinition/ServiceRequest-eu-lab"
          ]
        },
        "identifier": [
          {
            "system": "http://example.org",
            "value": "319fba19-5964-45a1-a386-ed072c6b89ff"
          }
        ],
        "specimen": [
          {
            "reference": "urn:uuid:eca6f547-16a5-4a3f-ade9-2bde71618a33"
          },
          {
            "reference": "urn:uuid:921a247b-92af-40e0-b4bb-a8a1b57aa548"
          }
        ],
        "reasonCode": [
          {
            "coding": [
              {
                "code": "197927001",
                "system": "http://snomed.info/sct",
                "display": "Recurrent urinary tract infection"
              }
            ]
          },
          {
            "coding": [
              {
                "code": "414545008",
                "system": "http://snomed.info/sct",
                "display": "Ischemic heart disease"
              }
            ]
          },
          {
            "coding": [
              {
                "code": "237602007",
                "system": "http://snomed.info/sct",
                "display": "Metabolic syndrome X"
              }
            ]
          },
          {
            "coding": [
              {
                "code": "271737000",
                "system": "http://snomed.info/sct",
                "display": "Anemia"
              }
            ]
          },
          {
            "coding": [
              {
                "code": "15777000",
                "system": "http://snomed.info/sct",
                "display": "Prediabetes"
              }
            ]
          },
          {
            "coding": [
              {
                "code": "59621000",
                "system": "http://snomed.info/sct",
                "display": "Essential hypertension"
              }
            ]
          },
          {
            "coding": [
              {
                "code": "40055000",
                "system": "http://snomed.info/sct",
                "display": "Chronic sinusitis"
              }
            ]
          }
        ],
        "status": "active",
        "intent": "order",
        "code": {
          "coding": [
            {
              "code": "108252007",
              "system": "http://snomed.info/sct",
              "display": "Laboratory procedure"
            }
          ]
        },
        "subject": {
          "reference": "urn:uuid:8050e48f-f910-4bbf-9e62-3af68277883a",
          "display": "Lazăr Florea"
        },
        "requester": {
          "reference": "urn:uuid:024f3852-34e6-410c-9a80-8d1b2429575f"
        }
      }
    },
    {
      "fullUrl": "urn:uuid:024f3852-34e6-410c-9a80-8d1b2429575f",
      "resource": {
        "resourceType": "PractitionerRole",
        "id": "024f3852-34e6-410c-9a80-8d1b2429575f",
        "meta": {
          "profile": [
            "http://hl7.eu/fhir/base/StructureDefinition/practitionerRole-eu"
          ]
        },
        "text": {
          "status": "generated",
          "div": "<div xmlns=\"http://www.w3.org/1999/xhtml\">Provider Role Id: 024f3852-34e6-410c-9a80-8d1b2429575f</div>"
        },
        "organization": {
          "reference": "urn:uuid:16384647-faa0-4d6d-81af-abb988d8eac4"
        }
      }
    },
    {
      "fullUrl": "urn:uuid:16384647-faa0-4d6d-81af-abb988d8eac4",
      "resource": {
        "resourceType": "Organization",
        "id": "16384647-faa0-4d6d-81af-abb988d8eac4",
        "meta": {
          "profile": [
            "http://hl7.eu/fhir/base/StructureDefinition/organization-eu"
          ]
        },
        "identifier": [
          {
            "assigner": {
              "display": "HL7 Europe"
            },
            "system": "urn:oid:2.16.840.1.113883.2.51.999",
            "value": "d26b6bea-938a-4aab-8b08-2366dc9bf90a"
          }
        ],
        "address": [
          {
            "line": [
              "Strada 1 Decembrie 1918 137 A"
            ],
            "city": "Petroșani",
            "postalCode": "332019",
            "country": "Romania"
          }
        ],
        "text": {
          "status": "generated",
          "div": "<div xmlns=\"http://www.w3.org/1999/xhtml\">Provider Organization: Spitalul de Urgență</div>"
        },
        "name": "Spitalul de Urgență"
      }
    },
    {
      "fullUrl": "urn:uuid:eca6f547-16a5-4a3f-ade9-2bde71618a33",
      "resource": {
        "resourceType": "Specimen",
        "id": "eca6f547-16a5-4a3f-ade9-2bde71618a33",
        "meta": {
          "profile": [
            "http://hl7.eu/fhir/laboratory/StructureDefinition/Specimen-eu-lab"
          ]
        },
        "collection": {
          "collectedDateTime": "2020-11-11"
        },
        "text": {
          "status": "generated",
          "div": "<div xmlns=\"http://www.w3.org/1999/xhtml\"><table class=\"hl7__eu__lab__report\"><tr><th>Specimen</th><th>Collection Date</th></tr><tr><td>Urine specimen</td><td><span class=\"nb\">11-Nov-2020</span></td></tr></table></div>"
        },
        "type": {
          "coding": [
            {
              "code": "122575003",
              "system": "http://snomed.info/sct",
              "display": "Urine specimen"
            }
          ]
        }
      }
    },
    {
      "fullUrl": "urn:uuid:921a247b-92af-40e0-b4bb-a8a1b57aa548",
      "resource": {
        "resourceType": "Specimen",
        "id": "921a247b-92af-40e0-b4bb-a8a1b57aa548",
        "meta": {
          "profile": [
            "http://hl7.eu/fhir/laboratory/StructureDefinition/Specimen-eu-lab"
          ]
        },
        "collection": {
          "collectedDateTime": "2020-11-11"
        },
        "text": {
          "status": "generated",
          "div": "<div xmlns=\"http://www.w3.org/1999/xhtml\"><table class=\"hl7__eu__lab__report\"><tr><th>Specimen</th><th>Collection Date</th></tr><tr><td>Urine sediment specimen (specimen)</td><td><span class=\"nb\">11-Nov-2020</span></td></tr></table></div>"
        },
        "type": {
          "coding": [
            {
              "code": "122567009",
              "system": "http://snomed.info/sct",
              "display": "Urine sediment specimen (specimen)"
            }
          ]
        }
      }
    },
    {
      "fullUrl": "urn:uuid:51f19bbc-7cd3-4c8a-a6f4-42c8235a5f2d",
      "resource": {
        "resourceType": "Observation",
        "id": "51f19bbc-7cd3-4c8a-a6f4-42c8235a5f2d",
        "meta": {
          "profile": [
            "http://hl7.eu/fhir/laboratory/StructureDefinition/Observation-resultslab-eu-lab"
          ]
        },
        "performer": [
          {
            "display": "The Central European Lab"
          }
        ],
        "category": [
          {
            "coding": [
              {
                "system": "http://terminology.hl7.org/CodeSystem/observation-category",
                "code": "laboratory"
              }
            ]
          }
        ],
        "code": {
          "coding": [
            {
              "code": "5792-7",
              "system": "http://loinc.org",
              "display": "Glucose [Mass/volume] in Urine by Test strip"
            }
          ],
          "text": "Glucose [Mass/volume] in Urine by Test strip"
        },
        "valueQuantity": {
          "system": "http://unitsofmeasure.org",
          "value": 10.3,
          "unit": "mg/dL",
          "code": "mg/dL"
        },
        "referenceRange": [
          {
            "low": {
              "value": 0,
              "code": "mg/dL",
              "system": "http://unitsofmeasure.org"
            }
          },
          {
            "high": {
              "value": 0.8,
              "code": "mg/dL",
              "system": "http://unitsofmeasure.org"
            }
          }
        ],
        "interpretation": [
          {
            "coding": [
              {
                "code": "H",
                "system": "http://terminology.hl7.org/CodeSystem/v3-ObservationInterpretation",
                "display": "High"
              }
            ]
          }
        ],
        "text": {
          "status": "generated",
          "div": "<div xmlns=\"http://www.w3.org/1999/xhtml\"><table class=\"hl7__eu__lab__report\"><tr><th>Test</th><th>11-Nov-2020</th><th>Reference&#xA0;Range</th><th>Unit</th></tr><tr><td>Glucose [Mass/volume] in Urine by Test strip</td><td>10.3</td><td>0 - 0.8</td><td>H</td><td>mg/dL</td></tr></table></div>"
        },
        "status": "final",
        "subject": {
          "reference": "urn:uuid:8050e48f-f910-4bbf-9e62-3af68277883a",
          "display": "Lazăr Florea"
        },
        "effectiveDateTime": "2020-11-11T07:25:24Z",
        "specimen": {
          "reference": "urn:uuid:eca6f547-16a5-4a3f-ade9-2bde71618a33"
        }
      }
    },
    {
      "fullUrl": "urn:uuid:9d5d5021-b359-44dc-803d-a7c7967f0de3",
      "resource": {
        "resourceType": "Observation",
        "id": "9d5d5021-b359-44dc-803d-a7c7967f0de3",
        "meta": {
          "profile": [
            "http://hl7.eu/fhir/laboratory/StructureDefinition/Observation-resultslab-eu-lab"
          ]
        },
        "performer": [
          {
            "display": "The Central European Lab"
          }
        ],
        "category": [
          {
            "coding": [
              {
                "system": "http://terminology.hl7.org/CodeSystem/observation-category",
                "code": "laboratory"
              }
            ]
          }
        ],
        "code": {
          "coding": [
            {
              "code": "2514-8",
              "system": "http://loinc.org",
              "display": "Ketones [Presence] in Urine by Test strip"
            }
          ],
          "text": "Ketones [Presence] in Urine by Test strip"
        },
        "text": {
          "status": "generated",
          "div": "<div xmlns=\"http://www.w3.org/1999/xhtml\"><table class=\"hl7__eu__lab__report\"><tr><th>Test</th><th>11-Nov-2020</th><th>Reference&#xA0;Range</th><th>Unit</th></tr><tr><td>Ketones [Presence] in Urine by Test strip</td></tr></table></div>"
        },
        "status": "final",
        "subject": {
          "reference": "urn:uuid:8050e48f-f910-4bbf-9e62-3af68277883a",
          "display": "Lazăr Florea"
        },
        "effectiveDateTime": "2020-11-11T07:25:24Z",
        "specimen": {
          "reference": "urn:uuid:eca6f547-16a5-4a3f-ade9-2bde71618a33"
        }
      }
    },
    {
      "fullUrl": "urn:uuid:462f7344-f782-49db-8ab0-f5200d9ad247",
      "resource": {
        "resourceType": "Observation",
        "id": "462f7344-f782-49db-8ab0-f5200d9ad247",
        "meta": {
          "profile": [
            "http://hl7.eu/fhir/laboratory/StructureDefinition/Observation-resultslab-eu-lab"
          ]
        },
        "performer": [
          {
            "display": "The Central European Lab"
          }
        ],
        "category": [
          {
            "coding": [
              {
                "system": "http://terminology.hl7.org/CodeSystem/observation-category",
                "code": "laboratory"
              }
            ]
          }
        ],
        "code": {
          "coding": [
            {
              "code": "5811-5",
              "system": "http://loinc.org",
              "display": "Specific gravity of Urine by Test strip"
            }
          ],
          "text": "Specific gravity of Urine by Test strip"
        },
        "valueQuantity": {
          "system": "http://unitsofmeasure.org",
          "value": 1,
          "unit": "{nominal}",
          "code": "{nominal}"
        },
        "referenceRange": [
          {
            "low": {
              "value": 1.005,
              "code": "g/mL",
              "system": "http://unitsofmeasure.org"
            }
          },
          {
            "high": {
              "value": 1.03,
              "code": "g/mL",
              "system": "http://unitsofmeasure.org"
            }
          }
        ],
        "interpretation": [
          {
            "coding": [
              {
                "code": "L",
                "system": "http://terminology.hl7.org/CodeSystem/v3-ObservationInterpretation",
                "display": "Low"
              }
            ]
          }
        ],
        "text": {
          "status": "generated",
          "div": "<div xmlns=\"http://www.w3.org/1999/xhtml\"><table class=\"hl7__eu__lab__report\"><tr><th>Test</th><th>11-Nov-2020</th><th>Reference&#xA0;Range</th><th>Unit</th></tr><tr><td>Specific gravity of Urine by Test strip</td><td>1.0</td><td>1.005 - 1.03</td><td>L</td><td>{nominal}</td></tr></table></div>"
        },
        "status": "final",
        "subject": {
          "reference": "urn:uuid:8050e48f-f910-4bbf-9e62-3af68277883a",
          "display": "Lazăr Florea"
        },
        "effectiveDateTime": "2020-11-11T07:25:24Z",
        "specimen": {
          "reference": "urn:uuid:eca6f547-16a5-4a3f-ade9-2bde71618a33"
        }
      }
    },
    {
      "fullUrl": "urn:uuid:d105ade2-ae3d-4441-87c1-410a917524b5",
      "resource": {
        "resourceType": "Observation",
        "id": "d105ade2-ae3d-4441-87c1-410a917524b5",
        "meta": {
          "profile": [
            "http://hl7.eu/fhir/laboratory/StructureDefinition/Observation-resultslab-eu-lab"
          ]
        },
        "performer": [
          {
            "display": "The Central European Lab"
          }
        ],
        "category": [
          {
            "coding": [
              {
                "system": "http://terminology.hl7.org/CodeSystem/observation-category",
                "code": "laboratory"
              }
            ]
          }
        ],
        "code": {
          "coding": [
            {
              "code": "5803-2",
              "system": "http://loinc.org",
              "display": "pH of Urine by Test strip"
            }
          ],
          "text": "pH of Urine by Test strip"
        },
        "valueQuantity": {
          "system": "http://unitsofmeasure.org",
          "value": 6,
          "unit": "pH",
          "code": "pH"
        },
        "referenceRange": [
          {
            "low": {
              "value": 4.6,
              "code": "pH",
              "system": "http://unitsofmeasure.org"
            }
          },
          {
            "high": {
              "value": 7,
              "code": "pH",
              "system": "http://unitsofmeasure.org"
            }
          }
        ],
        "text": {
          "status": "generated",
          "div": "<div xmlns=\"http://www.w3.org/1999/xhtml\"><table class=\"hl7__eu__lab__report\"><tr><th>Test</th><th>11-Nov-2020</th><th>Reference&#xA0;Range</th><th>Unit</th></tr><tr><td>pH of Urine by Test strip</td><td>6.0</td><td>4.6 - 7</td><td></td><td>pH</td></tr></table></div>"
        },
        "status": "final",
        "subject": {
          "reference": "urn:uuid:8050e48f-f910-4bbf-9e62-3af68277883a",
          "display": "Lazăr Florea"
        },
        "effectiveDateTime": "2020-11-11T07:25:24Z",
        "specimen": {
          "reference": "urn:uuid:eca6f547-16a5-4a3f-ade9-2bde71618a33"
        }
      }
    },
    {
      "fullUrl": "urn:uuid:71e9c9cd-f13c-4fbb-adb2-75434d8f9896",
      "resource": {
        "resourceType": "Observation",
        "id": "71e9c9cd-f13c-4fbb-adb2-75434d8f9896",
        "meta": {
          "profile": [
            "http://hl7.eu/fhir/laboratory/StructureDefinition/Observation-resultslab-eu-lab"
          ]
        },
        "performer": [
          {
            "display": "The Central European Lab"
          }
        ],
        "category": [
          {
            "coding": [
              {
                "system": "http://terminology.hl7.org/CodeSystem/observation-category",
                "code": "laboratory"
              }
            ]
          }
        ],
        "code": {
          "coding": [
            {
              "code": "5804-0",
              "system": "http://loinc.org",
              "display": "Protein [Mass/volume] in Urine by Test strip"
            }
          ],
          "text": "Protein [Mass/volume] in Urine by Test strip"
        },
        "valueQuantity": {
          "system": "http://unitsofmeasure.org",
          "value": 10.6,
          "unit": "mg/dL",
          "code": "mg/dL"
        },
        "referenceRange": [
          {
            "low": {
              "value": 0,
              "code": "mg/dL",
              "system": "http://unitsofmeasure.org"
            }
          },
          {
            "high": {
              "value": 145,
              "code": "mg/dL",
              "system": "http://unitsofmeasure.org"
            }
          }
        ],
        "text": {
          "status": "generated",
          "div": "<div xmlns=\"http://www.w3.org/1999/xhtml\"><table class=\"hl7__eu__lab__report\"><tr><th>Test</th><th>11-Nov-2020</th><th>Reference&#xA0;Range</th><th>Unit</th></tr><tr><td>Protein [Mass/volume] in Urine by Test strip</td><td>10.6</td><td>0 - 145</td><td></td><td>mg/dL</td></tr></table></div>"
        },
        "status": "final",
        "subject": {
          "reference": "urn:uuid:8050e48f-f910-4bbf-9e62-3af68277883a",
          "display": "Lazăr Florea"
        },
        "effectiveDateTime": "2020-11-11T07:25:24Z",
        "specimen": {
          "reference": "urn:uuid:eca6f547-16a5-4a3f-ade9-2bde71618a33"
        }
      }
    },
    {
      "fullUrl": "urn:uuid:d4c9e6b5-fe03-45cb-aac4-d70c205d3d18",
      "resource": {
        "resourceType": "Observation",
        "id": "d4c9e6b5-fe03-45cb-aac4-d70c205d3d18",
        "meta": {
          "profile": [
            "http://hl7.eu/fhir/laboratory/StructureDefinition/Observation-resultslab-eu-lab"
          ]
        },
        "performer": [
          {
            "display": "The Central European Lab"
          }
        ],
        "category": [
          {
            "coding": [
              {
                "system": "http://terminology.hl7.org/CodeSystem/observation-category",
                "code": "laboratory"
              }
            ]
          }
        ],
        "code": {
          "coding": [
            {
              "code": "5802-4",
              "system": "http://loinc.org",
              "display": "Nitrite [Presence] in Urine by Test strip"
            }
          ],
          "text": "Nitrite [Presence] in Urine by Test strip"
        },
        "text": {
          "status": "generated",
          "div": "<div xmlns=\"http://www.w3.org/1999/xhtml\"><table class=\"hl7__eu__lab__report\"><tr><th>Test</th><th>11-Nov-2020</th><th>Reference&#xA0;Range</th><th>Unit</th></tr><tr><td>Nitrite [Presence] in Urine by Test strip</td></tr></table></div>"
        },
        "status": "final",
        "subject": {
          "reference": "urn:uuid:8050e48f-f910-4bbf-9e62-3af68277883a",
          "display": "Lazăr Florea"
        },
        "effectiveDateTime": "2020-11-11T07:25:24Z",
        "specimen": {
          "reference": "urn:uuid:eca6f547-16a5-4a3f-ade9-2bde71618a33"
        }
      }
    },
    {
      "fullUrl": "urn:uuid:5bf1d12b-6ebe-4ff2-b781-afdd1d17772f",
      "resource": {
        "resourceType": "Observation",
        "id": "5bf1d12b-6ebe-4ff2-b781-afdd1d17772f",
        "meta": {
          "profile": [
            "http://hl7.eu/fhir/laboratory/StructureDefinition/Observation-resultslab-eu-lab"
          ]
        },
        "performer": [
          {
            "display": "The Central European Lab"
          }
        ],
        "category": [
          {
            "coding": [
              {
                "system": "http://terminology.hl7.org/CodeSystem/observation-category",
                "code": "laboratory"
              }
            ]
          }
        ],
        "code": {
          "coding": [
            {
              "code": "5794-3",
              "system": "http://loinc.org",
              "display": "Hemoglobin [Presence] in Urine by Test strip"
            }
          ],
          "text": "Hemoglobin [Presence] in Urine by Test strip"
        },
        "text": {
          "status": "generated",
          "div": "<div xmlns=\"http://www.w3.org/1999/xhtml\"><table class=\"hl7__eu__lab__report\"><tr><th>Test</th><th>11-Nov-2020</th><th>Reference&#xA0;Range</th><th>Unit</th></tr><tr><td>Hemoglobin [Presence] in Urine by Test strip</td></tr></table></div>"
        },
        "status": "final",
        "subject": {
          "reference": "urn:uuid:8050e48f-f910-4bbf-9e62-3af68277883a",
          "display": "Lazăr Florea"
        },
        "effectiveDateTime": "2020-11-11T07:25:24Z",
        "specimen": {
          "reference": "urn:uuid:eca6f547-16a5-4a3f-ade9-2bde71618a33"
        }
      }
    },
    {
      "fullUrl": "urn:uuid:866ad135-fcb5-4b65-89c5-6e2ad0741a46",
      "resource": {
        "resourceType": "Observation",
        "id": "866ad135-fcb5-4b65-89c5-6e2ad0741a46",
        "meta": {
          "profile": [
            "http://hl7.eu/fhir/laboratory/StructureDefinition/Observation-resultslab-eu-lab"
          ]
        },
        "performer": [
          {
            "display": "The Central European Lab"
          }
        ],
        "category": [
          {
            "coding": [
              {
                "system": "http://terminology.hl7.org/CodeSystem/observation-category",
                "code": "laboratory"
              }
            ]
          }
        ],
        "code": {
          "coding": [
            {
              "code": "5799-2",
              "system": "http://loinc.org",
              "display": "Leukocyte esterase [Presence] in Urine by Test strip"
            }
          ],
          "text": "Leukocyte esterase [Presence] in Urine by Test strip"
        },
        "text": {
          "status": "generated",
          "div": "<div xmlns=\"http://www.w3.org/1999/xhtml\"><table class=\"hl7__eu__lab__report\"><tr><th>Test</th><th>11-Nov-2020</th><th>Reference&#xA0;Range</th><th>Unit</th></tr><tr><td>Leukocyte esterase [Presence] in Urine by Test strip</td></tr></table></div>"
        },
        "status": "final",
        "subject": {
          "reference": "urn:uuid:8050e48f-f910-4bbf-9e62-3af68277883a",
          "display": "Lazăr Florea"
        },
        "effectiveDateTime": "2020-11-11T07:25:24Z",
        "specimen": {
          "reference": "urn:uuid:eca6f547-16a5-4a3f-ade9-2bde71618a33"
        }
      }
    },
    {
      "fullUrl": "urn:uuid:ee633e2c-7b2c-42f7-97b2-61437aba2753",
      "resource": {
        "resourceType": "Observation",
        "id": "ee633e2c-7b2c-42f7-97b2-61437aba2753",
        "meta": {
          "profile": [
            "http://hl7.eu/fhir/laboratory/StructureDefinition/Observation-resultslab-eu-lab"
          ]
        },
        "performer": [
          {
            "display": "The Central European Lab"
          }
        ],
        "category": [
          {
            "coding": [
              {
                "system": "http://terminology.hl7.org/CodeSystem/observation-category",
                "code": "laboratory"
              }
            ]
          }
        ],
        "code": {
          "coding": [
            {
              "code": "5821-4",
              "system": "http://loinc.org",
              "display": "Leukocytes [#/area] in Urine sediment by Microscopy high power field"
            }
          ],
          "text": "Leukocytes [#/area] in Urine sediment by Microscopy high power field"
        },
        "valueQuantity": {
          "system": "http://unitsofmeasure.org",
          "value": 42.7,
          "unit": "/[HPF]",
          "code": "/[HPF]"
        },
        "referenceRange": [
          {
            "low": {
              "value": 0,
              "code": "#/area",
              "system": "http://unitsofmeasure.org"
            }
          },
          {
            "high": {
              "value": 50,
              "code": "#/area",
              "system": "http://unitsofmeasure.org"
            }
          }
        ],
        "text": {
          "status": "generated",
          "div": "<div xmlns=\"http://www.w3.org/1999/xhtml\"><table class=\"hl7__eu__lab__report\"><tr><th>Test</th><th>11-Nov-2020</th><th>Reference&#xA0;Range</th><th>Unit</th></tr><tr><td>Leukocytes [#/area] in Urine sediment by Microscopy high power field</td><td>42.7</td><td>0 - 50</td><td></td><td>/[HPF]</td></tr></table></div>"
        },
        "status": "final",
        "subject": {
          "reference": "urn:uuid:8050e48f-f910-4bbf-9e62-3af68277883a",
          "display": "Lazăr Florea"
        },
        "effectiveDateTime": "2020-11-11T07:25:24Z",
        "specimen": {
          "reference": "urn:uuid:921a247b-92af-40e0-b4bb-a8a1b57aa548"
        }
      }
    },
    {
      "fullUrl": "urn:uuid:a2d2ba9e-a495-4108-9a67-da0fc3b8efa3",
      "resource": {
        "resourceType": "Observation",
        "id": "a2d2ba9e-a495-4108-9a67-da0fc3b8efa3",
        "meta": {
          "profile": [
            "http://hl7.eu/fhir/laboratory/StructureDefinition/Observation-resultslab-eu-lab"
          ]
        },
        "performer": [
          {
            "display": "The Central European Lab"
          }
        ],
        "category": [
          {
            "coding": [
              {
                "system": "http://terminology.hl7.org/CodeSystem/observation-category",
                "code": "laboratory"
              }
            ]
          }
        ],
        "code": {
          "coding": [
            {
              "code": "13945-1",
              "system": "http://loinc.org",
              "display": "Erythrocytes [#/area] in Urine sediment by Microscopy high power field"
            }
          ],
          "text": "Erythrocytes [#/area] in Urine sediment by Microscopy high power field"
        },
        "valueQuantity": {
          "system": "http://unitsofmeasure.org",
          "value": 1.3,
          "unit": "/[HPF]",
          "code": "/[HPF]"
        },
        "referenceRange": [
          {
            "low": {
              "value": 0,
              "code": "#/area",
              "system": "http://unitsofmeasure.org"
            }
          },
          {
            "high": {
              "value": 3,
              "code": "#/area",
              "system": "http://unitsofmeasure.org"
            }
          }
        ],
        "text": {
          "status": "generated",
          "div": "<div xmlns=\"http://www.w3.org/1999/xhtml\"><table class=\"hl7__eu__lab__report\"><tr><th>Test</th><th>11-Nov-2020</th><th>Reference&#xA0;Range</th><th>Unit</th></tr><tr><td>Erythrocytes [#/area] in Urine sediment by Microscopy high power field</td><td>1.3</td><td>0 - 3</td><td></td><td>/[HPF]</td></tr></table></div>"
        },
        "status": "final",
        "subject": {
          "reference": "urn:uuid:8050e48f-f910-4bbf-9e62-3af68277883a",
          "display": "Lazăr Florea"
        },
        "effectiveDateTime": "2020-11-11T07:25:24Z",
        "specimen": {
          "reference": "urn:uuid:921a247b-92af-40e0-b4bb-a8a1b57aa548"
        }
      }
    },
    {
      "fullUrl": "urn:uuid:0882efd1-d69a-470e-b4d8-84a1d7e76130",
      "resource": {
        "resourceType": "Observation",
        "id": "0882efd1-d69a-470e-b4d8-84a1d7e76130",
        "meta": {
          "profile": [
            "http://hl7.eu/fhir/laboratory/StructureDefinition/Observation-resultslab-eu-lab"
          ]
        },
        "performer": [
          {
            "display": "The Central European Lab"
          }
        ],
        "category": [
          {
            "coding": [
              {
                "system": "http://terminology.hl7.org/CodeSystem/observation-category",
                "code": "laboratory"
              }
            ]
          }
        ],
        "code": {
          "coding": [
            {
              "code": "5787-7",
              "system": "http://loinc.org",
              "display": "Epithelial cells [#/area] in Urine sediment by Microscopy high power field"
            }
          ],
          "text": "Epithelial cells [#/area] in Urine sediment by Microscopy high power field"
        },
        "valueQuantity": {
          "system": "http://unitsofmeasure.org",
          "value": 3.5,
          "unit": "/[HPF]",
          "code": "/[HPF]"
        },
        "referenceRange": [
          {
            "low": {
              "value": 0,
              "code": "#/area",
              "system": "http://unitsofmeasure.org"
            }
          },
          {
            "high": {
              "value": 10,
              "code": "#/area",
              "system": "http://unitsofmeasure.org"
            }
          }
        ],
        "text": {
          "status": "generated",
          "div": "<div xmlns=\"http://www.w3.org/1999/xhtml\"><table class=\"hl7__eu__lab__report\"><tr><th>Test</th><th>11-Nov-2020</th><th>Reference&#xA0;Range</th><th>Unit</th></tr><tr><td>Epithelial cells [#/area] in Urine sediment by Microscopy high power field</td><td>3.5</td><td>0 - 10</td><td></td><td>/[HPF]</td></tr></table></div>"
        },
        "status": "final",
        "subject": {
          "reference": "urn:uuid:8050e48f-f910-4bbf-9e62-3af68277883a",
          "display": "Lazăr Florea"
        },
        "effectiveDateTime": "2020-11-11T07:25:24Z",
        "specimen": {
          "reference": "urn:uuid:921a247b-92af-40e0-b4bb-a8a1b57aa548"
        }
      }
    },
    {
      "fullUrl": "urn:uuid:8922038f-14da-4d74-a6f7-3fa4eebdc244",
      "resource": {
        "resourceType": "Observation",
        "id": "8922038f-14da-4d74-a6f7-3fa4eebdc244",
        "meta": {
          "profile": [
            "http://hl7.eu/fhir/laboratory/StructureDefinition/Observation-resultslab-eu-lab"
          ]
        },
        "performer": [
          {
            "display": "The Central European Lab"
          }
        ],
        "category": [
          {
            "coding": [
              {
                "system": "http://terminology.hl7.org/CodeSystem/observation-category",
                "code": "laboratory"
              }
            ]
          }
        ],
        "code": {
          "coding": [
            {
              "code": "24124-0",
              "system": "http://loinc.org",
              "display": "Casts [Presence] in Urine sediment by Light microscopy"
            }
          ],
          "text": "Casts [Presence] in Urine sediment by Light microscopy"
        },
        "text": {
          "status": "generated",
          "div": "<div xmlns=\"http://www.w3.org/1999/xhtml\"><table class=\"hl7__eu__lab__report\"><tr><th>Test</th><th>11-Nov-2020</th><th>Reference&#xA0;Range</th><th>Unit</th></tr><tr><td>Casts [Presence] in Urine sediment by Light microscopy</td></tr></table></div>"
        },
        "status": "final",
        "subject": {
          "reference": "urn:uuid:8050e48f-f910-4bbf-9e62-3af68277883a",
          "display": "Lazăr Florea"
        },
        "effectiveDateTime": "2020-11-11T07:25:24Z",
        "specimen": {
          "reference": "urn:uuid:921a247b-92af-40e0-b4bb-a8a1b57aa548"
        }
      }
    },
    {
      "fullUrl": "urn:uuid:07e7043e-8b33-4c27-9dac-4cef3638b96b",
      "resource": {
        "resourceType": "Observation",
        "id": "07e7043e-8b33-4c27-9dac-4cef3638b96b",
        "meta": {
          "profile": [
            "http://hl7.eu/fhir/laboratory/StructureDefinition/Observation-resultslab-eu-lab"
          ]
        },
        "performer": [
          {
            "display": "The Central European Lab"
          }
        ],
        "category": [
          {
            "coding": [
              {
                "system": "http://terminology.hl7.org/CodeSystem/observation-category",
                "code": "laboratory"
              }
            ]
          }
        ],
        "code": {
          "coding": [
            {
              "code": "8247-9",
              "system": "http://loinc.org",
              "display": "Mucus [Presence] in Urine sediment by Light microscopy"
            }
          ],
          "text": "Mucus [Presence] in Urine sediment by Light microscopy"
        },
        "text": {
          "status": "generated",
          "div": "<div xmlns=\"http://www.w3.org/1999/xhtml\"><table class=\"hl7__eu__lab__report\"><tr><th>Test</th><th>11-Nov-2020</th><th>Reference&#xA0;Range</th><th>Unit</th></tr><tr><td>Mucus [Presence] in Urine sediment by Light microscopy</td></tr></table></div>"
        },
        "status": "final",
        "subject": {
          "reference": "urn:uuid:8050e48f-f910-4bbf-9e62-3af68277883a",
          "display": "Lazăr Florea"
        },
        "effectiveDateTime": "2020-11-11T07:25:24Z",
        "specimen": {
          "reference": "urn:uuid:921a247b-92af-40e0-b4bb-a8a1b57aa548"
        }
      }
    },
    {
      "fullUrl": "urn:uuid:6c4c2efd-a4ed-4cef-bf9d-1eaaa58d92c2",
      "resource": {
        "resourceType": "Observation",
        "id": "6c4c2efd-a4ed-4cef-bf9d-1eaaa58d92c2",
        "meta": {
          "profile": [
            "http://hl7.eu/fhir/laboratory/StructureDefinition/Observation-resultslab-eu-lab"
          ]
        },
        "performer": [
          {
            "display": "The Central European Lab"
          }
        ],
        "category": [
          {
            "coding": [
              {
                "system": "http://terminology.hl7.org/CodeSystem/observation-category",
                "code": "laboratory"
              }
            ]
          }
        ],
        "code": {
          "coding": [
            {
              "code": "5769-5",
              "system": "http://loinc.org",
              "display": "Bacteria [#/area] in Urine sediment by Microscopy high power field"
            }
          ],
          "text": "Bacteria [#/area] in Urine sediment by Microscopy high power field"
        },
        "text": {
          "status": "generated",
          "div": "<div xmlns=\"http://www.w3.org/1999/xhtml\"><table class=\"hl7__eu__lab__report\"><tr><th>Test</th><th>11-Nov-2020</th><th>Reference&#xA0;Range</th><th>Unit</th></tr><tr><td>Bacteria [#/area] in Urine sediment by Microscopy high power field</td></tr></table></div>"
        },
        "status": "final",
        "subject": {
          "reference": "urn:uuid:8050e48f-f910-4bbf-9e62-3af68277883a",
          "display": "Lazăr Florea"
        },
        "effectiveDateTime": "2020-11-11T07:25:24Z",
        "specimen": {
          "reference": "urn:uuid:921a247b-92af-40e0-b4bb-a8a1b57aa548"
        }
      }
    },
    {
      "fullUrl": "urn:uuid:4c2259a2-4eb3-4279-b1d8-e6249bd955a9",
      "resource": {
        "resourceType": "Observation",
        "id": "4c2259a2-4eb3-4279-b1d8-e6249bd955a9",
        "meta": {
          "profile": [
            "http://hl7.eu/fhir/laboratory/StructureDefinition/Observation-resultslab-eu-lab"
          ]
        },
        "performer": [
          {
            "display": "The Central European Lab"
          }
        ],
        "category": [
          {
            "coding": [
              {
                "system": "http://terminology.hl7.org/CodeSystem/observation-category",
                "code": "laboratory"
              }
            ]
          }
        ],
        "code": {
          "coding": [
            {
              "code": "630-4",
              "system": "http://loinc.org",
              "display": "Bacteria identified in Urine by Culture"
            }
          ],
          "text": "Bacteria identified in Urine by Culture"
        },
        "text": {
          "status": "generated",
          "div": "<div xmlns=\"http://www.w3.org/1999/xhtml\"><table class=\"hl7__eu__lab__report\"><tr><th>Test</th><th>11-Nov-2020</th><th>Reference&#xA0;Range</th><th>Unit</th></tr><tr><td>Bacteria identified in Urine by Culture</td></tr></table></div>"
        },
        "status": "final",
        "subject": {
          "reference": "urn:uuid:8050e48f-f910-4bbf-9e62-3af68277883a",
          "display": "Lazăr Florea"
        },
        "effectiveDateTime": "2020-11-11T07:25:24Z",
        "specimen": {
          "reference": "urn:uuid:eca6f547-16a5-4a3f-ade9-2bde71618a33"
        }
      }
    },
    {
      "fullUrl": "urn:uuid:83f06a61-cb5e-40be-871b-cbe100d64e8e",
      "resource": {
        "resourceType": "Device",
        "id": "83f06a61-cb5e-40be-871b-cbe100d64e8e",
        "deviceName": [
          {
            "name": "SYNDERAI Synthetic Generator",
            "type": "manufacturer-name"
          }
        ],
        "version": [
          {
            "value": "5.0"
          }
        ],
        "text": {
          "status": "generated",
          "div": "<div xmlns=\"http://www.w3.org/1999/xhtml\">SYNDERAI Synthetic Generator v5.0</div>"
        },
        "status": "active\"",
        "distinctIdentifier": "synderai-generator-50",
        "manufacturer": "SYNDERAI Project"
      }
    },
    {
      "fullUrl": "urn:uuid:696828d8-e84d-43dc-b6a8-a0379aa7b77e",
      "resource": {
        "resourceType": "Provenance",
        "id": "696828d8-e84d-43dc-b6a8-a0379aa7b77e",
        "target": [
          {
            "reference": "Patient/8050e48f-f910-4bbf-9e62-3af68277883a"
          },
          {
            "reference": "Bundle/f03da6a5-665d-4cfd-902f-89fc887c4529"
          },
          {
            "reference": "Composition/a3568b44-a95c-4624-9c6a-c5b4cfc697d8"
          },
          {
            "reference": "PractitionerRole/7df8b35a-4792-4d2b-ab38-b6d9c97fbcd6"
          },
          {
            "reference": "Practitioner/29b4e2a5-cab4-4746-8119-7579e3b965f0"
          },
          {
            "reference": "PractitionerRole/024f3852-34e6-410c-9a80-8d1b2429575f"
          },
          {
            "reference": "Organization/16384647-faa0-4d6d-81af-abb988d8eac4"
          }
        ],
        "activity": {
          "text": "Synthetic Example Data Generation"
        },
        "policy": [
          "https://synderai.net/synderai-synthetic-data-policy"
        ],
        "agent": [
          {
            "type": {
              "text": "author"
            },
            "who": {
              "reference": "Device/83f06a61-cb5e-40be-871b-cbe100d64e8e"
            }
          }
        ],
        "reason": [
          {
            "text": "Interoperability Testing and Training (non-clinical use)"
          }
        ],
        "text": {
          "status": "generated",
          "div": "<div xmlns=\"http://www.w3.org/1999/xhtml\">Provenance for SYNDERAI Synthetic Example Data Resource</div>"
        },
        "recorded": "2020-11-11T08:25:24Z"
      }
    },
    {
      "fullUrl": "urn:uuid:7df8b35a-4792-4d2b-ab38-b6d9c97fbcd6",
      "resource": {
        "resourceType": "PractitionerRole",
        "id": "7df8b35a-4792-4d2b-ab38-b6d9c97fbcd6",
        "meta": {
          "profile": [
            "http://hl7.eu/fhir/base/StructureDefinition/practitionerRole-eu"
          ]
        },
        "text": {
          "status": "generated",
          "div": "<div xmlns=\"http://www.w3.org/1999/xhtml\">Laboratory Role Id: 7df8b35a-4792-4d2b-ab38-b6d9c97fbcd6</div>"
        },
        "practitioner": {
          "reference": "urn:uuid:29b4e2a5-cab4-4746-8119-7579e3b965f0"
        }
      }
    },
    {
      "fullUrl": "urn:uuid:29b4e2a5-cab4-4746-8119-7579e3b965f0",
      "resource": {
        "resourceType": "Practitioner",
        "id": "29b4e2a5-cab4-4746-8119-7579e3b965f0",
        "meta": {
          "profile": [
            "http://hl7.eu/fhir/base/StructureDefinition/practitioner-eu"
          ]
        },
        "identifier": [
          {
            "assigner": {
              "display": "HL7 Europe"
            },
            "system": "urn:oid:2.16.840.1.113883.2.51.999",
            "value": "a10d41a5-b4af-434f-acb4-e6acf1abb384"
          }
        ],
        "name": [
          {
            "prefix": [
              "dr"
            ],
            "given": [
              "Ex"
            ],
            "family": "Ample"
          }
        ],
        "address": [
          {
            "line": [
              "Laboratoire Central Européenne",
              "Boulevard du Jardin Botanique 32"
            ],
            "postalCode": "1000",
            "city": "Brussels",
            "country": "Belgium"
          }
        ],
        "text": {
          "status": "generated",
          "div": "<div xmlns=\"http://www.w3.org/1999/xhtml\">Laboratory: Laboratoire Central Européenne, 1000 Brussels, Belgium</div>"
        }
      }
    }
  ],
  "type": "document",
  "timestamp": "2020-11-11T08:25:24Z"
}
